,Subject,Trial Type,Run,Cued Composite,Uncued Composite,Cued Face,Cued Place,Uncued Face,Uncued Place,Memory Image,Category,Cued Side,Cued Category,Attention Reaction Time (s),Familiarity Reaction Time (s),Familiarity Rating,Attention Level,Cue Validity,Post Invalid Cue,Pre Invalid Cue,Attention Button,Rating History,Stimulus Onset,Stimulus End,Attention Probe
210,19,Memory,4,,,,,,,sunadfktsqjthoglcsm.jpg,,,,,0.0,,,,,,,,1554150319.513317,1554150321.558726,
211,19,Memory,4,,,,,,,00789960620fa.jpg,,,,,1.265,1.0,,,,,,,1554150322.826711,1554150324.812858,
212,19,Memory,4,,,,,,,00725941201fa.jpg,,,,,0.868,3.0,,,,,,,1554150326.097891,1554150328.078704,
213,19,Memory,4,,,,,,,sunaefgzwiramypjvtd.jpg,,,,,0.966,4.0,,,,,,,1554150329.327819,1554150331.311301,
214,19,Memory,4,,,,,,,sunaczwgyukesaajxnx.jpg,,,,,0.686,4.0,,,,,,,1554150332.563265,1554150334.546699,
215,19,Memory,4,,,,,,,00937960627fa.jpg,,,,,1.035,3.0,,,,,,,1554150335.801606,1554150337.78528,
216,19,Memory,4,,,,,,,00877960530fa.jpg,,,,,1.081,2.0,,,,,,,1554150339.031041,1554150341.015188,
217,19,Memory,4,,,,,,,sunaqsolmfydodnakub.jpg,,,,,0.815,1.0,,,,,,,1554150342.282364,1554150344.266693,
218,19,Memory,4,,,,,,,00260940128fa.jpg,,,,,0.848,2.0,,,,,,,1554150345.532988,1554150347.520037,
219,19,Memory,4,,,,,,,sunabgfhvifeijihhjw.jpg,,,,,1.049,2.0,,,,,,,1554150348.789159,1554150350.768326,
220,19,Memory,4,,,,,,,sunafxokyavhgptyfye.jpg,,,,,0.732,4.0,,,,,,,1554150352.036715,1554150354.019458,
221,19,Memory,4,,,,,,,00290940422fa.jpg,,,,,1.253,1.0,,,,,,,1554150355.307586,1554150357.287632,
222,19,Memory,4,,,,,,,00887960530.jpg,,,,,0.85,1.0,,,,,,,1554150358.554318,1554150360.542878,
223,19,Memory,4,,,,,,,sunbbegcweqnetpdlrh.jpg,,,,,0.632,4.0,,,,,,,1554150361.822604,1554150363.807752,
224,19,Memory,4,,,,,,,sunabqowuarvqqcnipn.jpg,,,,,0.0,,,,,,,,1554150365.089417,1554150367.075371,
225,19,Memory,4,,,,,,,sunajxpkuhbizeveguy.jpg,,,,,1.249,3.0,,,,,,,1554150368.362342,1554150370.624008,
226,19,Memory,4,,,,,,,sunamkmeblgteyggink.jpg,,,,,1.576,4.0,,,,,,,1554150371.898214,1554150374.618236,
227,19,Memory,4,,,,,,,00111931230fb.jpg,,,,,0.676,2.0,,,,,,,1554150375.914804,1554150378.510524,
228,19,Memory,4,,,,,,,00776941205fa.jpg,,,,,0.742,1.0,,,,,,,1554150379.799872,1554150382.367798,
229,19,Memory,4,,,,,,,sunagtjwilqjvxohypn.jpg,,,,,0.758,4.0,,,,,,,1554150383.650313,1554150386.112244,
230,19,Memory,4,,,,,,,sunaiozxhxgtfrmoagh.jpg,,,,,0.743,1.0,,,,,,,1554150387.402289,1554150389.902349,
231,19,Memory,4,,,,,,,sunaaiqiqcggrskoqgy.jpg,,,,,1.292,4.0,,,,,,,1554150391.18638,1554150393.687117,
232,19,Memory,4,,,,,,,00838940307fa.jpg,,,,,1.009,2.0,,,,,,,1554150394.954812,1554150397.433702,
233,19,Memory,4,,,,,,,00971960627fa.jpg,,,,,0.659,1.0,,,,,,,1554150398.722789,1554150401.184708,
234,19,Memory,4,,,,,,,sunagpancjmxqfazssf.jpg,,,,,0.825,4.0,,,,,,,1554150402.457209,1554150404.818644,
235,19,Memory,4,,,,,,,sunaakgekhjklxmvulj.jpg,,,,,0.509,3.0,,,,,,,1554150406.090546,1554150408.536729,
236,19,Memory,4,,,,,,,sunacacflqoyxhsqzhe.jpg,,,,,0.959,4.0,,,,,,,1554150409.809508,1554150412.29389,
237,19,Memory,4,,,,,,,00086931230fa.jpg,,,,,1.126,2.0,,,,,,,1554150413.594091,1554150416.176758,
238,19,Memory,4,,,,,,,sunalcrtwiycqobgelp.jpg,,,,,0.741,4.0,,,,,,,1554150417.461966,1554150419.923718,
239,19,Memory,4,,,,,,,00793941205fa.jpg,,,,,0.777,2.0,,,,,,,1554150421.195974,1554150423.675501,
240,19,Memory,4,,,,,,,00568940928fa.jpg,,,,,0.81,3.0,,,,,,,1554150424.947508,1554150427.51,
241,19,Memory,4,,,,,,,00978960627fa.jpg,,,,,0.643,2.0,,,,,,,1554150428.78257,1554150431.101211,
242,19,Memory,4,,,,,,,00630940928fa.jpg,,,,,0.796,2.0,,,,,,,1554150432.382965,1554150434.621318,
243,19,Memory,4,,,,,,,sunacsdhbbsybcyxnel.jpg,,,,,0.726,4.0,,,,,,,1554150435.883982,1554150438.29718,
244,19,Memory,4,,,,,,,00898960530fa.jpg,,,,,0.691,2.0,,,,,,,1554150439.568266,1554150441.986257,
245,19,Memory,4,,,,,,,00507940519fa.jpg,,,,,0.993,3.0,,,,,,,1554150443.254335,1554150445.955382,
246,19,Memory,4,,,,,,,sunaafynehyrzpsoaml.jpg,,,,,1.127,2.0,,,,,,,1554150447.254755,1554150450.189563,
247,19,Memory,4,,,,,,,00096931230fa.jpg,,,,,0.777,1.0,,,,,,,1554150451.472906,1554150453.993469,
248,19,Memory,4,,,,,,,00638941031fa.jpg,,,,,1.091,1.0,,,,,,,1554150455.274053,1554150457.72081,
249,19,Memory,4,,,,,,,sunbddbivbptlrlauhy.jpg,,,,,0.759,4.0,,,,,,,1554150458.992261,1554150461.337389,
