,Subject,Trial Type,Run,Cued Composite,Uncued Composite,Cued Face,Cued Place,Uncued Face,Uncued Place,Memory Image,Category,Cued Side,Cued Category,Attention Response Time (s),Familiarity Reaction Time (s),Familiarity Rating,Attention Level,Cue Validity,Post Invalid Cue,Pre Invalid Cue,Attention Button,Rating History,Stimulus Onset,Stimulus End,Attention Probe
0,7,Presentation,0,00097931230fa_sunaajayojuslbbnneg.jpg,00730960620fa_sunaekgzpfilgjxpeyq.jpg,00097931230fa.jpg,sunaajayojuslbbnneg.jpg,00730960620fa.jpg,sunaekgzpfilgjxpeyq.jpg,,,<,Place,,,,,0,,,,,,,x
1,7,Presentation,0,00828940307fa_sunahuynahneraqftyz.jpg,00780960530fa_sunagetqixeypsysbpn.jpg,00828940307fa.jpg,sunahuynahneraqftyz.jpg,00780960530fa.jpg,sunagetqixeypsysbpn.jpg,,,<,Place,,,,,0,,,,,,,o
2,7,Presentation,0,00785941205fa_sunaglqunwuycxydmyu.jpg,00749941201fa_sunaeuvjbmdpknaqqaj.jpg,00785941205fa.jpg,sunaglqunwuycxydmyu.jpg,00749941201fa.jpg,sunaeuvjbmdpknaqqaj.jpg,,,<,Place,,,,,1,,,,,,,x
3,7,Presentation,0,00125931230fa_sunaalltyvjhbzhkmvg.jpg,01002960627fb_sunbwaafjdebjzttuvq.jpg,00125931230fa.jpg,sunaalltyvjhbzhkmvg.jpg,01002960627fb.jpg,sunbwaafjdebjzttuvq.jpg,,,<,Place,,,,,1,,,,,,,x
4,7,Presentation,0,00063931230fa_sunaaelyvurpntclgau.jpg,00115931230fa_sunaakmxzhuceuiryah.jpg,00063931230fa.jpg,sunaaelyvurpntclgau.jpg,00115931230fa.jpg,sunaakmxzhuceuiryah.jpg,,,<,Place,,,,,1,,,,,,,x
5,7,Presentation,0,00142931230fb_sunaapxkpvrhpjplsok.jpg,00939960627fa_sunarceibpcyacbmfga.jpg,00142931230fb.jpg,sunaapxkpvrhpjplsok.jpg,00939960627fa.jpg,sunarceibpcyacbmfga.jpg,,,<,Place,,,,,0,,,,,,,o
6,7,Presentation,0,00239940128fa_sunabctlikybqabezjv.jpg,00796941205fa_sunaguchqqnrtodtezq.jpg,00239940128fa.jpg,sunabctlikybqabezjv.jpg,00796941205fa.jpg,sunaguchqqnrtodtezq.jpg,,,<,Place,,,,,1,,,,,,,x
7,7,Presentation,0,00700941121fa_sunadsgmtznewzyasnk.jpg,00895960530fa_sunamczizlzavhzhpay.jpg,00700941121fa.jpg,sunadsgmtznewzyasnk.jpg,00895960530fa.jpg,sunamczizlzavhzhpay.jpg,,,<,Place,,,,,1,,,,,,,x
8,7,Presentation,0,00077931230fb_sunaafgqutfaishsxyu.jpg,00130931230fa_sunaamvxnvouicstkjb.jpg,00077931230fb.jpg,sunaafgqutfaishsxyu.jpg,00130931230fa.jpg,sunaamvxnvouicstkjb.jpg,,,<,Place,,,,,1,,,,,,,o
9,7,Presentation,0,00784941205fb_sunagjzcrjvmxzqzljx.jpg,00773960620fa_sunafvsxtzaizojicxx.jpg,00784941205fb.jpg,sunagjzcrjvmxzqzljx.jpg,00773960620fa.jpg,sunafvsxtzaizojicxx.jpg,,,<,Place,,,,,1,,,,,,,o
10,7,Memory,0,,,,,,,00144931230fb.jpg,,,,,,,,,,,,,,,
11,7,Memory,0,,,,,,,sunaamvxnvouicstkjb.jpg,,,,,,,,,,,,,,,
12,7,Memory,0,,,,,,,00841940307fa.jpg,,,,,,,,,,,,,,,
13,7,Memory,0,,,,,,,00947960627fa.jpg,,,,,,,,,,,,,,,
14,7,Memory,0,,,,,,,sunaathajvxrgptwhoj.jpg,,,,,,,,,,,,,,,
15,7,Memory,0,,,,,,,00796941205fa.jpg,,,,,,,,,,,,,,,
16,7,Memory,0,,,,,,,sunabctlikybqabezjv.jpg,,,,,,,,,,,,,,,
17,7,Memory,0,,,,,,,sunaeuvjbmdpknaqqaj.jpg,,,,,,,,,,,,,,,
18,7,Memory,0,,,,,,,00063931230fa.jpg,,,,,,,,,,,,,,,
19,7,Memory,0,,,,,,,00760960620fa.jpg,,,,,,,,,,,,,,,
20,7,Memory,0,,,,,,,00146960620fb.jpg,,,,,,,,,,,,,,,
21,7,Memory,0,,,,,,,00986960627fa.jpg,,,,,,,,,,,,,,,
22,7,Memory,0,,,,,,,sunahedfrhtcwpneund.jpg,,,,,,,,,,,,,,,
23,7,Memory,0,,,,,,,sunaguchqqnrtodtezq.jpg,,,,,,,,,,,,,,,
24,7,Memory,0,,,,,,,sunadsgmtznewzyasnk.jpg,,,,,,,,,,,,,,,
25,7,Memory,0,,,,,,,00142931230fb.jpg,,,,,,,,,,,,,,,
26,7,Memory,0,,,,,,,sunaekgzpfilgjxpeyq.jpg,,,,,,,,,,,,,,,
27,7,Memory,0,,,,,,,sunadzuvtmtmgupotmf.jpg,,,,,,,,,,,,,,,
28,7,Memory,0,,,,,,,00749941201fa.jpg,,,,,,,,,,,,,,,
29,7,Memory,0,,,,,,,sunbgzjryivyczuvkvm.jpg,,,,,,,,,,,,,,,
30,7,Memory,0,,,,,,,sunaaelyvurpntclgau.jpg,,,,,,,,,,,,,,,
31,7,Memory,0,,,,,,,00097931230fa.jpg,,,,,,,,,,,,,,,
32,7,Memory,0,,,,,,,00700941121fa.jpg,,,,,,,,,,,,,,,
33,7,Memory,0,,,,,,,sunaaxjpzcnxligjtjq.jpg,,,,,,,,,,,,,,,
34,7,Memory,0,,,,,,,sunbwaafjdebjzttuvq.jpg,,,,,,,,,,,,,,,
35,7,Memory,0,,,,,,,00719960620fa.jpg,,,,,,,,,,,,,,,
36,7,Memory,0,,,,,,,00730960620fa.jpg,,,,,,,,,,,,,,,
37,7,Memory,0,,,,,,,00811960530fa.jpg,,,,,,,,,,,,,,,
38,7,Memory,0,,,,,,,00193940928fa.jpg,,,,,,,,,,,,,,,
39,7,Memory,0,,,,,,,sunaajayojuslbbnneg.jpg,,,,,,,,,,,,,,,
40,7,Memory,0,,,,,,,sunaisiwfgppimtnmxl.jpg,,,,,,,,,,,,,,,
41,7,Memory,0,,,,,,,00239940128fa.jpg,,,,,,,,,,,,,,,
42,7,Memory,0,,,,,,,sunasmmcxdddtmtazwx.jpg,,,,,,,,,,,,,,,
43,7,Memory,0,,,,,,,00929960627fa.jpg,,,,,,,,,,,,,,,
44,7,Memory,0,,,,,,,sunaprnrbmgkomdbchr.jpg,,,,,,,,,,,,,,,
45,7,Memory,0,,,,,,,00130931230fa.jpg,,,,,,,,,,,,,,,
46,7,Memory,0,,,,,,,01002960627fb.jpg,,,,,,,,,,,,,,,
47,7,Memory,0,,,,,,,sunaapxkpvrhpjplsok.jpg,,,,,,,,,,,,,,,
48,7,Memory,0,,,,,,,sunaatpeezlljqaxlhj.jpg,,,,,,,,,,,,,,,
49,7,Memory,0,,,,,,,sunaffstbkappprzxnv.jpg,,,,,,,,,,,,,,,
50,7,Presentation,1,00795941205fa_sunagtumacdlmciqamz.jpg,00741941201fa_sunaemcowdozyphwknd.jpg,00795941205fa.jpg,sunagtumacdlmciqamz.jpg,00741941201fa.jpg,sunaemcowdozyphwknd.jpg,,,<,Face,,,,,1,,,,,,,x
51,7,Presentation,1,00791941205fa_sunagrmyoovzukhxmlo.jpg,00860940307fa_sunaizeyhvjzknwjudw.jpg,00791941205fa.jpg,sunagrmyoovzukhxmlo.jpg,00860940307fa.jpg,sunaizeyhvjzknwjudw.jpg,,,<,Face,,,,,1,,,,,,,o
52,7,Presentation,1,00803941205fa_sunagvxkjokqimstxpe.jpg,00926960627Fa_sunapqwoeotxshkukbh.jpg,00803941205fa.jpg,sunagvxkjokqimstxpe.jpg,00926960627Fa.jpg,sunapqwoeotxshkukbh.jpg,,,<,Face,,,,,1,,,,,,,x
53,7,Presentation,1,00147931230fb_sunaatpkocdkocwxpkb.jpg,00810941205fa_sunahctntqrunhdxhtb.jpg,00147931230fb.jpg,sunaatpkocdkocwxpkb.jpg,00810941205fa.jpg,sunahctntqrunhdxhtb.jpg,,,<,Face,,,,,1,,,,,,,x
54,7,Presentation,1,00694941121fa_sunadrmfzmstgdjdcod.jpg,00728941205fa_sunaejnvnpltdmhbcsi.jpg,00694941121fa.jpg,sunadrmfzmstgdjdcod.jpg,00728941205fa.jpg,sunaejnvnpltdmhbcsi.jpg,,,<,Face,,,,,1,,,,,,,o
55,7,Presentation,1,00070940307fa_sunaaeplwsfslcbtojr.jpg,00997960627fa_sunbtpilbhhbmhmeuzq.jpg,00070940307fa.jpg,sunaaeplwsfslcbtojr.jpg,00997960627fa.jpg,sunbtpilbhhbmhmeuzq.jpg,,,<,Face,,,,,1,,,,,,,x
56,7,Presentation,1,00922960627fa_sunapqkyghktgtosuuk.jpg,00943960627fa_sunarpsxqkduedrrzyi.jpg,00922960627fa.jpg,sunapqkyghktgtosuuk.jpg,00943960627fa.jpg,sunarpsxqkduedrrzyi.jpg,,,<,Face,,,,,1,,,,,,,o
57,7,Presentation,1,00564941031fa_sunacsaovnjezqwbykf.jpg,00906960530fa_sunantryfbloeaomfta.jpg,00564941031fa.jpg,sunacsaovnjezqwbykf.jpg,00906960530fa.jpg,sunantryfbloeaomfta.jpg,,,<,Face,,,,,1,,,,,,,x
58,7,Presentation,1,00973960627fa_sunbbgtoeuzierkkajt.jpg,00989960627fa_sunbondbduabvijnmch.jpg,00973960627fa.jpg,sunbbgtoeuzierkkajt.jpg,00989960627fa.jpg,sunbondbduabvijnmch.jpg,,,<,Face,,,,,1,,,,,,,x
59,7,Presentation,1,00744941201fa_sunaeomlfaabhpswasy.jpg,00483940519fa_sunabyvpwkgsjtijdwj.jpg,00744941201fa.jpg,sunaeomlfaabhpswasy.jpg,00483940519fa.jpg,sunabyvpwkgsjtijdwj.jpg,,,<,Face,,,,,1,,,,,,,o
60,7,Memory,1,,,,,,,00795941205fa.jpg,,,,,,,,,,,,,,,
61,7,Memory,1,,,,,,,sunafvtpfczkzopbgue.jpg,,,,,,,,,,,,,,,
62,7,Memory,1,,,,,,,sunahpblecxtmuzkmxb.jpg,,,,,,,,,,,,,,,
63,7,Memory,1,,,,,,,00102931230fa.jpg,,,,,,,,,,,,,,,
64,7,Memory,1,,,,,,,00973960627fa.jpg,,,,,,,,,,,,,,,
65,7,Memory,1,,,,,,,00997960627fa.jpg,,,,,,,,,,,,,,,
66,7,Memory,1,,,,,,,00774941201fa.jpg,,,,,,,,,,,,,,,
67,7,Memory,1,,,,,,,sunaajspcoepticvplv.jpg,,,,,,,,,,,,,,,
68,7,Memory,1,,,,,,,00943960627fa.jpg,,,,,,,,,,,,,,,
69,7,Memory,1,,,,,,,sunapqwoeotxshkukbh.jpg,,,,,,,,,,,,,,,
70,7,Memory,1,,,,,,,00926960627Fa.jpg,,,,,,,,,,,,,,,
71,7,Memory,1,,,,,,,sunavhxgmgrqsaptynb.jpg,,,,,,,,,,,,,,,
72,7,Memory,1,,,,,,,sunaizeyhvjzknwjudw.jpg,,,,,,,,,,,,,,,
73,7,Memory,1,,,,,,,sunagtumacdlmciqamz.jpg,,,,,,,,,,,,,,,
74,7,Memory,1,,,,,,,sunbbgtoeuzierkkajt.jpg,,,,,,,,,,,,,,,
75,7,Memory,1,,,,,,,00791941205fa.jpg,,,,,,,,,,,,,,,
76,7,Memory,1,,,,,,,sunaakxjfbrrequcjmx.jpg,,,,,,,,,,,,,,,
77,7,Memory,1,,,,,,,sunbtpilbhhbmhmeuzq.jpg,,,,,,,,,,,,,,,
78,7,Memory,1,,,,,,,00957960627fa.jpg,,,,,,,,,,,,,,,
79,7,Memory,1,,,,,,,sunaaeplwsfslcbtojr.jpg,,,,,,,,,,,,,,,
80,7,Memory,1,,,,,,,sunadcphrizvfpljiqt.jpg,,,,,,,,,,,,,,,
81,7,Memory,1,,,,,,,sunabyvpwkgsjtijdwj.jpg,,,,,,,,,,,,,,,
82,7,Memory,1,,,,,,,00634940928fa.jpg,,,,,,,,,,,,,,,
83,7,Memory,1,,,,,,,00065931230fb.jpg,,,,,,,,,,,,,,,
84,7,Memory,1,,,,,,,00860940307fa.jpg,,,,,,,,,,,,,,,
85,7,Memory,1,,,,,,,sunafkmnlytenlsywia.jpg,,,,,,,,,,,,,,,
86,7,Memory,1,,,,,,,00751960620fa.jpg,,,,,,,,,,,,,,,
87,7,Memory,1,,,,,,,00122931230fa.jpg,,,,,,,,,,,,,,,
88,7,Memory,1,,,,,,,00483940519fa.jpg,,,,,,,,,,,,,,,
89,7,Memory,1,,,,,,,sunacsaovnjezqwbykf.jpg,,,,,,,,,,,,,,,
90,7,Memory,1,,,,,,,sunagrmyoovzukhxmlo.jpg,,,,,,,,,,,,,,,
91,7,Memory,1,,,,,,,00564941031fa.jpg,,,,,,,,,,,,,,,
92,7,Memory,1,,,,,,,sunadfndyrtqqiasoig.jpg,,,,,,,,,,,,,,,
93,7,Memory,1,,,,,,,00070940307fa.jpg,,,,,,,,,,,,,,,
94,7,Memory,1,,,,,,,00648941031fa.jpg,,,,,,,,,,,,,,,
95,7,Memory,1,,,,,,,sunaezuszgtxnmsxdbk.jpg,,,,,,,,,,,,,,,
96,7,Memory,1,,,,,,,00818940307fa.jpg,,,,,,,,,,,,,,,
97,7,Memory,1,,,,,,,sunaaemixhfquhnxxlm.jpg,,,,,,,,,,,,,,,
98,7,Memory,1,,,,,,,sunarpsxqkduedrrzyi.jpg,,,,,,,,,,,,,,,
99,7,Memory,1,,,,,,,00768941205fa.jpg,,,,,,,,,,,,,,,
100,7,Presentation,2,00650941031fa_sunadikxpvqeabxrvvc.jpg,00794960620fa_sunagtqhhwxjeuxdebe.jpg,00650941031fa.jpg,sunadikxpvqeabxrvvc.jpg,00794960620fa.jpg,sunagtqhhwxjeuxdebe.jpg,,,<,Place,,,,,1,,,,,,,x
101,7,Presentation,2,00096931230fa_sunaaiqiqcggrskoqgy.jpg,00153931230fa_sunaauhozyxzeeqstxi.jpg,00096931230fa.jpg,sunaaiqiqcggrskoqgy.jpg,00153931230fa.jpg,sunaauhozyxzeeqstxi.jpg,,,<,Place,,,,,1,,,,,,,o
102,7,Presentation,2,00145931230fb_sunaatjesvdupctftmn.jpg,00772941201fa_sunafpfpiiujzoesnqg.jpg,00145931230fb.jpg,sunaatjesvdupctftmn.jpg,00772941201fa.jpg,sunafpfpiiujzoesnqg.jpg,,,<,Place,,,,,1,,,,,,,x
103,7,Presentation,2,00766960620fa_sunafijbgncijwykrnl.jpg,00670941121fa_sunadochqcucscehsgk.jpg,00766960620fa.jpg,sunafijbgncijwykrnl.jpg,00670941121fa.jpg,sunadochqcucscehsgk.jpg,,,<,Place,,,,,1,,,,,,,o
104,7,Presentation,2,00972960627fa_sunbbfqwjpdxniyhies.jpg,00124931230fa_sunaalhlvzmjmitybdn.jpg,00972960627fa.jpg,sunbbfqwjpdxniyhies.jpg,00124931230fa.jpg,sunaalhlvzmjmitybdn.jpg,,,<,Place,,,,,1,,,,,,,x
105,7,Presentation,2,00101931230fb_sunaajqmsaavkmgbsth.jpg,00778941205fa_sunagcthdfirrcawoic.jpg,00101931230fb.jpg,sunaajqmsaavkmgbsth.jpg,00778941205fa.jpg,sunagcthdfirrcawoic.jpg,,,<,Place,,,,,1,,,,,,,o
106,7,Presentation,2,00851940307fa_sunaivflshbyfrfzhqb.jpg,00120931230fa_sunaakxgygjfqrzpyoz.jpg,00851940307fa.jpg,sunaivflshbyfrfzhqb.jpg,00120931230fa.jpg,sunaakxgygjfqrzpyoz.jpg,,,<,Place,,,,,1,,,,,,,o
107,7,Presentation,2,00868960307fa_sunajjxttslobudoqbv.jpg,00647941031fa_sunadflbrkckmepztql.jpg,00868960307fa.jpg,sunajjxttslobudoqbv.jpg,00647941031fa.jpg,sunadflbrkckmepztql.jpg,,,<,Place,,,,,1,,,,,,,o
108,7,Presentation,2,00581940928fa_sunacvzhvcksnwqcqbw.jpg,00631940928fa_sunadbdqzigzwipuipr.jpg,00581940928fa.jpg,sunacvzhvcksnwqcqbw.jpg,00631940928fa.jpg,sunadbdqzigzwipuipr.jpg,,,<,Place,,,,,1,,,,,,,x
109,7,Presentation,2,00129931230fb_sunaamsdyakblkfoydx.jpg,00838940307fa_sunaiozxhxgtfrmoagh.jpg,00129931230fb.jpg,sunaamsdyakblkfoydx.jpg,00838940307fa.jpg,sunaiozxhxgtfrmoagh.jpg,,,<,Place,,,,,1,,,,,,,x
110,7,Memory,2,,,,,,,sunadikxpvqeabxrvvc.jpg,,,,,,,,,,,,,,,
111,7,Memory,2,,,,,,,sunbbfqwjpdxniyhies.jpg,,,,,,,,,,,,,,,
112,7,Memory,2,,,,,,,sunarfdklgdnjgeqfjg.jpg,,,,,,,,,,,,,,,
113,7,Memory,2,,,,,,,00942960627fa.jpg,,,,,,,,,,,,,,,
114,7,Memory,2,,,,,,,sunabrlndkruqokhury.jpg,,,,,,,,,,,,,,,
115,7,Memory,2,,,,,,,00670941121fa.jpg,,,,,,,,,,,,,,,
116,7,Memory,2,,,,,,,sunagtqhhwxjeuxdebe.jpg,,,,,,,,,,,,,,,
117,7,Memory,2,,,,,,,00999960627fa.jpg,,,,,,,,,,,,,,,
118,7,Memory,2,,,,,,,sunaamsdyakblkfoydx.jpg,,,,,,,,,,,,,,,
119,7,Memory,2,,,,,,,00972960627fa.jpg,,,,,,,,,,,,,,,
120,7,Memory,2,,,,,,,sunaiozxhxgtfrmoagh.jpg,,,,,,,,,,,,,,,
121,7,Memory,2,,,,,,,sunaafjszryxyavjzln.jpg,,,,,,,,,,,,,,,
122,7,Memory,2,,,,,,,00968960627fa.jpg,,,,,,,,,,,,,,,
123,7,Memory,2,,,,,,,sunbvbrvgbpanfrawft.jpg,,,,,,,,,,,,,,,
124,7,Memory,2,,,,,,,00969960627fa.jpg,,,,,,,,,,,,,,,
125,7,Memory,2,,,,,,,sunaavtbadenwnzeutj.jpg,,,,,,,,,,,,,,,
126,7,Memory,2,,,,,,,00184940128fa.jpg,,,,,,,,,,,,,,,
127,7,Memory,2,,,,,,,00294940422fb.jpg,,,,,,,,,,,,,,,
128,7,Memory,2,,,,,,,sunagcthdfirrcawoic.jpg,,,,,,,,,,,,,,,
129,7,Memory,2,,,,,,,sunbaoizrfijvhpnnjn.jpg,,,,,,,,,,,,,,,
130,7,Memory,2,,,,,,,sunaatjesvdupctftmn.jpg,,,,,,,,,,,,,,,
131,7,Memory,2,,,,,,,00794960620fa.jpg,,,,,,,,,,,,,,,
132,7,Memory,2,,,,,,,sunafijbgncijwykrnl.jpg,,,,,,,,,,,,,,,
133,7,Memory,2,,,,,,,01000960627fa.jpg,,,,,,,,,,,,,,,
134,7,Memory,2,,,,,,,00153931230fa.jpg,,,,,,,,,,,,,,,
135,7,Memory,2,,,,,,,sunbvzmgrdvaakxusbu.jpg,,,,,,,,,,,,,,,
136,7,Memory,2,,,,,,,sunadochqcucscehsgk.jpg,,,,,,,,,,,,,,,
137,7,Memory,2,,,,,,,00145931230fb.jpg,,,,,,,,,,,,,,,
138,7,Memory,2,,,,,,,00720960620fa.jpg,,,,,,,,,,,,,,,
139,7,Memory,2,,,,,,,sunaecpkgfewqqreqwe.jpg,,,,,,,,,,,,,,,
140,7,Memory,2,,,,,,,sunaauhozyxzeeqstxi.jpg,,,,,,,,,,,,,,,
141,7,Memory,2,,,,,,,00129931230fb.jpg,,,,,,,,,,,,,,,
142,7,Memory,2,,,,,,,00650941031fa.jpg,,,,,,,,,,,,,,,
143,7,Memory,2,,,,,,,00242940128fa.jpg,,,,,,,,,,,,,,,
144,7,Memory,2,,,,,,,00838940307fa.jpg,,,,,,,,,,,,,,,
145,7,Memory,2,,,,,,,00080931230fb.jpg,,,,,,,,,,,,,,,
146,7,Memory,2,,,,,,,00766960620fa.jpg,,,,,,,,,,,,,,,
147,7,Memory,2,,,,,,,00778941205fa.jpg,,,,,,,,,,,,,,,
148,7,Memory,2,,,,,,,sunbagfpovqwbuexqdn.jpg,,,,,,,,,,,,,,,
149,7,Memory,2,,,,,,,sunabcuurugvxwparpk.jpg,,,,,,,,,,,,,,,
150,7,Presentation,3,00950960627fa_sunasrjlmglmjzbmqxb.jpg,00132931230fb_sunaanjcbzdvtvblsdy.jpg,00950960627fa.jpg,sunasrjlmglmjzbmqxb.jpg,00132931230fb.jpg,sunaanjcbzdvtvblsdy.jpg,,,>,Face,,,,,1,,,,,,,x
151,7,Presentation,3,00787941205fa_sunagmwxxwymwojbvgi.jpg,00935960627fa_sunaqbmgkgqucajzrkp.jpg,00787941205fa.jpg,sunagmwxxwymwojbvgi.jpg,00935960627fa.jpg,sunaqbmgkgqucajzrkp.jpg,,,>,Face,,,,,0,,,,,,,x
152,7,Presentation,3,00990960627fa_sunbpflsdaxnddnwcqi.jpg,00809960620fa_sunahbvlpavurqoxdeq.jpg,00990960627fa.jpg,sunbpflsdaxnddnwcqi.jpg,00809960620fa.jpg,sunahbvlpavurqoxdeq.jpg,,,>,Face,,,,,1,,,,,,,o
153,7,Presentation,3,00270940422fb_sunabllobxadqcyttej.jpg,00937960627fa_sunaqsolmfydodnakub.jpg,00270940422fb.jpg,sunabllobxadqcyttej.jpg,00937960627fa.jpg,sunaqsolmfydodnakub.jpg,,,>,Face,,,,,1,,,,,,,o
154,7,Presentation,3,00804960530fa_sunagwswhkvnsmuszlz.jpg,00882960530fa_sunaknlirqjqiwbbeeg.jpg,00804960530fa.jpg,sunagwswhkvnsmuszlz.jpg,00882960530fa.jpg,sunaknlirqjqiwbbeeg.jpg,,,>,Face,,,,,1,,,,,,,o
155,7,Presentation,3,00799941205fa_sunagutjvdvnhxejerz.jpg,00675941121fa_sunadoxcchtmsxewsau.jpg,00799941205fa.jpg,sunagutjvdvnhxejerz.jpg,00675941121fa.jpg,sunadoxcchtmsxewsau.jpg,,,>,Face,,,,,1,,,,,,,o
156,7,Presentation,3,00296940422fa_sunabrwnslxalcohfre.jpg,00880960530fa_sunakmnfgklupjijsgf.jpg,00296940422fa.jpg,sunabrwnslxalcohfre.jpg,00880960530fa.jpg,sunakmnfgklupjijsgf.jpg,,,>,Face,,,,,1,,,,,,,o
157,7,Presentation,3,00574940928fa_sunacvbrcejzwmcgnoq.jpg,00909960530_sunaobtizabegtwfwul.jpg,00574940928fa.jpg,sunacvbrcejzwmcgnoq.jpg,00909960530.jpg,sunaobtizabegtwfwul.jpg,,,>,Face,,,,,1,,,,,,,x
158,7,Presentation,3,00127931230fa_sunaampvucecsfbdafn.jpg,01005960627fa_sunbwyuesflwdpqtgoy.jpg,00127931230fa.jpg,sunaampvucecsfbdafn.jpg,01005960627fa.jpg,sunbwyuesflwdpqtgoy.jpg,,,>,Face,,,,,1,,,,,,,x
159,7,Presentation,3,00498960627fa_sunabzjxlmkwnwzimua.jpg,00914960620fa_sunaozisvwfbmlkfhzv.jpg,00498960627fa.jpg,sunabzjxlmkwnwzimua.jpg,00914960620fa.jpg,sunaozisvwfbmlkfhzv.jpg,,,>,Face,,,,,1,,,,,,,o
160,7,Memory,3,,,,,,,00914960620fa.jpg,,,,,,,,,,,,,,,
161,7,Memory,3,,,,,,,00909960530.jpg,,,,,,,,,,,,,,,
162,7,Memory,3,,,,,,,00548940519fa.jpg,,,,,,,,,,,,,,,
163,7,Memory,3,,,,,,,00880960530fa.jpg,,,,,,,,,,,,,,,
164,7,Memory,3,,,,,,,sunaijsqpvodplbwxkf.jpg,,,,,,,,,,,,,,,
165,7,Memory,3,,,,,,,sunagountlxpzkytsmp.jpg,,,,,,,,,,,,,,,
166,7,Memory,3,,,,,,,00123931230fb.jpg,,,,,,,,,,,,,,,
167,7,Memory,3,,,,,,,00532960627fa.jpg,,,,,,,,,,,,,,,
168,7,Memory,3,,,,,,,00809960620fa.jpg,,,,,,,,,,,,,,,
169,7,Memory,3,,,,,,,sunaobtizabegtwfwul.jpg,,,,,,,,,,,,,,,
170,7,Memory,3,,,,,,,00950960627fa.jpg,,,,,,,,,,,,,,,
171,7,Memory,3,,,,,,,sunacjnahdmqfnjfwqx.jpg,,,,,,,,,,,,,,,
172,7,Memory,3,,,,,,,sunabrwnslxalcohfre.jpg,,,,,,,,,,,,,,,
173,7,Memory,3,,,,,,,00262940128fa.jpg,,,,,,,,,,,,,,,
174,7,Memory,3,,,,,,,00937960627fa.jpg,,,,,,,,,,,,,,,
175,7,Memory,3,,,,,,,00296940422fa.jpg,,,,,,,,,,,,,,,
176,7,Memory,3,,,,,,,sunaayehfdqcyxggsej.jpg,,,,,,,,,,,,,,,
177,7,Memory,3,,,,,,,sunaqsolmfydodnakub.jpg,,,,,,,,,,,,,,,
178,7,Memory,3,,,,,,,00786941205fa.jpg,,,,,,,,,,,,,,,
179,7,Memory,3,,,,,,,sunaampvucecsfbdafn.jpg,,,,,,,,,,,,,,,
180,7,Memory,3,,,,,,,sunasrjlmglmjzbmqxb.jpg,,,,,,,,,,,,,,,
181,7,Memory,3,,,,,,,00835940307fa.jpg,,,,,,,,,,,,,,,
182,7,Memory,3,,,,,,,00990960627fa.jpg,,,,,,,,,,,,,,,
183,7,Memory,3,,,,,,,sunabzjxlmkwnwzimua.jpg,,,,,,,,,,,,,,,
184,7,Memory,3,,,,,,,00562941031fa.jpg,,,,,,,,,,,,,,,
185,7,Memory,3,,,,,,,00194940128fb.jpg,,,,,,,,,,,,,,,
186,7,Memory,3,,,,,,,sunagmhildamktmqjss.jpg,,,,,,,,,,,,,,,
187,7,Memory,3,,,,,,,sunanainkqdvktzoxyl.jpg,,,,,,,,,,,,,,,
188,7,Memory,3,,,,,,,00127931230fa.jpg,,,,,,,,,,,,,,,
189,7,Memory,3,,,,,,,sunacerqowiaeoqkmsq.jpg,,,,,,,,,,,,,,,
190,7,Memory,3,,,,,,,sunaalcrrdbjgdztbiz.jpg,,,,,,,,,,,,,,,
191,7,Memory,3,,,,,,,sunaccdtpgenvcbcbcf.jpg,,,,,,,,,,,,,,,
192,7,Memory,3,,,,,,,sunabizydfotqddlnjp.jpg,,,,,,,,,,,,,,,
193,7,Memory,3,,,,,,,00498960627fa.jpg,,,,,,,,,,,,,,,
194,7,Memory,3,,,,,,,sunaozisvwfbmlkfhzv.jpg,,,,,,,,,,,,,,,
195,7,Memory,3,,,,,,,sunakmnfgklupjijsgf.jpg,,,,,,,,,,,,,,,
196,7,Memory,3,,,,,,,00788941205fa.jpg,,,,,,,,,,,,,,,
197,7,Memory,3,,,,,,,sunahbvlpavurqoxdeq.jpg,,,,,,,,,,,,,,,
198,7,Memory,3,,,,,,,00903960620fa.jpg,,,,,,,,,,,,,,,
199,7,Memory,3,,,,,,,sunbpflsdaxnddnwcqi.jpg,,,,,,,,,,,,,,,
200,7,Presentation,4,00676941121fa_sunadpnqovzckyikrjo.jpg,00847940307fa_sunaivdjruhkrfywfed.jpg,00676941121fa.jpg,sunadpnqovzckyikrjo.jpg,00847940307fa.jpg,sunaivdjruhkrfywfed.jpg,,,>,Place,,,,,1,,,,,,,x
201,7,Presentation,4,00214940128fa_sunabbafjowbzcvbucc.jpg,00507940519fa_sunacacflqoyxhsqzhe.jpg,00214940128fa.jpg,sunabbafjowbzcvbucc.jpg,00507940519fa.jpg,sunacacflqoyxhsqzhe.jpg,,,>,Place,,,,,1,,,,,,,x
202,7,Presentation,4,00576941031fa_sunacvjlsylseoghjup.jpg,00727941205fa_sunaeisnjeetzmkbuad.jpg,00576941031fa.jpg,sunacvjlsylseoghjup.jpg,00727941205fa.jpg,sunaeisnjeetzmkbuad.jpg,,,>,Place,,,,,1,,,,,,,o
203,7,Presentation,4,00910960530fa_sunaofikylqtxphvdem.jpg,00633940928fa_sunadbhmrgrrpyzglxs.jpg,00910960530fa.jpg,sunaofikylqtxphvdem.jpg,00633940928fa.jpg,sunadbhmrgrrpyzglxs.jpg,,,>,Place,,,,,1,,,,,,,x
204,7,Presentation,4,00630940928fa_sunaczwgyukesaajxnx.jpg,00598941031fa_sunacxtcahkymosigud.jpg,00630940928fa.jpg,sunaczwgyukesaajxnx.jpg,00598941031fa.jpg,sunacxtcahkymosigud.jpg,,,>,Place,,,,,1,,,,,,,x
205,7,Presentation,4,00119931230fb_sunaakvmbftkrgqhjun.jpg,00571940928fa_sunacuatpqpqhyjhjqk.jpg,00119931230fb.jpg,sunaakvmbftkrgqhjun.jpg,00571940928fa.jpg,sunacuatpqpqhyjhjqk.jpg,,,>,Place,,,,,1,,,,,,,o
206,7,Presentation,4,00227940128fa_sunabckqabszusgcykj.jpg,00098931230fa_sunaajpqmulidejvjsr.jpg,00227940128fa.jpg,sunabckqabszusgcykj.jpg,00098931230fa.jpg,sunaajpqmulidejvjsr.jpg,,,>,Place,,,,,1,,,,,,,o
207,7,Presentation,4,00149931230fa_sunaauglwmctnkxyird.jpg,00265940128fb_sunabkmdplkdbvxriff.jpg,00149931230fa.jpg,sunaauglwmctnkxyird.jpg,00265940128fb.jpg,sunabkmdplkdbvxriff.jpg,,,>,Place,,,,,1,,,,,,,x
208,7,Presentation,4,00752960620fa_sunafbwnojpqeyzssoe.jpg,00771941205fa_sunafowswglhxcsufpo.jpg,00752960620fa.jpg,sunafbwnojpqeyzssoe.jpg,00771941205fa.jpg,sunafowswglhxcsufpo.jpg,,,>,Place,,,,,1,,,,,,,o
209,7,Presentation,4,00163931230fb_sunaavodbcpygkggnfp.jpg,00807941205fa_sunahawfngukizslzsd.jpg,00163931230fb.jpg,sunaavodbcpygkggnfp.jpg,00807941205fa.jpg,sunahawfngukizslzsd.jpg,,,>,Place,,,,,1,,,,,,,x
210,7,Memory,4,,,,,,,00775941205fa.jpg,,,,,,,,,,,,,,,
211,7,Memory,4,,,,,,,00676941121fa.jpg,,,,,,,,,,,,,,,
212,7,Memory,4,,,,,,,00752960620fa.jpg,,,,,,,,,,,,,,,
213,7,Memory,4,,,,,,,sunadbhmrgrrpyzglxs.jpg,,,,,,,,,,,,,,,
214,7,Memory,4,,,,,,,00576941031fa.jpg,,,,,,,,,,,,,,,
215,7,Memory,4,,,,,,,00805941205fa.jpg,,,,,,,,,,,,,,,
216,7,Memory,4,,,,,,,00807941205fa.jpg,,,,,,,,,,,,,,,
217,7,Memory,4,,,,,,,sunaflojskatpeqyzqp.jpg,,,,,,,,,,,,,,,
218,7,Memory,4,,,,,,,sunafgzgbisbopcyslr.jpg,,,,,,,,,,,,,,,
219,7,Memory,4,,,,,,,00770941201fa.jpg,,,,,,,,,,,,,,,
220,7,Memory,4,,,,,,,00609940928fa.jpg,,,,,,,,,,,,,,,
221,7,Memory,4,,,,,,,sunahiphsekjihkafsl.jpg,,,,,,,,,,,,,,,
222,7,Memory,4,,,,,,,sunaajpqmulidejvjsr.jpg,,,,,,,,,,,,,,,
223,7,Memory,4,,,,,,,sunaloffvbvysigxent.jpg,,,,,,,,,,,,,,,
224,7,Memory,4,,,,,,,sunacvjlsylseoghjup.jpg,,,,,,,,,,,,,,,
225,7,Memory,4,,,,,,,sunahgtbwgsmtqeodwh.jpg,,,,,,,,,,,,,,,
226,7,Memory,4,,,,,,,sunafgdqbclkwfocdhg.jpg,,,,,,,,,,,,,,,
227,7,Memory,4,,,,,,,00098931230fa.jpg,,,,,,,,,,,,,,,
228,7,Memory,4,,,,,,,sunacxtcahkymosigud.jpg,,,,,,,,,,,,,,,
229,7,Memory,4,,,,,,,00847940307fa.jpg,,,,,,,,,,,,,,,
230,7,Memory,4,,,,,,,00815941205fa.jpg,,,,,,,,,,,,,,,
231,7,Memory,4,,,,,,,00812941205fa.jpg,,,,,,,,,,,,,,,
232,7,Memory,4,,,,,,,sunacmpqqfbsvlzinzl.jpg,,,,,,,,,,,,,,,
233,7,Memory,4,,,,,,,00761960627fa.jpg,,,,,,,,,,,,,,,
234,7,Memory,4,,,,,,,sunadpnqovzckyikrjo.jpg,,,,,,,,,,,,,,,
235,7,Memory,4,,,,,,,00598941031fa.jpg,,,,,,,,,,,,,,,
236,7,Memory,4,,,,,,,00149931230fa.jpg,,,,,,,,,,,,,,,
237,7,Memory,4,,,,,,,sunafvwfsmqkjrutjta.jpg,,,,,,,,,,,,,,,
238,7,Memory,4,,,,,,,00762941201fa.jpg,,,,,,,,,,,,,,,
239,7,Memory,4,,,,,,,00633940928fa.jpg,,,,,,,,,,,,,,,
240,7,Memory,4,,,,,,,00910960530fa.jpg,,,,,,,,,,,,,,,
241,7,Memory,4,,,,,,,sunagwzdbtlixdhgolm.jpg,,,,,,,,,,,,,,,
242,7,Memory,4,,,,,,,sunaivdjruhkrfywfed.jpg,,,,,,,,,,,,,,,
243,7,Memory,4,,,,,,,00564940928fa.jpg,,,,,,,,,,,,,,,
244,7,Memory,4,,,,,,,sunacycdoztxoluxjyk.jpg,,,,,,,,,,,,,,,
245,7,Memory,4,,,,,,,00893960530Fa.jpg,,,,,,,,,,,,,,,
246,7,Memory,4,,,,,,,sunahawfngukizslzsd.jpg,,,,,,,,,,,,,,,
247,7,Memory,4,,,,,,,sunafbwnojpqeyzssoe.jpg,,,,,,,,,,,,,,,
248,7,Memory,4,,,,,,,sunaauglwmctnkxyird.jpg,,,,,,,,,,,,,,,
249,7,Memory,4,,,,,,,sunaofikylqtxphvdem.jpg,,,,,,,,,,,,,,,
250,7,Presentation,5,00993960627fa_sunbprywzqxjcezkbch.jpg,00705960530fa_sunaduslxfzlbxlllnz.jpg,00993960627fa.jpg,sunbprywzqxjcezkbch.jpg,00705960530fa.jpg,sunaduslxfzlbxlllnz.jpg,,,>,Face,,,,,0,,,,,,,o
251,7,Presentation,5,00827940307fa_sunahtfxgsrmkiulnwk.jpg,00787960620fa_sunagoufulkpsxrmklt.jpg,00827940307fa.jpg,sunahtfxgsrmkiulnwk.jpg,00787960620fa.jpg,sunagoufulkpsxrmklt.jpg,,,>,Face,,,,,1,,,,,,,o
252,7,Presentation,5,00543940519fa_sunacepzfrmtkiqonpy.jpg,00754941201fa_sunaffgsyyvoqdlkmnk.jpg,00543940519fa.jpg,sunacepzfrmtkiqonpy.jpg,00754941201fa.jpg,sunaffgsyyvoqdlkmnk.jpg,,,>,Face,,,,,1,,,,,,,x
253,7,Presentation,5,00482940519fa_sunabyfxcxhdebvdyfd.jpg,00529940519fa_sunacbeefkxpymwevpk.jpg,00482940519fa.jpg,sunabyfxcxhdebvdyfd.jpg,00529940519fa.jpg,sunacbeefkxpymwevpk.jpg,,,>,Face,,,,,1,,,,,,,x
254,7,Presentation,5,00260940128fa_sunabgfhvifeijihhjw.jpg,01011960627fa_sundahdxwmcdluscvot.jpg,00260940128fa.jpg,sunabgfhvifeijihhjw.jpg,01011960627fa.jpg,sundahdxwmcdluscvot.jpg,,,>,Face,,,,,1,,,,,,,o
255,7,Presentation,5,00776941205fa_sunafxokyavhgptyfye.jpg,00763941205fa_sunafhmnhsdurlvddpw.jpg,00776941205fa.jpg,sunafxokyavhgptyfye.jpg,00763941205fa.jpg,sunafhmnhsdurlvddpw.jpg,,,>,Face,,,,,1,,,,,,,o
256,7,Presentation,5,00288940422fa_sunabppokiyglaxpcha.jpg,00753941201fa_sunafcofuuzebuadceo.jpg,00288940422fa.jpg,sunabppokiyglaxpcha.jpg,00753941201fa.jpg,sunafcofuuzebuadceo.jpg,,,>,Face,,,,,1,,,,,,,x
257,7,Presentation,5,00961960627fa_sunawotxrevnqvamsfp.jpg,00987960627fa_sunbloeoiozwjjsiamp.jpg,00961960627fa.jpg,sunawotxrevnqvamsfp.jpg,00987960627fa.jpg,sunbloeoiozwjjsiamp.jpg,,,>,Face,,,,,1,,,,,,,o
258,7,Presentation,5,00554940519fa_sunacfdkbsrughwqwtt.jpg,00958960627fa_sunavspxmxubqaeidjt.jpg,00554940519fa.jpg,sunacfdkbsrughwqwtt.jpg,00958960627fa.jpg,sunavspxmxubqaeidjt.jpg,,,>,Face,,,,,1,,,,,,,o
259,7,Presentation,5,00959960627fa_sunavxokzybtomhbmvm.jpg,00131931230fb_sunaangbuylfvckqqoo.jpg,00959960627fa.jpg,sunavxokzybtomhbmvm.jpg,00131931230fb.jpg,sunaangbuylfvckqqoo.jpg,,,>,Face,,,,,1,,,,,,,o
260,7,Memory,5,,,,,,,sunagpancjmxqfazssf.jpg,,,,,,,,,,,,,,,
261,7,Memory,5,,,,,,,00554940519fa.jpg,,,,,,,,,,,,,,,
262,7,Memory,5,,,,,,,sunacfdkbsrughwqwtt.jpg,,,,,,,,,,,,,,,
263,7,Memory,5,,,,,,,sunachtuarilwyqnvjx.jpg,,,,,,,,,,,,,,,
264,7,Memory,5,,,,,,,sunbbxkanhzjgbwyxqs.jpg,,,,,,,,,,,,,,,
265,7,Memory,5,,,,,,,00977960627fa.jpg,,,,,,,,,,,,,,,
266,7,Memory,5,,,,,,,00993960627fa.jpg,,,,,,,,,,,,,,,
267,7,Memory,5,,,,,,,00982960627fa.jpg,,,,,,,,,,,,,,,
268,7,Memory,5,,,,,,,00874940307fa.jpg,,,,,,,,,,,,,,,
269,7,Memory,5,,,,,,,00482940519fa.jpg,,,,,,,,,,,,,,,
270,7,Memory,5,,,,,,,01207940128fa.jpg,,,,,,,,,,,,,,,
271,7,Memory,5,,,,,,,sunaptrqvaooxfvktvw.jpg,,,,,,,,,,,,,,,
272,7,Memory,5,,,,,,,00931960627fa.jpg,,,,,,,,,,,,,,,
273,7,Memory,5,,,,,,,00763941205fa.jpg,,,,,,,,,,,,,,,
274,7,Memory,5,,,,,,,00543940519fa.jpg,,,,,,,,,,,,,,,
275,7,Memory,5,,,,,,,sunagoufulkpsxrmklt.jpg,,,,,,,,,,,,,,,
276,7,Memory,5,,,,,,,sunbprywzqxjcezkbch.jpg,,,,,,,,,,,,,,,
277,7,Memory,5,,,,,,,sundbixjudsgeuuehrn.jpg,,,,,,,,,,,,,,,
278,7,Memory,5,,,,,,,00959960627fa.jpg,,,,,,,,,,,,,,,
279,7,Memory,5,,,,,,,sunaffgsyyvoqdlkmnk.jpg,,,,,,,,,,,,,,,
280,7,Memory,5,,,,,,,sunafcofuuzebuadceo.jpg,,,,,,,,,,,,,,,
281,7,Memory,5,,,,,,,00902960530fa.jpg,,,,,,,,,,,,,,,
282,7,Memory,5,,,,,,,sundahdxwmcdluscvot.jpg,,,,,,,,,,,,,,,
283,7,Memory,5,,,,,,,00133931230fa.jpg,,,,,,,,,,,,,,,
284,7,Memory,5,,,,,,,01011960627fa.jpg,,,,,,,,,,,,,,,
285,7,Memory,5,,,,,,,00819940307fa.jpg,,,,,,,,,,,,,,,
286,7,Memory,5,,,,,,,00754941201fa.jpg,,,,,,,,,,,,,,,
287,7,Memory,5,,,,,,,00557940519fa.jpg,,,,,,,,,,,,,,,
288,7,Memory,5,,,,,,,sunabyfxcxhdebvdyfd.jpg,,,,,,,,,,,,,,,
289,7,Memory,5,,,,,,,sunajtrfunvzdfticna.jpg,,,,,,,,,,,,,,,
290,7,Memory,5,,,,,,,sunbesrwkdsffeogeqq.jpg,,,,,,,,,,,,,,,
291,7,Memory,5,,,,,,,sunacepzfrmtkiqonpy.jpg,,,,,,,,,,,,,,,
292,7,Memory,5,,,,,,,00753941201fa.jpg,,,,,,,,,,,,,,,
293,7,Memory,5,,,,,,,sunaanlwnpqndclffxt.jpg,,,,,,,,,,,,,,,
294,7,Memory,5,,,,,,,00789960620fa.jpg,,,,,,,,,,,,,,,
295,7,Memory,5,,,,,,,sunanaacmmosxrfwmvl.jpg,,,,,,,,,,,,,,,
296,7,Memory,5,,,,,,,sunahqldjibofgsfdgb.jpg,,,,,,,,,,,,,,,
297,7,Memory,5,,,,,,,00787960620fa.jpg,,,,,,,,,,,,,,,
298,7,Memory,5,,,,,,,sunafhmnhsdurlvddpw.jpg,,,,,,,,,,,,,,,
299,7,Memory,5,,,,,,,sunavxokzybtomhbmvm.jpg,,,,,,,,,,,,,,,
300,7,Presentation,6,00792941205fa_sunagsiwrmuixqgdimb.jpg,00839940307fa_sunaipyohrqlwngaqif.jpg,00792941205fa.jpg,sunagsiwrmuixqgdimb.jpg,00839940307fa.jpg,sunaipyohrqlwngaqif.jpg,,,<,Face,,,,,1,,,,,,,x
301,7,Presentation,6,00970960627fa_sunbasypfgzjtomktmu.jpg,00876960620fa_sunajwqkfsykceonyig.jpg,00970960627fa.jpg,sunbasypfgzjtomktmu.jpg,00876960620fa.jpg,sunajwqkfsykceonyig.jpg,,,<,Face,,,,,1,,,,,,,o
302,7,Presentation,6,00921960627fa_sunapqkpqdfvxlbqwyo.jpg,00790941205fa_sunagpjzsbltchlwvou.jpg,00921960627fa.jpg,sunapqkpqdfvxlbqwyo.jpg,00790941205fa.jpg,sunagpjzsbltchlwvou.jpg,,,<,Face,,,,,0,,,,,,,o
303,7,Presentation,6,00305940422fa_sunabtrnbvpppgczjim.jpg,00743941201fa_sunaeoghzrjarigmwua.jpg,00305940422fa.jpg,sunabtrnbvpppgczjim.jpg,00743941201fa.jpg,sunaeoghzrjarigmwua.jpg,,,<,Face,,,,,0,,,,,,,x
304,7,Presentation,6,00620940928fa_sunacypmnujalygkunp.jpg,00892960530fa_sunalntxqqadigcletd.jpg,00620940928fa.jpg,sunacypmnujalygkunp.jpg,00892960530fa.jpg,sunalntxqqadigcletd.jpg,,,<,Face,,,,,1,,,,,,,x
305,7,Presentation,6,00783941205fa_sunagjeesomrwjsfqie.jpg,00915960620fa_sunapileznnbbmrwoei.jpg,00783941205fa.jpg,sunagjeesomrwjsfqie.jpg,00915960620fa.jpg,sunapileznnbbmrwoei.jpg,,,<,Face,,,,,1,,,,,,,x
306,7,Presentation,6,00747941201fa_sunaeutbrtswvsozxyk.jpg,00081941031fa_sunaaftlyfudyzuhqzf.jpg,00747941201fa.jpg,sunaeutbrtswvsozxyk.jpg,00081941031fa.jpg,sunaaftlyfudyzuhqzf.jpg,,,<,Face,,,,,1,,,,,,,x
307,7,Presentation,6,00093931230fa_sunaahwnmtqsrhocysw.jpg,00266940128fb_sunabkngeblodihjvbk.jpg,00093931230fa.jpg,sunaahwnmtqsrhocysw.jpg,00266940128fb.jpg,sunabkngeblodihjvbk.jpg,,,<,Face,,,,,1,,,,,,,o
308,7,Presentation,6,00095931230fa_sunaahzooisqkwlxwoz.jpg,00636941031fa_sunaddtdkycxbqlpfqa.jpg,00095931230fa.jpg,sunaahzooisqkwlxwoz.jpg,00636941031fa.jpg,sunaddtdkycxbqlpfqa.jpg,,,<,Face,,,,,1,,,,,,,o
309,7,Presentation,6,00662941121fa_sunadkazmlajmohnwfl.jpg,00822940307fa_sunahqrxievfeusiqlt.jpg,00662941121fa.jpg,sunadkazmlajmohnwfl.jpg,00822940307fa.jpg,sunahqrxievfeusiqlt.jpg,,,<,Face,,,,,1,,,,,,,o
310,7,Memory,6,,,,,,,sunadtlxenqqxsyjvix.jpg,,,,,,,,,,,,,,,
311,7,Memory,6,,,,,,,00705941205fa.jpg,,,,,,,,,,,,,,,
312,7,Memory,6,,,,,,,sunaahzooisqkwlxwoz.jpg,,,,,,,,,,,,,,,
313,7,Memory,6,,,,,,,00970960627fa.jpg,,,,,,,,,,,,,,,
314,7,Memory,6,,,,,,,00878960530fa.jpg,,,,,,,,,,,,,,,
315,7,Memory,6,,,,,,,00292940422fb.jpg,,,,,,,,,,,,,,,
316,7,Memory,6,,,,,,,00636941031fa.jpg,,,,,,,,,,,,,,,
317,7,Memory,6,,,,,,,sunakgbnzxmfohgehnu.jpg,,,,,,,,,,,,,,,
318,7,Memory,6,,,,,,,00305940422fa.jpg,,,,,,,,,,,,,,,
319,7,Memory,6,,,,,,,sunaahwnmtqsrhocysw.jpg,,,,,,,,,,,,,,,
320,7,Memory,6,,,,,,,sunaapfaivxqoynnwwp.jpg,,,,,,,,,,,,,,,
321,7,Memory,6,,,,,,,sunagpjzsbltchlwvou.jpg,,,,,,,,,,,,,,,
322,7,Memory,6,,,,,,,sunaddtdkycxbqlpfqa.jpg,,,,,,,,,,,,,,,
323,7,Memory,6,,,,,,,00245940128fa.jpg,,,,,,,,,,,,,,,
324,7,Memory,6,,,,,,,00892960530fa.jpg,,,,,,,,,,,,,,,
325,7,Memory,6,,,,,,,sunabtrnbvpppgczjim.jpg,,,,,,,,,,,,,,,
326,7,Memory,6,,,,,,,00313940422fa.jpg,,,,,,,,,,,,,,,
327,7,Memory,6,,,,,,,00060931230fa.jpg,,,,,,,,,,,,,,,
328,7,Memory,6,,,,,,,00162931230fb.jpg,,,,,,,,,,,,,,,
329,7,Memory,6,,,,,,,sunaipyohrqlwngaqif.jpg,,,,,,,,,,,,,,,
330,7,Memory,6,,,,,,,00839940307fa.jpg,,,,,,,,,,,,,,,
331,7,Memory,6,,,,,,,sunabrjdpmoedcdjbpo.jpg,,,,,,,,,,,,,,,
332,7,Memory,6,,,,,,,sunabeyhmxodahoieyk.jpg,,,,,,,,,,,,,,,
333,7,Memory,6,,,,,,,00783941205fa.jpg,,,,,,,,,,,,,,,
334,7,Memory,6,,,,,,,sunajwqkfsykceonyig.jpg,,,,,,,,,,,,,,,
335,7,Memory,6,,,,,,,00073931230fa.jpg,,,,,,,,,,,,,,,
336,7,Memory,6,,,,,,,sunalntxqqadigcletd.jpg,,,,,,,,,,,,,,,
337,7,Memory,6,,,,,,,sunaaexpnawiehinlpy.jpg,,,,,,,,,,,,,,,
338,7,Memory,6,,,,,,,sunabwjvmoaddlyxfjr.jpg,,,,,,,,,,,,,,,
339,7,Memory,6,,,,,,,00095931230fa.jpg,,,,,,,,,,,,,,,
340,7,Memory,6,,,,,,,00093931230fa.jpg,,,,,,,,,,,,,,,
341,7,Memory,6,,,,,,,00876960620fa.jpg,,,,,,,,,,,,,,,
342,7,Memory,6,,,,,,,sunbasypfgzjtomktmu.jpg,,,,,,,,,,,,,,,
343,7,Memory,6,,,,,,,00790941205fa.jpg,,,,,,,,,,,,,,,
344,7,Memory,6,,,,,,,sunaavjinpnkappuonm.jpg,,,,,,,,,,,,,,,
345,7,Memory,6,,,,,,,sunaafbmtoniaasysgu.jpg,,,,,,,,,,,,,,,
346,7,Memory,6,,,,,,,sunagjeesomrwjsfqie.jpg,,,,,,,,,,,,,,,
347,7,Memory,6,,,,,,,sunaaehaikpckyjsety.jpg,,,,,,,,,,,,,,,
348,7,Memory,6,,,,,,,00071940128fa.jpg,,,,,,,,,,,,,,,
349,7,Memory,6,,,,,,,00138931230fa.jpg,,,,,,,,,,,,,,,
350,7,Presentation,7,00071941031fa_sunaaexqbtdswxrqjvz.jpg,00280940422fb_sunabohxbskznglnrhv.jpg,00071941031fa.jpg,sunaaexqbtdswxrqjvz.jpg,00280940422fb.jpg,sunabohxbskznglnrhv.jpg,,,>,Place,,,,,1,,,,,,,x
351,7,Presentation,7,00681941121fa_sunadqmjrhfjyuzyvdd.jpg,00663941121fa_sunadnjjzohjhbohlwq.jpg,00681941121fa.jpg,sunadqmjrhfjyuzyvdd.jpg,00663941121fa.jpg,sunadnjjzohjhbohlwq.jpg,,,>,Place,,,,,1,,,,,,,x
352,7,Presentation,7,00209940128fb_sunabaergayifsgacxt.jpg,00800941205fb_sunagvjurcwdbixvnyi.jpg,00209940128fb.jpg,sunabaergayifsgacxt.jpg,00800941205fb.jpg,sunagvjurcwdbixvnyi.jpg,,,>,Place,,,,,1,,,,,,,o
353,7,Presentation,7,00864940307fa_sunajawzbrlrwafowen.jpg,00267940128fb_sunablfqiwfqomjarht.jpg,00864940307fa.jpg,sunajawzbrlrwafowen.jpg,00267940128fb.jpg,sunablfqiwfqomjarht.jpg,,,>,Place,,,,,1,,,,,,,x
354,7,Presentation,7,00208940128fa_sunaazzyhbvqjpmazjq.jpg,00211940128fa_sunabasphceswhwwqvv.jpg,00208940128fa.jpg,sunaazzyhbvqjpmazjq.jpg,00211940128fa.jpg,sunabasphceswhwwqvv.jpg,,,>,Place,,,,,1,,,,,,,x
355,7,Presentation,7,00089931230fa_sunaagcpoejbuzyvddd.jpg,00306940422fa_sunabueyoajufbkraki.jpg,00089931230fa.jpg,sunaagcpoejbuzyvddd.jpg,00306940422fa.jpg,sunabueyoajufbkraki.jpg,,,>,Place,,,,,1,,,,,,,o
356,7,Presentation,7,00723941201fa_sunaedtgwjvvziytspa.jpg,00862940307fa_sunaizgnnplsvajzhkc.jpg,00723941201fa.jpg,sunaedtgwjvvziytspa.jpg,00862940307fa.jpg,sunaizgnnplsvajzhkc.jpg,,,>,Place,,,,,1,,,,,,,o
357,7,Presentation,7,00933960627fa_sunapwjkcxdaeqehfql.jpg,00750941201fa_sunaeuzwggvibufclwf.jpg,00933960627fa.jpg,sunapwjkcxdaeqehfql.jpg,00750941201fa.jpg,sunaeuzwggvibufclwf.jpg,,,>,Place,,,,,1,,,,,,,o
358,7,Presentation,7,00598940928fa_sunacxeheuiigkcgquf.jpg,00793941205fa_sunagtjwilqjvxohypn.jpg,00598940928fa.jpg,sunacxeheuiigkcgquf.jpg,00793941205fa.jpg,sunagtjwilqjvxohypn.jpg,,,>,Place,,,,,1,,,,,,,o
359,7,Presentation,7,00869940307fa_sunajoveqhiprwqgoco.jpg,00540940519fa_sunacdnquypmsshhsbk.jpg,00869940307fa.jpg,sunajoveqhiprwqgoco.jpg,00540940519fa.jpg,sunacdnquypmsshhsbk.jpg,,,>,Place,,,,,0,,,,,,,x
360,7,Memory,7,,,,,,,sunadqmjrhfjyuzyvdd.jpg,,,,,,,,,,,,,,,
361,7,Memory,7,,,,,,,sunaazzyhbvqjpmazjq.jpg,,,,,,,,,,,,,,,
362,7,Memory,7,,,,,,,00793941205fa.jpg,,,,,,,,,,,,,,,
363,7,Memory,7,,,,,,,sunaaylzyqlqrsmfwif.jpg,,,,,,,,,,,,,,,
364,7,Memory,7,,,,,,,sunaaekxzjzrfgtkwjf.jpg,,,,,,,,,,,,,,,
365,7,Memory,7,,,,,,,00197940128fa.jpg,,,,,,,,,,,,,,,
366,7,Memory,7,,,,,,,sunadnjjzohjhbohlwq.jpg,,,,,,,,,,,,,,,
367,7,Memory,7,,,,,,,00996960627fa.jpg,,,,,,,,,,,,,,,
368,7,Memory,7,,,,,,,sunaibnpvhkdpdnzcnz.jpg,,,,,,,,,,,,,,,
369,7,Memory,7,,,,,,,00089931230fa.jpg,,,,,,,,,,,,,,,
370,7,Memory,7,,,,,,,00306940422fa.jpg,,,,,,,,,,,,,,,
371,7,Memory,7,,,,,,,sunaizgnnplsvajzhkc.jpg,,,,,,,,,,,,,,,
372,7,Memory,7,,,,,,,00191940128fb.jpg,,,,,,,,,,,,,,,
373,7,Memory,7,,,,,,,00061931230fb.jpg,,,,,,,,,,,,,,,
374,7,Memory,7,,,,,,,00663941121fa.jpg,,,,,,,,,,,,,,,
375,7,Memory,7,,,,,,,00825940307fa.jpg,,,,,,,,,,,,,,,
376,7,Memory,7,,,,,,,00919960620fa.jpg,,,,,,,,,,,,,,,
377,7,Memory,7,,,,,,,00264940128fb.jpg,,,,,,,,,,,,,,,
378,7,Memory,7,,,,,,,sunaawsdjisukbbginm.jpg,,,,,,,,,,,,,,,
379,7,Memory,7,,,,,,,sunapmfmzadmosuogaz.jpg,,,,,,,,,,,,,,,
380,7,Memory,7,,,,,,,sunabueyoajufbkraki.jpg,,,,,,,,,,,,,,,
381,7,Memory,7,,,,,,,00834940307fa.jpg,,,,,,,,,,,,,,,
382,7,Memory,7,,,,,,,00862940307fa.jpg,,,,,,,,,,,,,,,
383,7,Memory,7,,,,,,,00681941121fa.jpg,,,,,,,,,,,,,,,
384,7,Memory,7,,,,,,,sunaagcpoejbuzyvddd.jpg,,,,,,,,,,,,,,,
385,7,Memory,7,,,,,,,sunabjzyxcjnmztdonj.jpg,,,,,,,,,,,,,,,
386,7,Memory,7,,,,,,,sunajawzbrlrwafowen.jpg,,,,,,,,,,,,,,,
387,7,Memory,7,,,,,,,sunbbegcweqnetpdlrh.jpg,,,,,,,,,,,,,,,
388,7,Memory,7,,,,,,,sunbwtlihsuptkrckid.jpg,,,,,,,,,,,,,,,
389,7,Memory,7,,,,,,,sunabohxbskznglnrhv.jpg,,,,,,,,,,,,,,,
390,7,Memory,7,,,,,,,sunahrltmuwbiehihpe.jpg,,,,,,,,,,,,,,,
391,7,Memory,7,,,,,,,sunagtjwilqjvxohypn.jpg,,,,,,,,,,,,,,,
392,7,Memory,7,,,,,,,00864940307fa.jpg,,,,,,,,,,,,,,,
393,7,Memory,7,,,,,,,sunbpvgllfdejxcpjqp.jpg,,,,,,,,,,,,,,,
394,7,Memory,7,,,,,,,00280940422fb.jpg,,,,,,,,,,,,,,,
395,7,Memory,7,,,,,,,sunaaexqbtdswxrqjvz.jpg,,,,,,,,,,,,,,,
396,7,Memory,7,,,,,,,00971960627fa.jpg,,,,,,,,,,,,,,,
397,7,Memory,7,,,,,,,00071941031fa.jpg,,,,,,,,,,,,,,,
398,7,Memory,7,,,,,,,00208940128fa.jpg,,,,,,,,,,,,,,,
399,7,Memory,7,,,,,,,01004960627fa.jpg,,,,,,,,,,,,,,,
