,Subject,Trial Type,Run,Cued Composite,Uncued Composite,Cued Face,Cued Place,Uncued Face,Uncued Place,Memory Image,Category,Cued Side,Cued Category,Attention Response Time (s),Familiarity Reaction Time (s),Familiarity Rating,Attention Level,Cue Validity,Post Invalid Cue,Pre Invalid Cue,Attention Button,Rating History,Stimulus Onset,Stimulus End,Attention Probe
0,3,Presentation,0,00966960627fa_sunaygrtwrwfezqjizr.jpg,00123931230fb_sunaalcrrdbjgdztbiz.jpg,00966960627fa.jpg,sunaygrtwrwfezqjizr.jpg,00123931230fb.jpg,sunaalcrrdbjgdztbiz.jpg,,,>,Place,,,,,1,,,,,,,x
1,3,Presentation,0,00571940928fa_sunacuatpqpqhyjhjqk.jpg,00944960627fa_sunasbbntuiheekqyaq.jpg,00571940928fa.jpg,sunacuatpqpqhyjhjqk.jpg,00944960627fa.jpg,sunasbbntuiheekqyaq.jpg,,,>,Place,,,,,1,,,,,,,x
2,3,Presentation,0,00747941201fa_sunaeutbrtswvsozxyk.jpg,00149931230fa_sunaauglwmctnkxyird.jpg,00747941201fa.jpg,sunaeutbrtswvsozxyk.jpg,00149931230fa.jpg,sunaauglwmctnkxyird.jpg,,,>,Place,,,,,1,,,,,,,o
3,3,Presentation,0,00929960627fa_sunaprnrbmgkomdbchr.jpg,00292940422fb_sunabrjdpmoedcdjbpo.jpg,00929960627fa.jpg,sunaprnrbmgkomdbchr.jpg,00292940422fb.jpg,sunabrjdpmoedcdjbpo.jpg,,,>,Place,,,,,1,,,,,,,o
4,3,Presentation,0,00985960627fa_sunbgklxeqjhdbyfhhy.jpg,00906960530fa_sunantryfbloeaomfta.jpg,00985960627fa.jpg,sunbgklxeqjhdbyfhhy.jpg,00906960530fa.jpg,sunantryfbloeaomfta.jpg,,,>,Place,,,,,1,,,,,,,o
5,3,Presentation,0,00098931230fa_sunaajpqmulidejvjsr.jpg,00482940519fa_sunabyfxcxhdebvdyfd.jpg,00098931230fa.jpg,sunaajpqmulidejvjsr.jpg,00482940519fa.jpg,sunabyfxcxhdebvdyfd.jpg,,,>,Place,,,,,1,,,,,,,x
6,3,Presentation,0,00787941205fa_sunagmwxxwymwojbvgi.jpg,00789960620fa_sunagpancjmxqfazssf.jpg,00787941205fa.jpg,sunagmwxxwymwojbvgi.jpg,00789960620fa.jpg,sunagpancjmxqfazssf.jpg,,,>,Place,,,,,0,,,,,,,o
7,3,Presentation,0,00772941201fa_sunafpfpiiujzoesnqg.jpg,00882960530fa_sunaknlirqjqiwbbeeg.jpg,00772941201fa.jpg,sunafpfpiiujzoesnqg.jpg,00882960530fa.jpg,sunaknlirqjqiwbbeeg.jpg,,,>,Place,,,,,1,,,,,,,o
8,3,Presentation,0,00862940307fa_sunaizgnnplsvajzhkc.jpg,00999960627fa_sunbvbrvgbpanfrawft.jpg,00862940307fa.jpg,sunaizgnnplsvajzhkc.jpg,00999960627fa.jpg,sunbvbrvgbpanfrawft.jpg,,,>,Place,,,,,0,,,,,,,x
9,3,Presentation,0,00953960627fa_sunatstrpjxhvtbaczf.jpg,00895960530fa_sunamczizlzavhzhpay.jpg,00953960627fa.jpg,sunatstrpjxhvtbaczf.jpg,00895960530fa.jpg,sunamczizlzavhzhpay.jpg,,,>,Place,,,,,0,,,,,,,x
10,3,Memory,0,,,,,,,00482940519fa.jpg,,,,,,,,,,,,,,,
11,3,Memory,0,,,,,,,sunaknlirqjqiwbbeeg.jpg,,,,,,,,,,,,,,,
12,3,Memory,0,,,,,,,sunaahzooisqkwlxwoz.jpg,,,,,,,,,,,,,,,
13,3,Memory,0,,,,,,,00882960530fa.jpg,,,,,,,,,,,,,,,
14,3,Memory,0,,,,,,,00095931230fa.jpg,,,,,,,,,,,,,,,
15,3,Memory,0,,,,,,,00208940128fa.jpg,,,,,,,,,,,,,,,
16,3,Memory,0,,,,,,,sunagmwxxwymwojbvgi.jpg,,,,,,,,,,,,,,,
17,3,Memory,0,,,,,,,00787941205fa.jpg,,,,,,,,,,,,,,,
18,3,Memory,0,,,,,,,00985960627fa.jpg,,,,,,,,,,,,,,,
19,3,Memory,0,,,,,,,sunaecpkgfewqqreqwe.jpg,,,,,,,,,,,,,,,
20,3,Memory,0,,,,,,,00929960627fa.jpg,,,,,,,,,,,,,,,
21,3,Memory,0,,,,,,,00906960530fa.jpg,,,,,,,,,,,,,,,
22,3,Memory,0,,,,,,,00092931230fa.jpg,,,,,,,,,,,,,,,
23,3,Memory,0,,,,,,,sunaizgnnplsvajzhkc.jpg,,,,,,,,,,,,,,,
24,3,Memory,0,,,,,,,sunbvbrvgbpanfrawft.jpg,,,,,,,,,,,,,,,
25,3,Memory,0,,,,,,,00922960627fa.jpg,,,,,,,,,,,,,,,
26,3,Memory,0,,,,,,,00720960620fa.jpg,,,,,,,,,,,,,,,
27,3,Memory,0,,,,,,,00754941201fa.jpg,,,,,,,,,,,,,,,
28,3,Memory,0,,,,,,,sunabrjdpmoedcdjbpo.jpg,,,,,,,,,,,,,,,
29,3,Memory,0,,,,,,,00292940422fb.jpg,,,,,,,,,,,,,,,
30,3,Memory,0,,,,,,,00862940307fa.jpg,,,,,,,,,,,,,,,
31,3,Memory,0,,,,,,,00989960627fa.jpg,,,,,,,,,,,,,,,
32,3,Memory,0,,,,,,,00905960530fa.jpg,,,,,,,,,,,,,,,
33,3,Memory,0,,,,,,,sunaaheqzstzxuadglu.jpg,,,,,,,,,,,,,,,
34,3,Memory,0,,,,,,,sunaazzyhbvqjpmazjq.jpg,,,,,,,,,,,,,,,
35,3,Memory,0,,,,,,,sunbondbduabvijnmch.jpg,,,,,,,,,,,,,,,
36,3,Memory,0,,,,,,,sunantryfbloeaomfta.jpg,,,,,,,,,,,,,,,
37,3,Memory,0,,,,,,,sunapqkyghktgtosuuk.jpg,,,,,,,,,,,,,,,
38,3,Memory,0,,,,,,,sunanmoqeyprjjjfxjt.jpg,,,,,,,,,,,,,,,
39,3,Memory,0,,,,,,,00559940519fa.jpg,,,,,,,,,,,,,,,
40,3,Memory,0,,,,,,,sunaprnrbmgkomdbchr.jpg,,,,,,,,,,,,,,,
41,3,Memory,0,,,,,,,sunaajpqmulidejvjsr.jpg,,,,,,,,,,,,,,,
42,3,Memory,0,,,,,,,sunaekgzpfilgjxpeyq.jpg,,,,,,,,,,,,,,,
43,3,Memory,0,,,,,,,sunaffgsyyvoqdlkmnk.jpg,,,,,,,,,,,,,,,
44,3,Memory,0,,,,,,,sunacjkmnpawfzbyvae.jpg,,,,,,,,,,,,,,,
45,3,Memory,0,,,,,,,sunabyfxcxhdebvdyfd.jpg,,,,,,,,,,,,,,,
46,3,Memory,0,,,,,,,00098931230fa.jpg,,,,,,,,,,,,,,,
47,3,Memory,0,,,,,,,00730960620fa.jpg,,,,,,,,,,,,,,,
48,3,Memory,0,,,,,,,sunbgklxeqjhdbyfhhy.jpg,,,,,,,,,,,,,,,
49,3,Memory,0,,,,,,,00999960627fa.jpg,,,,,,,,,,,,,,,
50,3,Presentation,1,00869940307fa_sunajoveqhiprwqgoco.jpg,00828940307fa_sunahuynahneraqftyz.jpg,00869940307fa.jpg,sunajoveqhiprwqgoco.jpg,00828940307fa.jpg,sunahuynahneraqftyz.jpg,,,<,Face,,,,,1,,,,,,,o
51,3,Presentation,1,00479940519fa_sunabxsbfwjccqxxzxq.jpg,00931960627fa_sunaptrqvaooxfvktvw.jpg,00479940519fa.jpg,sunabxsbfwjccqxxzxq.jpg,00931960627fa.jpg,sunaptrqvaooxfvktvw.jpg,,,<,Face,,,,,1,,,,,,,x
52,3,Presentation,1,00723941201fa_sunaedtgwjvvziytspa.jpg,01002960627fb_sunbwaafjdebjzttuvq.jpg,00723941201fa.jpg,sunaedtgwjvvziytspa.jpg,01002960627fb.jpg,sunbwaafjdebjzttuvq.jpg,,,<,Face,,,,,1,,,,,,,o
53,3,Presentation,1,00598941031fa_sunacxtcahkymosigud.jpg,00313940422fa_sunabwjvmoaddlyxfjr.jpg,00598941031fa.jpg,sunacxtcahkymosigud.jpg,00313940422fa.jpg,sunabwjvmoaddlyxfjr.jpg,,,<,Face,,,,,1,,,,,,,o
54,3,Presentation,1,00972960627fa_sunbbfqwjpdxniyhies.jpg,00096931230fa_sunaaiqiqcggrskoqgy.jpg,00972960627fa.jpg,sunbbfqwjpdxniyhies.jpg,00096931230fa.jpg,sunaaiqiqcggrskoqgy.jpg,,,<,Face,,,,,0,,,,,,,o
55,3,Presentation,1,00700941121fa_sunadsgmtznewzyasnk.jpg,00145931230fb_sunaatjesvdupctftmn.jpg,00700941121fa.jpg,sunadsgmtznewzyasnk.jpg,00145931230fb.jpg,sunaatjesvdupctftmn.jpg,,,<,Face,,,,,1,,,,,,,o
56,3,Presentation,1,00076931230fa_sunaafewhewbxmjiurz.jpg,00919960620fa_sunapmfmzadmosuogaz.jpg,00076931230fa.jpg,sunaafewhewbxmjiurz.jpg,00919960620fa.jpg,sunapmfmzadmosuogaz.jpg,,,<,Face,,,,,1,,,,,,,x
57,3,Presentation,1,00891960530fa_sunalkiibhqpxfamlll.jpg,00770941201fa_sunaflojskatpeqyzqp.jpg,00891960530fa.jpg,sunalkiibhqpxfamlll.jpg,00770941201fa.jpg,sunaflojskatpeqyzqp.jpg,,,<,Face,,,,,0,,,,,,,x
58,3,Presentation,1,00198940128fb_sunaazezcsunmhttzxz.jpg,00670941121fa_sunadochqcucscehsgk.jpg,00198940128fb.jpg,sunaazezcsunmhttzxz.jpg,00670941121fa.jpg,sunadochqcucscehsgk.jpg,,,<,Face,,,,,1,,,,,,,o
59,3,Presentation,1,00854940307fa_sunaiwduelojtwaqeyh.jpg,00136931230fb_sunaanptmsknhirrzed.jpg,00854940307fa.jpg,sunaiwduelojtwaqeyh.jpg,00136931230fb.jpg,sunaanptmsknhirrzed.jpg,,,<,Face,,,,,1,,,,,,,o
60,3,Memory,1,,,,,,,00723941201fa.jpg,,,,,,,,,,,,,,,
61,3,Memory,1,,,,,,,00136931230fb.jpg,,,,,,,,,,,,,,,
62,3,Memory,1,,,,,,,00727941205fa.jpg,,,,,,,,,,,,,,,
63,3,Memory,1,,,,,,,sunafbwnojpqeyzssoe.jpg,,,,,,,,,,,,,,,
64,3,Memory,1,,,,,,,sunahpblecxtmuzkmxb.jpg,,,,,,,,,,,,,,,
65,3,Memory,1,,,,,,,sunahuynahneraqftyz.jpg,,,,,,,,,,,,,,,
66,3,Memory,1,,,,,,,00931960627fa.jpg,,,,,,,,,,,,,,,
67,3,Memory,1,,,,,,,sunaflojskatpeqyzqp.jpg,,,,,,,,,,,,,,,
68,3,Memory,1,,,,,,,sunabjzyxcjnmztdonj.jpg,,,,,,,,,,,,,,,
69,3,Memory,1,,,,,,,00700941121fa.jpg,,,,,,,,,,,,,,,
70,3,Memory,1,,,,,,,sunajoveqhiprwqgoco.jpg,,,,,,,,,,,,,,,
71,3,Memory,1,,,,,,,sunabjuovqvyfuzvqwt.jpg,,,,,,,,,,,,,,,
72,3,Memory,1,,,,,,,00581940928fa.jpg,,,,,,,,,,,,,,,
73,3,Memory,1,,,,,,,00076931230fa.jpg,,,,,,,,,,,,,,,
74,3,Memory,1,,,,,,,sunaavodbcpygkggnfp.jpg,,,,,,,,,,,,,,,
75,3,Memory,1,,,,,,,sunadsgmtznewzyasnk.jpg,,,,,,,,,,,,,,,
76,3,Memory,1,,,,,,,sunbfzchmomnvzhbxdg.jpg,,,,,,,,,,,,,,,
77,3,Memory,1,,,,,,,00913960530fa.jpg,,,,,,,,,,,,,,,
78,3,Memory,1,,,,,,,sunaafewhewbxmjiurz.jpg,,,,,,,,,,,,,,,
79,3,Memory,1,,,,,,,01002960627fb.jpg,,,,,,,,,,,,,,,
80,3,Memory,1,,,,,,,00263940128fb.jpg,,,,,,,,,,,,,,,
81,3,Memory,1,,,,,,,00869940307fa.jpg,,,,,,,,,,,,,,,
82,3,Memory,1,,,,,,,00479940519fa.jpg,,,,,,,,,,,,,,,
83,3,Memory,1,,,,,,,sunaooffzffbhcpirmm.jpg,,,,,,,,,,,,,,,
84,3,Memory,1,,,,,,,sunaptrqvaooxfvktvw.jpg,,,,,,,,,,,,,,,
85,3,Memory,1,,,,,,,00770941201fa.jpg,,,,,,,,,,,,,,,
86,3,Memory,1,,,,,,,00163931230fb.jpg,,,,,,,,,,,,,,,
87,3,Memory,1,,,,,,,00828940307fa.jpg,,,,,,,,,,,,,,,
88,3,Memory,1,,,,,,,sunacvzhvcksnwqcqbw.jpg,,,,,,,,,,,,,,,
89,3,Memory,1,,,,,,,sunaeisnjeetzmkbuad.jpg,,,,,,,,,,,,,,,
90,3,Memory,1,,,,,,,00752960620fa.jpg,,,,,,,,,,,,,,,
91,3,Memory,1,,,,,,,sunbwaafjdebjzttuvq.jpg,,,,,,,,,,,,,,,
92,3,Memory,1,,,,,,,00264940128fb.jpg,,,,,,,,,,,,,,,
93,3,Memory,1,,,,,,,00984960627fa.jpg,,,,,,,,,,,,,,,
94,3,Memory,1,,,,,,,01003960627fb.jpg,,,,,,,,,,,,,,,
95,3,Memory,1,,,,,,,sunaedtgwjvvziytspa.jpg,,,,,,,,,,,,,,,
96,3,Memory,1,,,,,,,sunbwdrdvsweerwsdrj.jpg,,,,,,,,,,,,,,,
97,3,Memory,1,,,,,,,sunaanptmsknhirrzed.jpg,,,,,,,,,,,,,,,
98,3,Memory,1,,,,,,,00818940307fa.jpg,,,,,,,,,,,,,,,
99,3,Memory,1,,,,,,,sunabxsbfwjccqxxzxq.jpg,,,,,,,,,,,,,,,
100,3,Presentation,2,00305940422fa_sunabtrnbvpppgczjim.jpg,00963960627fa_sunayaepykrqvenaqqy.jpg,00305940422fa.jpg,sunabtrnbvpppgczjim.jpg,00963960627fa.jpg,sunayaepykrqvenaqqy.jpg,,,<,Place,,,,,1,,,,,,,o
101,3,Presentation,2,00796941205fa_sunaguchqqnrtodtezq.jpg,00705941205fa_sunadtlxenqqxsyjvix.jpg,00796941205fa.jpg,sunaguchqqnrtodtezq.jpg,00705941205fa.jpg,sunadtlxenqqxsyjvix.jpg,,,<,Place,,,,,1,,,,,,,x
102,3,Presentation,2,00648941031fa_sunadfndyrtqqiasoig.jpg,00937960627fa_sunaqsolmfydodnakub.jpg,00648941031fa.jpg,sunadfndyrtqqiasoig.jpg,00937960627fa.jpg,sunaqsolmfydodnakub.jpg,,,<,Place,,,,,1,,,,,,,x
103,3,Presentation,2,00635941031fa_sunaddsaeicthrfbkhe.jpg,00993960627fa_sunbprywzqxjcezkbch.jpg,00635941031fa.jpg,sunaddsaeicthrfbkhe.jpg,00993960627fa.jpg,sunbprywzqxjcezkbch.jpg,,,<,Place,,,,,1,,,,,,,x
104,3,Presentation,2,00965960627fa_sunaydywdmvlfddbxbk.jpg,00921960627fa_sunapqkpqdfvxlbqwyo.jpg,00965960627fa.jpg,sunaydywdmvlfddbxbk.jpg,00921960627fa.jpg,sunapqkpqdfvxlbqwyo.jpg,,,<,Place,,,,,1,,,,,,,o
105,3,Presentation,2,00073931230fa_sunaafbmtoniaasysgu.jpg,00227940128fa_sunabckqabszusgcykj.jpg,00073931230fa.jpg,sunaafbmtoniaasysgu.jpg,00227940128fa.jpg,sunabckqabszusgcykj.jpg,,,<,Place,,,,,1,,,,,,,o
106,3,Presentation,2,00071941031fa_sunaaexqbtdswxrqjvz.jpg,00070940307fa_sunaaeplwsfslcbtojr.jpg,00071941031fa.jpg,sunaaexqbtdswxrqjvz.jpg,00070940307fa.jpg,sunaaeplwsfslcbtojr.jpg,,,<,Place,,,,,1,,,,,,,o
107,3,Presentation,2,00889960530fa_sunaletopenvvozhpxc.jpg,00694941121fa_sunadrmfzmstgdjdcod.jpg,00889960530fa.jpg,sunaletopenvvozhpxc.jpg,00694941121fa.jpg,sunadrmfzmstgdjdcod.jpg,,,<,Place,,,,,1,,,,,,,o
108,3,Presentation,2,00864940307fa_sunajawzbrlrwafowen.jpg,00775941205fa_sunafvwfsmqkjrutjta.jpg,00864940307fa.jpg,sunajawzbrlrwafowen.jpg,00775941205fa.jpg,sunafvwfsmqkjrutjta.jpg,,,<,Place,,,,,1,,,,,,,x
109,3,Presentation,2,00681941121fa_sunadqmjrhfjyuzyvdd.jpg,00763941205fa_sunafhmnhsdurlvddpw.jpg,00681941121fa.jpg,sunadqmjrhfjyuzyvdd.jpg,00763941205fa.jpg,sunafhmnhsdurlvddpw.jpg,,,<,Place,,,,,1,,,,,,,x
110,3,Memory,2,,,,,,,00681941121fa.jpg,,,,,,,,,,,,,,,
111,3,Memory,2,,,,,,,00635941031fa.jpg,,,,,,,,,,,,,,,
112,3,Memory,2,,,,,,,sunadfktsqjthoglcsm.jpg,,,,,,,,,,,,,,,
113,3,Memory,2,,,,,,,00762941201fa.jpg,,,,,,,,,,,,,,,
114,3,Memory,2,,,,,,,00796941205fa.jpg,,,,,,,,,,,,,,,
115,3,Memory,2,,,,,,,00921960627fa.jpg,,,,,,,,,,,,,,,
116,3,Memory,2,,,,,,,sunaqsolmfydodnakub.jpg,,,,,,,,,,,,,,,
117,3,Memory,2,,,,,,,00742941201fa.jpg,,,,,,,,,,,,,,,
118,3,Memory,2,,,,,,,00147931230fb.jpg,,,,,,,,,,,,,,,
119,3,Memory,2,,,,,,,sunafhmnhsdurlvddpw.jpg,,,,,,,,,,,,,,,
120,3,Memory,2,,,,,,,00227940128fa.jpg,,,,,,,,,,,,,,,
121,3,Memory,2,,,,,,,sunafgzgbisbopcyslr.jpg,,,,,,,,,,,,,,,
122,3,Memory,2,,,,,,,sunapqkpqdfvxlbqwyo.jpg,,,,,,,,,,,,,,,
123,3,Memory,2,,,,,,,sunaafbmtoniaasysgu.jpg,,,,,,,,,,,,,,,
124,3,Memory,2,,,,,,,00073931230fa.jpg,,,,,,,,,,,,,,,
125,3,Memory,2,,,,,,,00774941201fa.jpg,,,,,,,,,,,,,,,
126,3,Memory,2,,,,,,,sunaatpkocdkocwxpkb.jpg,,,,,,,,,,,,,,,
127,3,Memory,2,,,,,,,00775941205fa.jpg,,,,,,,,,,,,,,,
128,3,Memory,2,,,,,,,00650941031fa.jpg,,,,,,,,,,,,,,,
129,3,Memory,2,,,,,,,00648941031fa.jpg,,,,,,,,,,,,,,,
130,3,Memory,2,,,,,,,00125931230fa.jpg,,,,,,,,,,,,,,,
131,3,Memory,2,,,,,,,sunaddtdkycxbqlpfqa.jpg,,,,,,,,,,,,,,,
132,3,Memory,2,,,,,,,sunadfndyrtqqiasoig.jpg,,,,,,,,,,,,,,,
133,3,Memory,2,,,,,,,sunaiozxhxgtfrmoagh.jpg,,,,,,,,,,,,,,,
134,3,Memory,2,,,,,,,sunaenwuebvlpdmntju.jpg,,,,,,,,,,,,,,,
135,3,Memory,2,,,,,,,00838940307fa.jpg,,,,,,,,,,,,,,,
136,3,Memory,2,,,,,,,sunaddsaeicthrfbkhe.jpg,,,,,,,,,,,,,,,
137,3,Memory,2,,,,,,,00937960627fa.jpg,,,,,,,,,,,,,,,
138,3,Memory,2,,,,,,,00636941031fa.jpg,,,,,,,,,,,,,,,
139,3,Memory,2,,,,,,,sunabckqabszusgcykj.jpg,,,,,,,,,,,,,,,
140,3,Memory,2,,,,,,,sunafvtpfczkzopbgue.jpg,,,,,,,,,,,,,,,
141,3,Memory,2,,,,,,,sunaguchqqnrtodtezq.jpg,,,,,,,,,,,,,,,
142,3,Memory,2,,,,,,,sunadikxpvqeabxrvvc.jpg,,,,,,,,,,,,,,,
143,3,Memory,2,,,,,,,00638941031fa.jpg,,,,,,,,,,,,,,,
144,3,Memory,2,,,,,,,sunafvwfsmqkjrutjta.jpg,,,,,,,,,,,,,,,
145,3,Memory,2,,,,,,,sunadqmjrhfjyuzyvdd.jpg,,,,,,,,,,,,,,,
146,3,Memory,2,,,,,,,00763941205fa.jpg,,,,,,,,,,,,,,,
147,3,Memory,2,,,,,,,sunaalltyvjhbzhkmvg.jpg,,,,,,,,,,,,,,,
148,3,Memory,2,,,,,,,00576941031fa.jpg,,,,,,,,,,,,,,,
149,3,Memory,2,,,,,,,sunacvjlsylseoghjup.jpg,,,,,,,,,,,,,,,
150,3,Presentation,3,00807941205fa_sunahawfngukizslzsd.jpg,01011960627fa_sundahdxwmcdluscvot.jpg,00807941205fa.jpg,sunahawfngukizslzsd.jpg,01011960627fa.jpg,sundahdxwmcdluscvot.jpg,,,>,Face,,,,,1,,,,,,,o
151,3,Presentation,3,00868960307fa_sunajjxttslobudoqbv.jpg,00102931230fa_sunaajspcoepticvplv.jpg,00868960307fa.jpg,sunajjxttslobudoqbv.jpg,00102931230fa.jpg,sunaajspcoepticvplv.jpg,,,>,Face,,,,,1,,,,,,,x
152,3,Presentation,3,00265940128fb_sunabkmdplkdbvxriff.jpg,00961960627fa_sunawotxrevnqvamsfp.jpg,00265940128fb.jpg,sunabkmdplkdbvxriff.jpg,00961960627fa.jpg,sunawotxrevnqvamsfp.jpg,,,>,Face,,,,,1,,,,,,,x
153,3,Presentation,3,00827940307fa_sunahtfxgsrmkiulnwk.jpg,00788941205fa_sunagountlxpzkytsmp.jpg,00827940307fa.jpg,sunahtfxgsrmkiulnwk.jpg,00788941205fa.jpg,sunagountlxpzkytsmp.jpg,,,>,Face,,,,,1,,,,,,,x
154,3,Presentation,3,00069931230fb_sunaaeowapdkwzqpgqr.jpg,00776941205fa_sunafxokyavhgptyfye.jpg,00069931230fb.jpg,sunaaeowapdkwzqpgqr.jpg,00776941205fa.jpg,sunafxokyavhgptyfye.jpg,,,>,Face,,,,,1,,,,,,,o
155,3,Presentation,3,00779941205fa_sunagdzlvkqtpnfxfcg.jpg,00119931230fb_sunaakvmbftkrgqhjun.jpg,00779941205fa.jpg,sunagdzlvkqtpnfxfcg.jpg,00119931230fb.jpg,sunaakvmbftkrgqhjun.jpg,,,>,Face,,,,,1,,,,,,,o
156,3,Presentation,3,00773941201fa_sunafvcflzhlqloapyo.jpg,00970960627fa_sunbasypfgzjtomktmu.jpg,00773941201fa.jpg,sunafvcflzhlqloapyo.jpg,00970960627fa.jpg,sunbasypfgzjtomktmu.jpg,,,>,Face,,,,,1,,,,,,,o
157,3,Presentation,3,00986960627fa_sunbgzjryivyczuvkvm.jpg,00771941205fa_sunafowswglhxcsufpo.jpg,00986960627fa.jpg,sunbgzjryivyczuvkvm.jpg,00771941205fa.jpg,sunafowswglhxcsufpo.jpg,,,>,Face,,,,,1,,,,,,,o
158,3,Presentation,3,00620940928fa_sunacypmnujalygkunp.jpg,00138931230fa_sunaapfaivxqoynnwwp.jpg,00620940928fa.jpg,sunacypmnujalygkunp.jpg,00138931230fa.jpg,sunaapfaivxqoynnwwp.jpg,,,>,Face,,,,,1,,,,,,,o
159,3,Presentation,3,00834940307fa_sunaibnpvhkdpdnzcnz.jpg,00997960627fa_sunbtpilbhhbmhmeuzq.jpg,00834940307fa.jpg,sunaibnpvhkdpdnzcnz.jpg,00997960627fa.jpg,sunbtpilbhhbmhmeuzq.jpg,,,>,Face,,,,,1,,,,,,,x
160,3,Memory,3,,,,,,,sunaofikylqtxphvdem.jpg,,,,,,,,,,,,,,,
161,3,Memory,3,,,,,,,00788941205fa.jpg,,,,,,,,,,,,,,,
162,3,Memory,3,,,,,,,sunbasypfgzjtomktmu.jpg,,,,,,,,,,,,,,,
163,3,Memory,3,,,,,,,00807941205fa.jpg,,,,,,,,,,,,,,,
164,3,Memory,3,,,,,,,sunacbeefkxpymwevpk.jpg,,,,,,,,,,,,,,,
165,3,Memory,3,,,,,,,00773941201fa.jpg,,,,,,,,,,,,,,,
166,3,Memory,3,,,,,,,sundahdxwmcdluscvot.jpg,,,,,,,,,,,,,,,
167,3,Memory,3,,,,,,,00910960530fa.jpg,,,,,,,,,,,,,,,
168,3,Memory,3,,,,,,,sunagutjvdvnhxejerz.jpg,,,,,,,,,,,,,,,
169,3,Memory,3,,,,,,,sunaamdjwemxpmmtypi.jpg,,,,,,,,,,,,,,,
170,3,Memory,3,,,,,,,01011960627fa.jpg,,,,,,,,,,,,,,,
171,3,Memory,3,,,,,,,00766960620fa.jpg,,,,,,,,,,,,,,,
172,3,Memory,3,,,,,,,00071940128fa.jpg,,,,,,,,,,,,,,,
173,3,Memory,3,,,,,,,00961960627fa.jpg,,,,,,,,,,,,,,,
174,3,Memory,3,,,,,,,00982960627fa.jpg,,,,,,,,,,,,,,,
175,3,Memory,3,,,,,,,sunaavchcbptaerhcfy.jpg,,,,,,,,,,,,,,,
176,3,Memory,3,,,,,,,00986960627fa.jpg,,,,,,,,,,,,,,,
177,3,Memory,3,,,,,,,00970960627fa.jpg,,,,,,,,,,,,,,,
178,3,Memory,3,,,,,,,sunbgzjryivyczuvkvm.jpg,,,,,,,,,,,,,,,
179,3,Memory,3,,,,,,,00778941205fa.jpg,,,,,,,,,,,,,,,
180,3,Memory,3,,,,,,,00529940519fa.jpg,,,,,,,,,,,,,,,
181,3,Memory,3,,,,,,,00126931230fb.jpg,,,,,,,,,,,,,,,
182,3,Memory,3,,,,,,,sunahawfngukizslzsd.jpg,,,,,,,,,,,,,,,
183,3,Memory,3,,,,,,,sunagountlxpzkytsmp.jpg,,,,,,,,,,,,,,,
184,3,Memory,3,,,,,,,sunbesrwkdsffeogeqq.jpg,,,,,,,,,,,,,,,
185,3,Memory,3,,,,,,,sunaaexpnawiehinlpy.jpg,,,,,,,,,,,,,,,
186,3,Memory,3,,,,,,,sunafvcflzhlqloapyo.jpg,,,,,,,,,,,,,,,
187,3,Memory,3,,,,,,,00799941205fa.jpg,,,,,,,,,,,,,,,
188,3,Memory,3,,,,,,,00138931230fa.jpg,,,,,,,,,,,,,,,
189,3,Memory,3,,,,,,,sunajjxttslobudoqbv.jpg,,,,,,,,,,,,,,,
190,3,Memory,3,,,,,,,sunawotxrevnqvamsfp.jpg,,,,,,,,,,,,,,,
191,3,Memory,3,,,,,,,sunaapfaivxqoynnwwp.jpg,,,,,,,,,,,,,,,
192,3,Memory,3,,,,,,,sunafijbgncijwykrnl.jpg,,,,,,,,,,,,,,,
193,3,Memory,3,,,,,,,sunagdzlvkqtpnfxfcg.jpg,,,,,,,,,,,,,,,
194,3,Memory,3,,,,,,,00158931230fb.jpg,,,,,,,,,,,,,,,
195,3,Memory,3,,,,,,,sunagcthdfirrcawoic.jpg,,,,,,,,,,,,,,,
196,3,Memory,3,,,,,,,00108960530fa.jpg,,,,,,,,,,,,,,,
197,3,Memory,3,,,,,,,00868960307fa.jpg,,,,,,,,,,,,,,,
198,3,Memory,3,,,,,,,sunaajtnvzzpsjdzres.jpg,,,,,,,,,,,,,,,
199,3,Memory,3,,,,,,,00779941205fa.jpg,,,,,,,,,,,,,,,
200,3,Presentation,4,00898960530fa_sunamkmeblgteyggink.jpg,00955960627fb_sunauburywlkjszngcq.jpg,00898960530fa.jpg,sunamkmeblgteyggink.jpg,00955960627fb.jpg,sunauburywlkjszngcq.jpg,,,>,Place,,,,,1,,,,,,,o
201,3,Presentation,4,00783941205fa_sunagjeesomrwjsfqie.jpg,00111931230fb_sunaakgekhjklxmvulj.jpg,00783941205fa.jpg,sunagjeesomrwjsfqie.jpg,00111931230fb.jpg,sunaakgekhjklxmvulj.jpg,,,>,Place,,,,,1,,,,,,,o
202,3,Presentation,4,00947960627fa_sunasmmcxdddtmtazwx.jpg,00260940128fa_sunabgfhvifeijihhjw.jpg,00947960627fa.jpg,sunasmmcxdddtmtazwx.jpg,00260940128fa.jpg,sunabgfhvifeijihhjw.jpg,,,>,Place,,,,,1,,,,,,,o
203,3,Presentation,4,00847940307fa_sunaivdjruhkrfywfed.jpg,00634940928fa_sunadcphrizvfpljiqt.jpg,00847940307fa.jpg,sunaivdjruhkrfywfed.jpg,00634940928fa.jpg,sunadcphrizvfpljiqt.jpg,,,>,Place,,,,,1,,,,,,,x
204,3,Presentation,4,00816941205fa_sunahmhrncocyhsjpxk.jpg,00245940128fa_sunabeyhmxodahoieyk.jpg,00816941205fa.jpg,sunahmhrncocyhsjpxk.jpg,00245940128fa.jpg,sunabeyhmxodahoieyk.jpg,,,>,Place,,,,,1,,,,,,,x
205,3,Presentation,4,00239940128fa_sunabctlikybqabezjv.jpg,00938960627fa_sunaqyylsngywqzwfmx.jpg,00239940128fa.jpg,sunabctlikybqabezjv.jpg,00938960627fa.jpg,sunaqyylsngywqzwfmx.jpg,,,>,Place,,,,,1,,,,,,,o
206,3,Presentation,4,00950960627fa_sunasrjlmglmjzbmqxb.jpg,00790941205fa_sunagpjzsbltchlwvou.jpg,00950960627fa.jpg,sunasrjlmglmjzbmqxb.jpg,00790941205fa.jpg,sunagpjzsbltchlwvou.jpg,,,>,Place,,,,,1,,,,,,,x
207,3,Presentation,4,00858940307fa_sunaixpqndlwhwjtjek.jpg,00859940307fa_sunaiycurtqsfkvcaso.jpg,00858940307fa.jpg,sunaixpqndlwhwjtjek.jpg,00859940307fa.jpg,sunaiycurtqsfkvcaso.jpg,,,>,Place,,,,,1,,,,,,,x
208,3,Presentation,4,00983960627fa_sunbfyvfqiimvdaxlqn.jpg,00568940928fa_sunacsdhbbsybcyxnel.jpg,00983960627fa.jpg,sunbfyvfqiimvdaxlqn.jpg,00568940928fa.jpg,sunacsdhbbsybcyxnel.jpg,,,>,Place,,,,,1,,,,,,,x
209,3,Presentation,4,00144931230fb_sunaathajvxrgptwhoj.jpg,00630940928fa_sunaczwgyukesaajxnx.jpg,00144931230fb.jpg,sunaathajvxrgptwhoj.jpg,00630940928fa.jpg,sunaczwgyukesaajxnx.jpg,,,>,Place,,,,,1,,,,,,,o
210,3,Memory,4,,,,,,,sunabkngeblodihjvbk.jpg,,,,,,,,,,,,,,,
211,3,Memory,4,,,,,,,00245940128fa.jpg,,,,,,,,,,,,,,,
212,3,Memory,4,,,,,,,sunakwlvxjpddialozd.jpg,,,,,,,,,,,,,,,
213,3,Memory,4,,,,,,,sunaavtbadenwnzeutj.jpg,,,,,,,,,,,,,,,
214,3,Memory,4,,,,,,,sunaloffvbvysigxent.jpg,,,,,,,,,,,,,,,
215,3,Memory,4,,,,,,,sunauburywlkjszngcq.jpg,,,,,,,,,,,,,,,
216,3,Memory,4,,,,,,,00859940307fa.jpg,,,,,,,,,,,,,,,
217,3,Memory,4,,,,,,,00936960627fa.jpg,,,,,,,,,,,,,,,
218,3,Memory,4,,,,,,,sunaixpqndlwhwjtjek.jpg,,,,,,,,,,,,,,,
219,3,Memory,4,,,,,,,sunaipyohrqlwngaqif.jpg,,,,,,,,,,,,,,,
220,3,Memory,4,,,,,,,sunabeyhmxodahoieyk.jpg,,,,,,,,,,,,,,,
221,3,Memory,4,,,,,,,00955960627fb.jpg,,,,,,,,,,,,,,,
222,3,Memory,4,,,,,,,sunaajqmsaavkmgbsth.jpg,,,,,,,,,,,,,,,
223,3,Memory,4,,,,,,,sunahmhrncocyhsjpxk.jpg,,,,,,,,,,,,,,,
224,3,Memory,4,,,,,,,00893960530Fa.jpg,,,,,,,,,,,,,,,
225,3,Memory,4,,,,,,,00115931230fa.jpg,,,,,,,,,,,,,,,
226,3,Memory,4,,,,,,,sunaiycurtqsfkvcaso.jpg,,,,,,,,,,,,,,,
227,3,Memory,4,,,,,,,sunaathajvxrgptwhoj.jpg,,,,,,,,,,,,,,,
228,3,Memory,4,,,,,,,00101931230fb.jpg,,,,,,,,,,,,,,,
229,3,Memory,4,,,,,,,00816941205fa.jpg,,,,,,,,,,,,,,,
230,3,Memory,4,,,,,,,sunabppokiyglaxpcha.jpg,,,,,,,,,,,,,,,
231,3,Memory,4,,,,,,,00911960530fa.jpg,,,,,,,,,,,,,,,
232,3,Memory,4,,,,,,,00260940128fa.jpg,,,,,,,,,,,,,,,
233,3,Memory,4,,,,,,,00885960530fa.jpg,,,,,,,,,,,,,,,
234,3,Memory,4,,,,,,,sunasmmcxdddtmtazwx.jpg,,,,,,,,,,,,,,,
235,3,Memory,4,,,,,,,sunaivdjruhkrfywfed.jpg,,,,,,,,,,,,,,,
236,3,Memory,4,,,,,,,00144931230fb.jpg,,,,,,,,,,,,,,,
237,3,Memory,4,,,,,,,00947960627fa.jpg,,,,,,,,,,,,,,,
238,3,Memory,4,,,,,,,sunaqgjuuwvdcyiccjt.jpg,,,,,,,,,,,,,,,
239,3,Memory,4,,,,,,,00288940422fa.jpg,,,,,,,,,,,,,,,
240,3,Memory,4,,,,,,,sunaakmxzhuceuiryah.jpg,,,,,,,,,,,,,,,
241,3,Memory,4,,,,,,,00634940928fa.jpg,,,,,,,,,,,,,,,
242,3,Memory,4,,,,,,,sunaooaqzputrowwbsw.jpg,,,,,,,,,,,,,,,
243,3,Memory,4,,,,,,,00184940128fa.jpg,,,,,,,,,,,,,,,
244,3,Memory,4,,,,,,,00839940307fa.jpg,,,,,,,,,,,,,,,
245,3,Memory,4,,,,,,,sunabgfhvifeijihhjw.jpg,,,,,,,,,,,,,,,
246,3,Memory,4,,,,,,,00858940307fa.jpg,,,,,,,,,,,,,,,
247,3,Memory,4,,,,,,,00266940128fb.jpg,,,,,,,,,,,,,,,
248,3,Memory,4,,,,,,,sunadcphrizvfpljiqt.jpg,,,,,,,,,,,,,,,
249,3,Memory,4,,,,,,,00847940307fa.jpg,,,,,,,,,,,,,,,
250,3,Presentation,5,00270940422fb_sunabllobxadqcyttej.jpg,00777941205fa_sunagcinxkccdtrjmlv.jpg,00270940422fb.jpg,sunabllobxadqcyttej.jpg,00777941205fa.jpg,sunagcinxkccdtrjmlv.jpg,,,<,Place,,,,,0,,,,,,,x
251,3,Presentation,5,00988960627fa_sunbmaiocftdtvnzgap.jpg,00235940128fb_sunabclssnoeuigtawp.jpg,00988960627fa.jpg,sunbmaiocftdtvnzgap.jpg,00235940128fb.jpg,sunabclssnoeuigtawp.jpg,,,<,Place,,,,,1,,,,,,,o
252,3,Presentation,5,00725941201fa_sunaefgzwiramypjvtd.jpg,00112931230fa_sunaakjaacuzulqckgl.jpg,00725941201fa.jpg,sunaefgzwiramypjvtd.jpg,00112931230fa.jpg,sunaakjaacuzulqckgl.jpg,,,<,Place,,,,,1,,,,,,,o
253,3,Presentation,5,00903960620fa_sunanainkqdvktzoxyl.jpg,00926960627Fa_sunapqwoeotxshkukbh.jpg,00903960620fa.jpg,sunanainkqdvktzoxyl.jpg,00926960627Fa.jpg,sunapqwoeotxshkukbh.jpg,,,<,Place,,,,,1,,,,,,,o
254,3,Presentation,5,00061931230fb_sunaaekxzjzrfgtkwjf.jpg,00728941205fa_sunaejnvnpltdmhbcsi.jpg,00061931230fb.jpg,sunaaekxzjzrfgtkwjf.jpg,00728941205fa.jpg,sunaejnvnpltdmhbcsi.jpg,,,<,Place,,,,,1,,,,,,,o
255,3,Presentation,5,00574940928fa_sunacvbrcejzwmcgnoq.jpg,00744941201fa_sunaeomlfaabhpswasy.jpg,00574940928fa.jpg,sunacvbrcejzwmcgnoq.jpg,00744941201fa.jpg,sunaeomlfaabhpswasy.jpg,,,<,Place,,,,,1,,,,,,,x
256,3,Presentation,5,00848940307fa_sunaivdylrawbmhryfp.jpg,00185940422fb_sunaawqdbpihmlbwyyn.jpg,00848940307fa.jpg,sunaivdylrawbmhryfp.jpg,00185940422fb.jpg,sunaawqdbpihmlbwyyn.jpg,,,<,Place,,,,,1,,,,,,,x
257,3,Presentation,5,00719941201fa_sunadvithllcgmfxsrn.jpg,00902960530fa_sunanaacmmosxrfwmvl.jpg,00719941201fa.jpg,sunadvithllcgmfxsrn.jpg,00902960530fa.jpg,sunanaacmmosxrfwmvl.jpg,,,<,Place,,,,,1,,,,,,,x
258,3,Presentation,5,01004960627fa_sunbwtlihsuptkrckid.jpg,00481940519fa_sunabxsuqbleluwczoy.jpg,01004960627fa.jpg,sunbwtlihsuptkrckid.jpg,00481940519fa.jpg,sunabxsuqbleluwczoy.jpg,,,<,Place,,,,,1,,,,,,,o
259,3,Presentation,5,00276940422fa_sunabmytpyhsgigllxu.jpg,00194940128fb_sunaayehfdqcyxggsej.jpg,00276940422fa.jpg,sunabmytpyhsgigllxu.jpg,00194940128fb.jpg,sunaayehfdqcyxggsej.jpg,,,<,Place,,,,,1,,,,,,,x
260,3,Memory,5,,,,,,,00296940422fa.jpg,,,,,,,,,,,,,,,
261,3,Memory,5,,,,,,,sunaahedjlmtqekgyvj.jpg,,,,,,,,,,,,,,,
262,3,Memory,5,,,,,,,00728941205fa.jpg,,,,,,,,,,,,,,,
263,3,Memory,5,,,,,,,sunabmytpyhsgigllxu.jpg,,,,,,,,,,,,,,,
264,3,Memory,5,,,,,,,00793941205fa.jpg,,,,,,,,,,,,,,,
265,3,Memory,5,,,,,,,sunaeomlfaabhpswasy.jpg,,,,,,,,,,,,,,,
266,3,Memory,5,,,,,,,00061931230fb.jpg,,,,,,,,,,,,,,,
267,3,Memory,5,,,,,,,sunabrwnslxalcohfre.jpg,,,,,,,,,,,,,,,
268,3,Memory,5,,,,,,,sunbwtlihsuptkrckid.jpg,,,,,,,,,,,,,,,
269,3,Memory,5,,,,,,,00792941205fa.jpg,,,,,,,,,,,,,,,
270,3,Memory,5,,,,,,,00782941205fa.jpg,,,,,,,,,,,,,,,
271,3,Memory,5,,,,,,,sunaawqdbpihmlbwyyn.jpg,,,,,,,,,,,,,,,
272,3,Memory,5,,,,,,,00935960627fa.jpg,,,,,,,,,,,,,,,
273,3,Memory,5,,,,,,,00777941205fa.jpg,,,,,,,,,,,,,,,
274,3,Memory,5,,,,,,,00090931230fa.jpg,,,,,,,,,,,,,,,
275,3,Memory,5,,,,,,,00270940422fb.jpg,,,,,,,,,,,,,,,
276,3,Memory,5,,,,,,,sunagcinxkccdtrjmlv.jpg,,,,,,,,,,,,,,,
277,3,Memory,5,,,,,,,sunaaekxzjzrfgtkwjf.jpg,,,,,,,,,,,,,,,
278,3,Memory,5,,,,,,,sunaqbmgkgqucajzrkp.jpg,,,,,,,,,,,,,,,
279,3,Memory,5,,,,,,,sunabqowuarvqqcnipn.jpg,,,,,,,,,,,,,,,
280,3,Memory,5,,,,,,,sunafcofuuzebuadceo.jpg,,,,,,,,,,,,,,,
281,3,Memory,5,,,,,,,sunahqldjibofgsfdgb.jpg,,,,,,,,,,,,,,,
282,3,Memory,5,,,,,,,sunaijsqpvodplbwxkf.jpg,,,,,,,,,,,,,,,
283,3,Memory,5,,,,,,,00290940422fa.jpg,,,,,,,,,,,,,,,
284,3,Memory,5,,,,,,,00753941201fa.jpg,,,,,,,,,,,,,,,
285,3,Memory,5,,,,,,,sunapqwoeotxshkukbh.jpg,,,,,,,,,,,,,,,
286,3,Memory,5,,,,,,,00276940422fa.jpg,,,,,,,,,,,,,,,
287,3,Memory,5,,,,,,,01004960627fa.jpg,,,,,,,,,,,,,,,
288,3,Memory,5,,,,,,,sunadvithllcgmfxsrn.jpg,,,,,,,,,,,,,,,
289,3,Memory,5,,,,,,,sunabllobxadqcyttej.jpg,,,,,,,,,,,,,,,
290,3,Memory,5,,,,,,,sunaejnvnpltdmhbcsi.jpg,,,,,,,,,,,,,,,
291,3,Memory,5,,,,,,,sunagtjwilqjvxohypn.jpg,,,,,,,,,,,,,,,
292,3,Memory,5,,,,,,,00744941201fa.jpg,,,,,,,,,,,,,,,
293,3,Memory,5,,,,,,,sunagsiwrmuixqgdimb.jpg,,,,,,,,,,,,,,,
294,3,Memory,5,,,,,,,00819940307fa.jpg,,,,,,,,,,,,,,,
295,3,Memory,5,,,,,,,00926960627Fa.jpg,,,,,,,,,,,,,,,
296,3,Memory,5,,,,,,,00719941201fa.jpg,,,,,,,,,,,,,,,
297,3,Memory,5,,,,,,,sunagfvluwixdsozaql.jpg,,,,,,,,,,,,,,,
298,3,Memory,5,,,,,,,00185940422fb.jpg,,,,,,,,,,,,,,,
299,3,Memory,5,,,,,,,00835940307fa.jpg,,,,,,,,,,,,,,,
300,3,Presentation,6,00086931230fa_sunaafynehyrzpsoaml.jpg,00548940519fa_sunacerqowiaeoqkmsq.jpg,00086931230fa.jpg,sunaafynehyrzpsoaml.jpg,00548940519fa.jpg,sunacerqowiaeoqkmsq.jpg,,,>,Face,,,,,1,,,,,,,x
301,3,Presentation,6,00751960620fa_sunaezuszgtxnmsxdbk.jpg,00267940128fb_sunablfqiwfqomjarht.jpg,00751960620fa.jpg,sunaezuszgtxnmsxdbk.jpg,00267940128fb.jpg,sunablfqiwfqomjarht.jpg,,,>,Face,,,,,1,,,,,,,x
302,3,Presentation,6,00598940928fa_sunacxeheuiigkcgquf.jpg,00082931230fa_sunaafvitpexrpvumsa.jpg,00598940928fa.jpg,sunacxeheuiigkcgquf.jpg,00082931230fa.jpg,sunaafvitpexrpvumsa.jpg,,,>,Face,,,,,1,,,,,,,x
303,3,Presentation,6,00564940928fa_sunacmpqqfbsvlzinzl.jpg,00785941205fa_sunaglqunwuycxydmyu.jpg,00564940928fa.jpg,sunacmpqqfbsvlzinzl.jpg,00785941205fa.jpg,sunaglqunwuycxydmyu.jpg,,,>,Face,,,,,1,,,,,,,x
304,3,Presentation,6,00589940928fa_sunacwggadqsfpovdjv.jpg,00815941205fa_sunahiphsekjihkafsl.jpg,00589940928fa.jpg,sunacwggadqsfpovdjv.jpg,00815941205fa.jpg,sunahiphsekjihkafsl.jpg,,,>,Face,,,,,0,,,,,,,x
305,3,Presentation,6,00803941205fa_sunagvxkjokqimstxpe.jpg,00221940128fa_sunabcfpwlpolnutyju.jpg,00803941205fa.jpg,sunagvxkjokqimstxpe.jpg,00221940128fa.jpg,sunabcfpwlpolnutyju.jpg,,,>,Face,,,,,1,,,,,,,x
306,3,Presentation,6,00810941205fa_sunahctntqrunhdxhtb.jpg,00996960627fa_sunbpvgllfdejxcpjqp.jpg,00810941205fa.jpg,sunahctntqrunhdxhtb.jpg,00996960627fa.jpg,sunbpvgllfdejxcpjqp.jpg,,,>,Face,,,,,1,,,,,,,x
307,3,Presentation,6,00900960530fa_sunamlotskmmsjeogby.jpg,00786941205fa_sunagmhildamktmqjss.jpg,00900960530fa.jpg,sunamlotskmmsjeogby.jpg,00786941205fa.jpg,sunagmhildamktmqjss.jpg,,,>,Face,,,,,0,,,,,,,x
308,3,Presentation,6,00768941205fa_sunafkmnlytenlsywia.jpg,00142931230fb_sunaapxkpvrhpjplsok.jpg,00768941205fa.jpg,sunafkmnlytenlsywia.jpg,00142931230fb.jpg,sunaapxkpvrhpjplsok.jpg,,,>,Face,,,,,1,,,,,,,o
309,3,Presentation,6,00876960620fa_sunajwqkfsykceonyig.jpg,00741941201fa_sunaemcowdozyphwknd.jpg,00876960620fa.jpg,sunajwqkfsykceonyig.jpg,00741941201fa.jpg,sunaemcowdozyphwknd.jpg,,,>,Face,,,,,1,,,,,,,o
310,3,Memory,6,,,,,,,sunahwgbqkqcrwprgvh.jpg,,,,,,,,,,,,,,,
311,3,Memory,6,,,,,,,sunaafynehyrzpsoaml.jpg,,,,,,,,,,,,,,,
312,3,Memory,6,,,,,,,sunanwjjyqqwzqrqagd.jpg,,,,,,,,,,,,,,,
313,3,Memory,6,,,,,,,sunacxeheuiigkcgquf.jpg,,,,,,,,,,,,,,,
314,3,Memory,6,,,,,,,sunainqelldeebvxtcz.jpg,,,,,,,,,,,,,,,
315,3,Memory,6,,,,,,,00836940307fa.jpg,,,,,,,,,,,,,,,
316,3,Memory,6,,,,,,,00829940307fa.jpg,,,,,,,,,,,,,,,
317,3,Memory,6,,,,,,,sunafkmnlytenlsywia.jpg,,,,,,,,,,,,,,,
318,3,Memory,6,,,,,,,00952960627fa.jpg,,,,,,,,,,,,,,,
319,3,Memory,6,,,,,,,sunabueyoajufbkraki.jpg,,,,,,,,,,,,,,,
320,3,Memory,6,,,,,,,sunaapxkpvrhpjplsok.jpg,,,,,,,,,,,,,,,
321,3,Memory,6,,,,,,,sunammbnoambmhdxdwd.jpg,,,,,,,,,,,,,,,
322,3,Memory,6,,,,,,,00786941205fa.jpg,,,,,,,,,,,,,,,
323,3,Memory,6,,,,,,,00267940128fb.jpg,,,,,,,,,,,,,,,
324,3,Memory,6,,,,,,,00901960530fa.jpg,,,,,,,,,,,,,,,
325,3,Memory,6,,,,,,,sunablfqiwfqomjarht.jpg,,,,,,,,,,,,,,,
326,3,Memory,6,,,,,,,00803941205fa.jpg,,,,,,,,,,,,,,,
327,3,Memory,6,,,,,,,sunawksfbacycuhbrsc.jpg,,,,,,,,,,,,,,,
328,3,Memory,6,,,,,,,sunabcfpwlpolnutyju.jpg,,,,,,,,,,,,,,,
329,3,Memory,6,,,,,,,sunalcrtwiycqobgelp.jpg,,,,,,,,,,,,,,,
330,3,Memory,6,,,,,,,sunamlotskmmsjeogby.jpg,,,,,,,,,,,,,,,
331,3,Memory,6,,,,,,,00785941205fa.jpg,,,,,,,,,,,,,,,
332,3,Memory,6,,,,,,,sunaglqunwuycxydmyu.jpg,,,,,,,,,,,,,,,
333,3,Memory,6,,,,,,,sunathzzbcwjykldrem.jpg,,,,,,,,,,,,,,,
334,3,Memory,6,,,,,,,00308940422fb.jpg,,,,,,,,,,,,,,,
335,3,Memory,6,,,,,,,00960960627fa.jpg,,,,,,,,,,,,,,,
336,3,Memory,6,,,,,,,sunagmhildamktmqjss.jpg,,,,,,,,,,,,,,,
337,3,Memory,6,,,,,,,00306940422fa.jpg,,,,,,,,,,,,,,,
338,3,Memory,6,,,,,,,00086931230fa.jpg,,,,,,,,,,,,,,,
339,3,Memory,6,,,,,,,sunagvxkjokqimstxpe.jpg,,,,,,,,,,,,,,,
340,3,Memory,6,,,,,,,00193940928fa.jpg,,,,,,,,,,,,,,,
341,3,Memory,6,,,,,,,00221940128fa.jpg,,,,,,,,,,,,,,,
342,3,Memory,6,,,,,,,00598940928fa.jpg,,,,,,,,,,,,,,,
343,3,Memory,6,,,,,,,sunaaxjpzcnxligjtjq.jpg,,,,,,,,,,,,,,,
344,3,Memory,6,,,,,,,00142931230fb.jpg,,,,,,,,,,,,,,,
345,3,Memory,6,,,,,,,00768941205fa.jpg,,,,,,,,,,,,,,,
346,3,Memory,6,,,,,,,sunabwfvcqqidycwypa.jpg,,,,,,,,,,,,,,,
347,3,Memory,6,,,,,,,00887960530.jpg,,,,,,,,,,,,,,,
348,3,Memory,6,,,,,,,00908960530fa.jpg,,,,,,,,,,,,,,,
349,3,Memory,6,,,,,,,00900960530fa.jpg,,,,,,,,,,,,,,,
350,3,Presentation,7,00133931230fa_sunaanlwnpqndclffxt.jpg,00925960627fa_sunapqwnqzxlsfvgsjm.jpg,00133931230fa.jpg,sunaanlwnpqndclffxt.jpg,00925960627fa.jpg,sunapqwnqzxlsfvgsjm.jpg,,,<,Face,,,,,1,,,,,,,o
351,3,Presentation,7,00280940422fb_sunabohxbskznglnrhv.jpg,00959960627fa_sunavxokzybtomhbmvm.jpg,00280940422fb.jpg,sunabohxbskznglnrhv.jpg,00959960627fa.jpg,sunavxokzybtomhbmvm.jpg,,,<,Face,,,,,1,,,,,,,x
352,3,Presentation,7,00080931230fb_sunaafjszryxyavjzln.jpg,00987960627fa_sunbloeoiozwjjsiamp.jpg,00080931230fb.jpg,sunaafjszryxyavjzln.jpg,00987960627fa.jpg,sunbloeoiozwjjsiamp.jpg,,,<,Face,,,,,1,,,,,,,x
353,3,Presentation,7,00675941121fa_sunadoxcchtmsxewsau.jpg,00191940128fb_sunaawsdjisukbbginm.jpg,00675941121fa.jpg,sunadoxcchtmsxewsau.jpg,00191940128fb.jpg,sunaawsdjisukbbginm.jpg,,,<,Face,,,,,1,,,,,,,o
354,3,Presentation,7,00505960627fa_sunabzuqsrgcsonqlkz.jpg,00498960627fa_sunabzjxlmkwnwzimua.jpg,00505960627fa.jpg,sunabzuqsrgcsonqlkz.jpg,00498960627fa.jpg,sunabzjxlmkwnwzimua.jpg,,,<,Face,,,,,1,,,,,,,x
355,3,Presentation,7,00662941121fa_sunadkazmlajmohnwfl.jpg,00483940519fa_sunabyvpwkgsjtijdwj.jpg,00662941121fa.jpg,sunadkazmlajmohnwfl.jpg,00483940519fa.jpg,sunabyvpwkgsjtijdwj.jpg,,,<,Face,,,,,1,,,,,,,x
356,3,Presentation,7,00958960627fa_sunavspxmxubqaeidjt.jpg,00062931230fb_sunaaelotvjgibjtjhs.jpg,00958960627fa.jpg,sunavspxmxubqaeidjt.jpg,00062931230fb.jpg,sunaaelotvjgibjtjhs.jpg,,,<,Face,,,,,1,,,,,,,o
357,3,Presentation,7,01005960627fa_sunbwyuesflwdpqtgoy.jpg,00750941201fa_sunaeuzwggvibufclwf.jpg,01005960627fa.jpg,sunbwyuesflwdpqtgoy.jpg,00750941201fa.jpg,sunaeuzwggvibufclwf.jpg,,,<,Face,,,,,1,,,,,,,x
358,3,Presentation,7,00063931230fa_sunaaelyvurpntclgau.jpg,00909960530_sunaobtizabegtwfwul.jpg,00063931230fa.jpg,sunaaelyvurpntclgau.jpg,00909960530.jpg,sunaobtizabegtwfwul.jpg,,,<,Face,,,,,1,,,,,,,o
359,3,Presentation,7,00316940422fa_sunabxmguapjekttvwm.jpg,01007960627fa_sunbxarcshsnqsefemx.jpg,00316940422fa.jpg,sunabxmguapjekttvwm.jpg,01007960627fa.jpg,sunbxarcshsnqsefemx.jpg,,,<,Face,,,,,1,,,,,,,o
360,3,Memory,7,,,,,,,sunagtumacdlmciqamz.jpg,,,,,,,,,,,,,,,
361,3,Memory,7,,,,,,,00662941121fa.jpg,,,,,,,,,,,,,,,
362,3,Memory,7,,,,,,,01007960627fa.jpg,,,,,,,,,,,,,,,
363,3,Memory,7,,,,,,,00122931230fa.jpg,,,,,,,,,,,,,,,
364,3,Memory,7,,,,,,,00062931230fb.jpg,,,,,,,,,,,,,,,
365,3,Memory,7,,,,,,,00750941201fa.jpg,,,,,,,,,,,,,,,
366,3,Memory,7,,,,,,,00866940307fa.jpg,,,,,,,,,,,,,,,
367,3,Memory,7,,,,,,,01005960627fa.jpg,,,,,,,,,,,,,,,
368,3,Memory,7,,,,,,,sunacycdoztxoluxjyk.jpg,,,,,,,,,,,,,,,
369,3,Memory,7,,,,,,,suncnkvbhypnivcohyx.jpg,,,,,,,,,,,,,,,
370,3,Memory,7,,,,,,,sunahbvlpavurqoxdeq.jpg,,,,,,,,,,,,,,,
371,3,Memory,7,,,,,,,00870940307fa.jpg,,,,,,,,,,,,,,,
372,3,Memory,7,,,,,,,sunavspxmxubqaeidjt.jpg,,,,,,,,,,,,,,,
373,3,Memory,7,,,,,,,sunaivflshbyfrfzhqb.jpg,,,,,,,,,,,,,,,
374,3,Memory,7,,,,,,,sunbwyuesflwdpqtgoy.jpg,,,,,,,,,,,,,,,
375,3,Memory,7,,,,,,,00851940307fa.jpg,,,,,,,,,,,,,,,
376,3,Memory,7,,,,,,,sunadkazmlajmohnwfl.jpg,,,,,,,,,,,,,,,
377,3,Memory,7,,,,,,,sunaanlwnpqndclffxt.jpg,,,,,,,,,,,,,,,
378,3,Memory,7,,,,,,,00609940928fa.jpg,,,,,,,,,,,,,,,
379,3,Memory,7,,,,,,,sunajbwkywmsqkldfml.jpg,,,,,,,,,,,,,,,
380,3,Memory,7,,,,,,,sunaafjszryxyavjzln.jpg,,,,,,,,,,,,,,,
381,3,Memory,7,,,,,,,01009960627fa.jpg,,,,,,,,,,,,,,,
382,3,Memory,7,,,,,,,sunapqwnqzxlsfvgsjm.jpg,,,,,,,,,,,,,,,
383,3,Memory,7,,,,,,,sunbxzweleltykebgan.jpg,,,,,,,,,,,,,,,
384,3,Memory,7,,,,,,,00809960620fa.jpg,,,,,,,,,,,,,,,
385,3,Memory,7,,,,,,,00080931230fb.jpg,,,,,,,,,,,,,,,
386,3,Memory,7,,,,,,,sunaakxjfbrrequcjmx.jpg,,,,,,,,,,,,,,,
387,3,Memory,7,,,,,,,sunajrgtewnualfcerj.jpg,,,,,,,,,,,,,,,
388,3,Memory,7,,,,,,,sunarceibpcyacbmfga.jpg,,,,,,,,,,,,,,,
389,3,Memory,7,,,,,,,sunaaelotvjgibjtjhs.jpg,,,,,,,,,,,,,,,
390,3,Memory,7,,,,,,,00939960627fa.jpg,,,,,,,,,,,,,,,
391,3,Memory,7,,,,,,,00133931230fa.jpg,,,,,,,,,,,,,,,
392,3,Memory,7,,,,,,,00987960627fa.jpg,,,,,,,,,,,,,,,
393,3,Memory,7,,,,,,,sunaeuzwggvibufclwf.jpg,,,,,,,,,,,,,,,
394,3,Memory,7,,,,,,,00795941205fa.jpg,,,,,,,,,,,,,,,
395,3,Memory,7,,,,,,,sunbxarcshsnqsefemx.jpg,,,,,,,,,,,,,,,
396,3,Memory,7,,,,,,,01010960627fa.jpg,,,,,,,,,,,,,,,
397,3,Memory,7,,,,,,,sunbloeoiozwjjsiamp.jpg,,,,,,,,,,,,,,,
398,3,Memory,7,,,,,,,00958960627fa.jpg,,,,,,,,,,,,,,,
399,3,Memory,7,,,,,,,00925960627fa.jpg,,,,,,,,,,,,,,,
