,Subject,Trial Type,Run,Cued Composite,Uncued Composite,Cued Face,Cued Place,Uncued Face,Uncued Place,Memory Image,Category,Cued Side,Cued Category,Attention Reaction Time (s),Familiarity Reaction Time (s),Familiarity Rating,Attention Level,Cue Validity,Post Invalid Cue,Pre Invalid Cue,Attention Button,Rating History,Stimulus Onset,Stimulus End,Attention Probe
160,17,Memory,3,,,,,,,00900960530fa.jpg,,,,,1.908,2.0,,,,,,,1539204884.99415,1539204887.514956,
161,17,Memory,3,,,,,,,00676941121fa.jpg,,,,,0.861,2.0,,,,,,,1539204888.829814,1539204891.057308,
162,17,Memory,3,,,,,,,sunaooffzffbhcpirmm.jpg,,,,,1.293,3.0,,,,,,,1539204892.363641,1539204894.659632,
163,17,Memory,3,,,,,,,sunaejnvnpltdmhbcsi.jpg,,,,,1.177,1.0,,,,,,,1539204895.9478,1539204898.214813,
164,17,Memory,3,,,,,,,00933960627fa.jpg,,,,,1.359,3.0,,,,,,,1539204899.498976,1539204901.883938,
165,17,Memory,3,,,,,,,00862940307fa.jpg,,,,,0.951,2.0,,,,,,,1539204903.149719,1539204905.433905,
166,17,Memory,3,,,,,,,sunagdzlvkqtpnfxfcg.jpg,,,,,1.16,2.0,,,,,,,1539204906.717555,1539204909.085455,
167,17,Memory,3,,,,,,,00815941205fa.jpg,,,,,1.61,2.0,,,,,,,1539204910.369291,1539204912.556,
168,17,Memory,3,,,,,,,sunaahedjlmtqekgyvj.jpg,,,,,1.204,3.0,,,,,,,1539204913.837626,1539204915.919705,
169,17,Memory,3,,,,,,,00554940519fa.jpg,,,,,1.075,2.0,,,,,,,1539204917.205073,1539204919.367343,
170,17,Memory,3,,,,,,,sunahiphsekjihkafsl.jpg,,,,,1.294,1.0,,,,,,,1539204920.639832,1539204923.002741,
171,17,Memory,3,,,,,,,00787960620fa.jpg,,,,,0.822,2.0,,,,,,,1539204924.274373,1539204926.406694,
172,17,Memory,3,,,,,,,sunaamvxnvouicstkjb.jpg,,,,,1.61,2.0,,,,,,,1539204927.675513,1539204929.793738,
173,17,Memory,3,,,,,,,sunabgfhvifeijihhjw.jpg,,,,,0.728,2.0,,,,,,,1539204931.093402,1539204933.38036,
174,17,Memory,3,,,,,,,00294940422fb.jpg,,,,,0.96,3.0,,,,,,,1539204934.676734,1539204937.023901,
175,17,Memory,3,,,,,,,00130931230fa.jpg,,,,,1.761,2.0,,,,,,,1539204938.323387,1539204940.844976,
176,17,Memory,3,,,,,,,sunacfdkbsrughwqwtt.jpg,,,,,1.727,4.0,,,,,,,1539204942.095995,1539204945.00923,
177,17,Memory,3,,,,,,,00784941205fb.jpg,,,,,0.97,2.0,,,,,,,1539204946.280648,1539204948.327104,
178,17,Memory,3,,,,,,,sunbbxkanhzjgbwyxqs.jpg,,,,,1.076,2.0,,,,,,,1539204949.615605,1539204951.799713,
179,17,Memory,3,,,,,,,00751960620fa.jpg,,,,,1.409,2.0,,,,,,,1539204953.083638,1539204955.378498,
180,17,Memory,3,,,,,,,sunaajtnvzzpsjdzres.jpg,,,,,1.143,3.0,,,,,,,1539204956.634144,1539204958.833315,
181,17,Memory,3,,,,,,,00093931230fa.jpg,,,,,1.669,1.0,,,,,,,1539204960.118641,1539204962.252762,
182,17,Memory,3,,,,,,,00108960530fa.jpg,,,,,1.241,1.0,,,,,,,1539204963.519768,1539204965.805654,
183,17,Memory,3,,,,,,,sunaahwnmtqsrhocysw.jpg,,,,,1.494,3.0,,,,,,,1539204967.08785,1539204969.233807,
184,17,Memory,3,,,,,,,sunaezuszgtxnmsxdbk.jpg,,,,,0.935,2.0,,,,,,,1539204970.505042,1539204972.852331,
185,17,Memory,3,,,,,,,sunaeutbrtswvsozxyk.jpg,,,,,1.333,1.0,,,,,,,1539204974.123491,1539204976.389295,
186,17,Memory,3,,,,,,,sunaizgnnplsvajzhkc.jpg,,,,,0.925,1.0,,,,,,,1539204977.653727,1539204979.94081,
187,17,Memory,3,,,,,,,sunabrlndkruqokhury.jpg,,,,,1.877,3.0,,,,,,,1539204981.225622,1539204983.528544,
188,17,Memory,3,,,,,,,00728941205fa.jpg,,,,,0.949,2.0,,,,,,,1539204984.793755,1539204986.873164,
189,17,Memory,3,,,,,,,sunamlotskmmsjeogby.jpg,,,,,0.973,2.0,,,,,,,1539204988.145398,1539204990.290708,
190,17,Memory,3,,,,,,,00977960627fa.jpg,,,,,1.41,2.0,,,,,,,1539204991.578801,1539204994.0314,
191,17,Memory,3,,,,,,,00779941205fa.jpg,,,,,1.611,2.0,,,,,,,1539204995.308597,1539204997.676593,
192,17,Memory,3,,,,,,,sunapwjkcxdaeqehfql.jpg,,,,,1.524,2.0,,,,,,,1539204998.964462,1539205001.402695,
193,17,Memory,3,,,,,,,00913960530fa.jpg,,,,,1.425,2.0,,,,,,,1539205002.665825,1539205004.898797,
194,17,Memory,3,,,,,,,sunagjzcrjvmxzqzljx.jpg,,,,,1.761,3.0,,,,,,,1539205006.199943,1539205008.551425,
195,17,Memory,3,,,,,,,00260940128fa.jpg,,,,,1.01,3.0,,,,,,,1539205009.852665,1539205012.219639,
196,17,Memory,3,,,,,,,sunagoufulkpsxrmklt.jpg,,,,,1.608,2.0,,,,,,,1539205013.486455,1539205016.122748,
197,17,Memory,3,,,,,,,00090931230fa.jpg,,,,,0.594,2.0,,,,,,,1539205017.420597,1539205019.785766,
198,17,Memory,3,,,,,,,00747941201fa.jpg,,,,,0.884,2.0,,,,,,,1539205021.055572,1539205023.085004,
199,17,Memory,3,,,,,,,sunadpnqovzckyikrjo.jpg,,,,,0.817,2.0,,,,,,,1539205024.373161,1539205026.551591,
