,Subject,Trial Type,Run,Cued Composite,Uncued Composite,Cued Face,Cued Place,Uncued Face,Uncued Place,Memory Image,Category,Cued Side,Cued Category,Attention Reaction Time (s),Familiarity Reaction Time (s),Familiarity Rating,Attention Level,Cue Validity,Post Invalid Cue,Pre Invalid Cue,Attention Button,Rating History,Stimulus Onset,Stimulus End,Attention Probe
260,31,Memory,5,,,,,,,sunadikxpvqeabxrvvc.jpg,,,,,1.105,1.0,,,,,,,1540148319.1387,1540148321.756862,
261,31,Memory,5,,,,,,,sunadflbrkckmepztql.jpg,,,,,0.654,1.0,,,,,,,1540148323.206093,1540148325.541063,
262,31,Memory,5,,,,,,,00647941031fa.jpg,,,,,1.236,2.0,,,,,,,1540148326.908355,1540148329.257163,
263,31,Memory,5,,,,,,,00720960620fa.jpg,,,,,1.403,3.0,,,,,,,1540148330.676325,1540148333.059304,
264,31,Memory,5,,,,,,,sunacvbrcejzwmcgnoq.jpg,,,,,1.186,1.0,,,,,,,1540148334.42537,1540148336.877749,
265,31,Memory,5,,,,,,,00061931230fb.jpg,,,,,0.769,1.0,,,,,,,1540148338.261007,1540148340.64568,
266,31,Memory,5,,,,,,,sunavhxgmgrqsaptynb.jpg,,,,,0.869,1.0,,,,,,,1540148342.061775,1540148344.413053,
267,31,Memory,5,,,,,,,sunaaekxzjzrfgtkwjf.jpg,,,,,0.853,1.0,,,,,,,1540148345.848187,1540148348.197533,
268,31,Memory,5,,,,,,,sunahpblecxtmuzkmxb.jpg,,,,,0.737,1.0,,,,,,,1540148349.648525,1540148351.999428,
269,31,Memory,5,,,,,,,00957960627fa.jpg,,,,,1.234,1.0,,,,,,,1540148353.449828,1540148355.851121,
270,31,Memory,5,,,,,,,sunafvwfsmqkjrutjta.jpg,,,,,1.2,1.0,,,,,,,1540148357.384733,1540148359.885364,
271,31,Memory,5,,,,,,,sunaangbuylfvckqqoo.jpg,,,,,1.553,1.0,,,,,,,1540148361.319177,1540148363.785448,
272,31,Memory,5,,,,,,,00314940422fa.jpg,,,,,1.137,4.0,,,,,,,1540148365.18671,1540148367.520329,
273,31,Memory,5,,,,,,,sunabppokiyglaxpcha.jpg,,,,,1.002,1.0,,,,,,,1540148368.937798,1540148371.305666,
274,31,Memory,5,,,,,,,sunapqwnqzxlsfvgsjm.jpg,,,,,1.07,1.0,,,,,,,1540148372.755091,1540148375.22279,
275,31,Memory,5,,,,,,,00750941201fa.jpg,,,,,1.87,2.0,,,,,,,1540148376.6408,1540148378.97431,
276,31,Memory,5,,,,,,,00115931230fa.jpg,,,,,1.287,1.0,,,,,,,1540148380.375129,1540148382.775416,
277,31,Memory,5,,,,,,,sunahmhrncocyhsjpxk.jpg,,,,,0.935,1.0,,,,,,,1540148384.22565,1540148386.62776,
278,31,Memory,5,,,,,,,00766960620fa.jpg,,,,,0.97,1.0,,,,,,,1540148388.111502,1540148390.696395,
279,31,Memory,5,,,,,,,00650941031fa.jpg,,,,,1.086,1.0,,,,,,,1540148392.129728,1540148394.529114,
280,31,Memory,5,,,,,,,sunajbwkywmsqkldfml.jpg,,,,,0.952,1.0,,,,,,,1540148395.948311,1540148398.246809,
281,31,Memory,5,,,,,,,sunaeuzwggvibufclwf.jpg,,,,,0.855,1.0,,,,,,,1540148399.6642,1540148401.998738,
282,31,Memory,5,,,,,,,00131931230fb.jpg,,,,,1.036,1.0,,,,,,,1540148403.481372,1540148405.8676,
283,31,Memory,5,,,,,,,sunafijbgncijwykrnl.jpg,,,,,1.484,1.0,,,,,,,1540148407.351468,1540148409.767948,
284,31,Memory,5,,,,,,,sunaisiwfgppimtnmxl.jpg,,,,,1.236,1.0,,,,,,,1540148411.135865,1540148413.619901,
285,31,Memory,5,,,,,,,00818940307fa.jpg,,,,,1.487,2.0,,,,,,,1540148415.053031,1540148417.536771,
286,31,Memory,5,,,,,,,sunaecpkgfewqqreqwe.jpg,,,,,1.103,1.0,,,,,,,1540148418.970565,1540148421.338646,
287,31,Memory,5,,,,,,,00866940307fa.jpg,,,,,1.336,3.0,,,,,,,1540148422.722828,1540148425.171751,
288,31,Memory,5,,,,,,,00841940307fa.jpg,,,,,1.2,2.0,,,,,,,1540148426.623728,1540148429.307954,
289,31,Memory,5,,,,,,,00092931230fa.jpg,,,,,1.304,1.0,,,,,,,1540148430.825135,1540148433.192431,
290,31,Memory,5,,,,,,,00288940422fa.jpg,,,,,1.255,1.0,,,,,,,1540148434.593511,1540148437.128385,
291,31,Memory,5,,,,,,,sunabwmcbaxwioksdgw.jpg,,,,,0.7,1.0,,,,,,,1540148438.560443,1540148440.995107,
292,31,Memory,5,,,,,,,00775941205fa.jpg,,,,,0.803,1.0,,,,,,,1540148442.428229,1540148444.69522,
293,31,Memory,5,,,,,,,00574940928fa.jpg,,,,,1.151,1.0,,,,,,,1540148446.047019,1540148448.530999,
294,31,Memory,5,,,,,,,00816941205fa.jpg,,,,,1.038,1.0,,,,,,,1540148450.013552,1540148452.414397,
295,31,Memory,5,,,,,,,sunaakmxzhuceuiryah.jpg,,,,,1.136,1.0,,,,,,,1540148453.814631,1540148456.150484,
296,31,Memory,5,,,,,,,sunaaheqzstzxuadglu.jpg,,,,,0.867,1.0,,,,,,,1540148457.599826,1540148460.100917,
297,31,Memory,5,,,,,,,00313940422fa.jpg,,,,,0.921,1.0,,,,,,,1540148461.569343,1540148464.218769,
298,31,Memory,5,,,,,,,sunabwjvmoaddlyxfjr.jpg,,,,,1.404,1.0,,,,,,,1540148465.603557,1540148468.104313,
299,31,Memory,5,,,,,,,00925960627fa.jpg,,,,,1.286,4.0,,,,,,,1540148469.571019,1540148471.972161,
