,Subject,Trial Type,Run,Cued Composite,Uncued Composite,Cued Face,Cued Place,Uncued Face,Uncued Place,Memory Image,Category,Cued Side,Cued Category,Attention Reaction Time (s),Familiarity Reaction Time (s),Familiarity Rating,Attention Level,Cue Validity,Post Invalid Cue,Pre Invalid Cue,Attention Button,Rating History,Stimulus Onset,Stimulus End,Attention Probe
0,20,Presentation,0,00778941205fa_sunagcthdfirrcawoic.jpg,00807941205fa_sunahawfngukizslzsd.jpg,00778941205fa.jpg,sunagcthdfirrcawoic.jpg,00807941205fa.jpg,sunahawfngukizslzsd.jpg,,,>,Face,,,,,1,,,,,,,x
1,20,Presentation,0,00648941031fa_sunadfndyrtqqiasoig.jpg,00793941205fa_sunagtjwilqjvxohypn.jpg,00648941031fa.jpg,sunadfndyrtqqiasoig.jpg,00793941205fa.jpg,sunagtjwilqjvxohypn.jpg,,,<,Face,,,,,1,,,,,,,o
2,20,Presentation,0,00979960627fa_sunbdycacjfaujxitbw.jpg,00267940128fb_sunablfqiwfqomjarht.jpg,00979960627fa.jpg,sunbdycacjfaujxitbw.jpg,00267940128fb.jpg,sunablfqiwfqomjarht.jpg,,,>,Place,,,,,1,,,,,,,x
3,20,Presentation,0,00763941205fa_sunafhmnhsdurlvddpw.jpg,00211940128fa_sunabasphceswhwwqvv.jpg,00763941205fa.jpg,sunafhmnhsdurlvddpw.jpg,00211940128fa.jpg,sunabasphceswhwwqvv.jpg,,,>,Place,,,,,1,,,,,,,x
4,20,Presentation,0,00894960620fa_sunalqmfgeadpqsyzpd.jpg,00102931230fa_sunaajspcoepticvplv.jpg,00894960620fa.jpg,sunalqmfgeadpqsyzpd.jpg,00102931230fa.jpg,sunaajspcoepticvplv.jpg,,,>,Place,,,,,1,,,,,,,x
5,20,Presentation,0,00891960530fa_sunalkiibhqpxfamlll.jpg,00562941031fa_sunacjnahdmqfnjfwqx.jpg,00891960530fa.jpg,sunalkiibhqpxfamlll.jpg,00562941031fa.jpg,sunacjnahdmqfnjfwqx.jpg,,,<,Place,,,,,1,,,,,,,o
6,20,Presentation,0,00636941031fa_sunaddtdkycxbqlpfqa.jpg,00694941121fa_sunadrmfzmstgdjdcod.jpg,00636941031fa.jpg,sunaddtdkycxbqlpfqa.jpg,00694941121fa.jpg,sunadrmfzmstgdjdcod.jpg,,,<,Face,,,,,1,,,,,,,o
7,20,Presentation,0,00308940422fb_sunabwfvcqqidycwypa.jpg,00922960627fa_sunapqkyghktgtosuuk.jpg,00308940422fb.jpg,sunabwfvcqqidycwypa.jpg,00922960627fa.jpg,sunapqkyghktgtosuuk.jpg,,,>,Face,,,,,1,,,,,,,o
8,20,Presentation,0,00788941205fa_sunagountlxpzkytsmp.jpg,00090931230fa_sunaahedjlmtqekgyvj.jpg,00788941205fa.jpg,sunagountlxpzkytsmp.jpg,00090931230fa.jpg,sunaahedjlmtqekgyvj.jpg,,,<,Face,,,,,1,,,,,,,o
9,20,Presentation,0,00242940128fa_sunabcuurugvxwparpk.jpg,00294940422fb_sunabrlndkruqokhury.jpg,00242940128fa.jpg,sunabcuurugvxwparpk.jpg,00294940422fb.jpg,sunabrlndkruqokhury.jpg,,,<,Place,,,,,1,,,,,,,x
10,20,Memory,0,,,,,,,sunabxmguapjekttvwm.jpg,,,,,,,,,,,,,,,
11,20,Memory,0,,,,,,,00967960627fa.jpg,,,,,,,,,,,,,,,
12,20,Memory,0,,,,,,,sunaibnpvhkdpdnzcnz.jpg,,,,,,,,,,,,,,,
13,20,Memory,0,,,,,,,sunaajspcoepticvplv.jpg,,,,,,,,,,,,,,,
14,20,Memory,0,,,,,,,00562941031fa.jpg,,,,,,,,,,,,,,,
15,20,Memory,0,,,,,,,00316940422fa.jpg,,,,,,,,,,,,,,,
16,20,Memory,0,,,,,,,00675941121fa.jpg,,,,,,,,,,,,,,,
17,20,Memory,0,,,,,,,sunafhmnhsdurlvddpw.jpg,,,,,,,,,,,,,,,
18,20,Memory,0,,,,,,,00761960627fa.jpg,,,,,,,,,,,,,,,
19,20,Memory,0,,,,,,,00751960620fa.jpg,,,,,,,,,,,,,,,
20,20,Memory,0,,,,,,,00922960627fa.jpg,,,,,,,,,,,,,,,
21,20,Memory,0,,,,,,,sunacjnahdmqfnjfwqx.jpg,,,,,,,,,,,,,,,
22,20,Memory,0,,,,,,,00302940422fa.jpg,,,,,,,,,,,,,,,
23,20,Memory,0,,,,,,,sunabtlfmiwtljmoues.jpg,,,,,,,,,,,,,,,
24,20,Memory,0,,,,,,,sunapqkyghktgtosuuk.jpg,,,,,,,,,,,,,,,
25,20,Memory,0,,,,,,,sunabwfvcqqidycwypa.jpg,,,,,,,,,,,,,,,
26,20,Memory,0,,,,,,,00620940928fa.jpg,,,,,,,,,,,,,,,
27,20,Memory,0,,,,,,,sunacypmnujalygkunp.jpg,,,,,,,,,,,,,,,
28,20,Memory,0,,,,,,,00308940422fb.jpg,,,,,,,,,,,,,,,
29,20,Memory,0,,,,,,,sunadoxcchtmsxewsau.jpg,,,,,,,,,,,,,,,
30,20,Memory,0,,,,,,,00648941031fa.jpg,,,,,,,,,,,,,,,
31,20,Memory,0,,,,,,,sunagountlxpzkytsmp.jpg,,,,,,,,,,,,,,,
32,20,Memory,0,,,,,,,00694941121fa.jpg,,,,,,,,,,,,,,,
33,20,Memory,0,,,,,,,sunaaeplwsfslcbtojr.jpg,,,,,,,,,,,,,,,
34,20,Memory,0,,,,,,,sunagtjwilqjvxohypn.jpg,,,,,,,,,,,,,,,
35,20,Memory,0,,,,,,,sunabcfpwlpolnutyju.jpg,,,,,,,,,,,,,,,
36,20,Memory,0,,,,,,,00891960530fa.jpg,,,,,,,,,,,,,,,
37,20,Memory,0,,,,,,,sunalkiibhqpxfamlll.jpg,,,,,,,,,,,,,,,
38,20,Memory,0,,,,,,,00788941205fa.jpg,,,,,,,,,,,,,,,
39,20,Memory,0,,,,,,,00070940307fa.jpg,,,,,,,,,,,,,,,
40,20,Memory,0,,,,,,,00102931230fa.jpg,,,,,,,,,,,,,,,
41,20,Memory,0,,,,,,,00763941205fa.jpg,,,,,,,,,,,,,,,
42,20,Memory,0,,,,,,,00793941205fa.jpg,,,,,,,,,,,,,,,
43,20,Memory,0,,,,,,,sunbaejotfklekvpxcz.jpg,,,,,,,,,,,,,,,
44,20,Memory,0,,,,,,,sunadrmfzmstgdjdcod.jpg,,,,,,,,,,,,,,,
45,20,Memory,0,,,,,,,sunafgdqbclkwfocdhg.jpg,,,,,,,,,,,,,,,
46,20,Memory,0,,,,,,,sunadfndyrtqqiasoig.jpg,,,,,,,,,,,,,,,
47,20,Memory,0,,,,,,,00834940307fa.jpg,,,,,,,,,,,,,,,
48,20,Memory,0,,,,,,,sunaezuszgtxnmsxdbk.jpg,,,,,,,,,,,,,,,
49,20,Memory,0,,,,,,,00221940128fa.jpg,,,,,,,,,,,,,,,
50,20,Presentation,1,00263940128fb_sunabjuovqvyfuzvqwt.jpg,00140931230fb_sunaapllqyqlykszopd.jpg,00263940128fb.jpg,sunabjuovqvyfuzvqwt.jpg,00140931230fb.jpg,sunaapllqyqlykszopd.jpg,,,<,Face,,,,,1,,,,,,,x
51,20,Presentation,1,00218940128fa_sunabbwggenhfbftyvi.jpg,00997960627fa_sunbtpilbhhbmhmeuzq.jpg,00218940128fa.jpg,sunabbwggenhfbftyvi.jpg,00997960627fa.jpg,sunbtpilbhhbmhmeuzq.jpg,,,<,Face,,,,,1,,,,,,,o
52,20,Presentation,1,00742941201fa_sunaenwuebvlpdmntju.jpg,00838940307fa_sunaiozxhxgtfrmoagh.jpg,00742941201fa.jpg,sunaenwuebvlpdmntju.jpg,00838940307fa.jpg,sunaiozxhxgtfrmoagh.jpg,,,<,Place,,,,,1,,,,,,,x
53,20,Presentation,1,00540940519fa_sunacdnquypmsshhsbk.jpg,00996960627fa_sunbpvgllfdejxcpjqp.jpg,00540940519fa.jpg,sunacdnquypmsshhsbk.jpg,00996960627fa.jpg,sunbpvgllfdejxcpjqp.jpg,,,<,Place,,,,,1,,,,,,,o
54,20,Presentation,1,00096931230fa_sunaaiqiqcggrskoqgy.jpg,00947960627fa_sunasmmcxdddtmtazwx.jpg,00096931230fa.jpg,sunaaiqiqcggrskoqgy.jpg,00947960627fa.jpg,sunasmmcxdddtmtazwx.jpg,,,<,Face,,,,,1,,,,,,,o
55,20,Presentation,1,01005960627fa_sunbwyuesflwdpqtgoy.jpg,00719960620fa_sunadzuvtmtmgupotmf.jpg,01005960627fa.jpg,sunbwyuesflwdpqtgoy.jpg,00719960620fa.jpg,sunadzuvtmtmgupotmf.jpg,,,>,Place,,,,,1,,,,,,,o
56,20,Presentation,1,00266940128fb_sunabkngeblodihjvbk.jpg,00909960530_sunaobtizabegtwfwul.jpg,00266940128fb.jpg,sunabkngeblodihjvbk.jpg,00909960530.jpg,sunaobtizabegtwfwul.jpg,,,>,Face,,,,,1,,,,,,,x
57,20,Presentation,1,00670941121fa_sunadochqcucscehsgk.jpg,00773960620fa_sunafvsxtzaizojicxx.jpg,00670941121fa.jpg,sunadochqcucscehsgk.jpg,00773960620fa.jpg,sunafvsxtzaizojicxx.jpg,,,>,Face,,,,,1,,,,,,,x
58,20,Presentation,1,00786941205fa_sunagmhildamktmqjss.jpg,00197940128fa_sunaaylzyqlqrsmfwif.jpg,00786941205fa.jpg,sunagmhildamktmqjss.jpg,00197940128fa.jpg,sunaaylzyqlqrsmfwif.jpg,,,>,Place,,,,,1,,,,,,,o
59,20,Presentation,1,00828940307fa_sunahuynahneraqftyz.jpg,00985960627fa_sunbgklxeqjhdbyfhhy.jpg,00828940307fa.jpg,sunahuynahneraqftyz.jpg,00985960627fa.jpg,sunbgklxeqjhdbyfhhy.jpg,,,>,Place,,,,,1,,,,,,,x
60,20,Memory,1,,,,,,,sunaiozxhxgtfrmoagh.jpg,,,,,,,,,,,,,,,
61,20,Memory,1,,,,,,,sunbtpilbhhbmhmeuzq.jpg,,,,,,,,,,,,,,,
62,20,Memory,1,,,,,,,sunahqldjibofgsfdgb.jpg,,,,,,,,,,,,,,,
63,20,Memory,1,,,,,,,00828940307fa.jpg,,,,,,,,,,,,,,,
64,20,Memory,1,,,,,,,sunaooaqzputrowwbsw.jpg,,,,,,,,,,,,,,,
65,20,Memory,1,,,,,,,sunadvithllcgmfxsrn.jpg,,,,,,,,,,,,,,,
66,20,Memory,1,,,,,,,00576941031fa.jpg,,,,,,,,,,,,,,,
67,20,Memory,1,,,,,,,00543940519fa.jpg,,,,,,,,,,,,,,,
68,20,Memory,1,,,,,,,00662941121fa.jpg,,,,,,,,,,,,,,,
69,20,Memory,1,,,,,,,00773960620fa.jpg,,,,,,,,,,,,,,,
70,20,Memory,1,,,,,,,00719941201fa.jpg,,,,,,,,,,,,,,,
71,20,Memory,1,,,,,,,00985960627fa.jpg,,,,,,,,,,,,,,,
72,20,Memory,1,,,,,,,00126931230fb.jpg,,,,,,,,,,,,,,,
73,20,Memory,1,,,,,,,sunaeuzwggvibufclwf.jpg,,,,,,,,,,,,,,,
74,20,Memory,1,,,,,,,sunafvsxtzaizojicxx.jpg,,,,,,,,,,,,,,,
75,20,Memory,1,,,,,,,sunacvjlsylseoghjup.jpg,,,,,,,,,,,,,,,
76,20,Memory,1,,,,,,,00997960627fa.jpg,,,,,,,,,,,,,,,
77,20,Memory,1,,,,,,,00996960627fa.jpg,,,,,,,,,,,,,,,
78,20,Memory,1,,,,,,,sunahuynahneraqftyz.jpg,,,,,,,,,,,,,,,
79,20,Memory,1,,,,,,,sunbgklxeqjhdbyfhhy.jpg,,,,,,,,,,,,,,,
80,20,Memory,1,,,,,,,00838940307fa.jpg,,,,,,,,,,,,,,,
81,20,Memory,1,,,,,,,sunacepzfrmtkiqonpy.jpg,,,,,,,,,,,,,,,
82,20,Memory,1,,,,,,,sunaajpqmulidejvjsr.jpg,,,,,,,,,,,,,,,
83,20,Memory,1,,,,,,,00670941121fa.jpg,,,,,,,,,,,,,,,
84,20,Memory,1,,,,,,,sunadochqcucscehsgk.jpg,,,,,,,,,,,,,,,
85,20,Memory,1,,,,,,,sunadkazmlajmohnwfl.jpg,,,,,,,,,,,,,,,
86,20,Memory,1,,,,,,,00911960530fa.jpg,,,,,,,,,,,,,,,
87,20,Memory,1,,,,,,,sunabbwggenhfbftyvi.jpg,,,,,,,,,,,,,,,
88,20,Memory,1,,,,,,,00983960627fa.jpg,,,,,,,,,,,,,,,
89,20,Memory,1,,,,,,,00819940307fa.jpg,,,,,,,,,,,,,,,
90,20,Memory,1,,,,,,,00098931230fa.jpg,,,,,,,,,,,,,,,
91,20,Memory,1,,,,,,,sunbpvgllfdejxcpjqp.jpg,,,,,,,,,,,,,,,
92,20,Memory,1,,,,,,,sunbfyvfqiimvdaxlqn.jpg,,,,,,,,,,,,,,,
93,20,Memory,1,,,,,,,00750941201fa.jpg,,,,,,,,,,,,,,,
94,20,Memory,1,,,,,,,sunaamdjwemxpmmtypi.jpg,,,,,,,,,,,,,,,
95,20,Memory,1,,,,,,,01005960627fa.jpg,,,,,,,,,,,,,,,
96,20,Memory,1,,,,,,,sunaaiqiqcggrskoqgy.jpg,,,,,,,,,,,,,,,
97,20,Memory,1,,,,,,,00096931230fa.jpg,,,,,,,,,,,,,,,
98,20,Memory,1,,,,,,,sunbwyuesflwdpqtgoy.jpg,,,,,,,,,,,,,,,
99,20,Memory,1,,,,,,,00218940128fa.jpg,,,,,,,,,,,,,,,
100,20,Presentation,2,00787941205fa_sunagmwxxwymwojbvgi.jpg,00957960627fa_sunavhxgmgrqsaptynb.jpg,00787941205fa.jpg,sunagmwxxwymwojbvgi.jpg,00957960627fa.jpg,sunavhxgmgrqsaptynb.jpg,,,<,Face,,,,,1,,,,,,,x
101,20,Presentation,2,00914960620fa_sunaozisvwfbmlkfhzv.jpg,00145931230fb_sunaatjesvdupctftmn.jpg,00914960620fa.jpg,sunaozisvwfbmlkfhzv.jpg,00145931230fb.jpg,sunaatjesvdupctftmn.jpg,,,>,Face,,,,,0,,,,,,,x
102,20,Presentation,2,00505960627fa_sunabzuqsrgcsonqlkz.jpg,01009960627fa_sunbxzweleltykebgan.jpg,00505960627fa.jpg,sunabzuqsrgcsonqlkz.jpg,01009960627fa.jpg,sunbxzweleltykebgan.jpg,,,<,Place,,,,,1,,,,,,,o
103,20,Presentation,2,00902960530fa_sunanaacmmosxrfwmvl.jpg,01207940128fa_sundbixjudsgeuuehrn.jpg,00902960530fa.jpg,sunanaacmmosxrfwmvl.jpg,01207940128fa.jpg,sundbixjudsgeuuehrn.jpg,,,<,Face,,,,,1,,,,,,,x
104,20,Presentation,2,00753941201fa_sunafcofuuzebuadceo.jpg,00239940128fa_sunabctlikybqabezjv.jpg,00753941201fa.jpg,sunafcofuuzebuadceo.jpg,00239940128fa.jpg,sunabctlikybqabezjv.jpg,,,>,Face,,,,,1,,,,,,,x
105,20,Presentation,2,00730960620fa_sunaekgzpfilgjxpeyq.jpg,00789960620fa_sunagpancjmxqfazssf.jpg,00730960620fa.jpg,sunaekgzpfilgjxpeyq.jpg,00789960620fa.jpg,sunagpancjmxqfazssf.jpg,,,>,Place,,,,,1,,,,,,,o
106,20,Presentation,2,00290940422fa_sunabqowuarvqqcnipn.jpg,00809960620fa_sunahbvlpavurqoxdeq.jpg,00290940422fa.jpg,sunabqowuarvqqcnipn.jpg,00809960620fa.jpg,sunahbvlpavurqoxdeq.jpg,,,<,Place,,,,,1,,,,,,,x
107,20,Presentation,2,00744941201fa_sunaeomlfaabhpswasy.jpg,00864940307fa_sunajawzbrlrwafowen.jpg,00744941201fa.jpg,sunaeomlfaabhpswasy.jpg,00864940307fa.jpg,sunajawzbrlrwafowen.jpg,,,>,Face,,,,,1,,,,,,,o
108,20,Presentation,2,00754941201fa_sunaffgsyyvoqdlkmnk.jpg,00142931230fb_sunaapxkpvrhpjplsok.jpg,00754941201fa.jpg,sunaffgsyyvoqdlkmnk.jpg,00142931230fb.jpg,sunaapxkpvrhpjplsok.jpg,,,>,Place,,,,,1,,,,,,,x
109,20,Presentation,2,00185940422fb_sunaawqdbpihmlbwyyn.jpg,00498960627fa_sunabzjxlmkwnwzimua.jpg,00185940422fb.jpg,sunaawqdbpihmlbwyyn.jpg,00498960627fa.jpg,sunabzjxlmkwnwzimua.jpg,,,<,Place,,,,,1,,,,,,,x
110,20,Memory,2,,,,,,,00239940128fa.jpg,,,,,,,,,,,,,,,
111,20,Memory,2,,,,,,,00145931230fb.jpg,,,,,,,,,,,,,,,
112,20,Memory,2,,,,,,,sundbixjudsgeuuehrn.jpg,,,,,,,,,,,,,,,
113,20,Memory,2,,,,,,,01207940128fa.jpg,,,,,,,,,,,,,,,
114,20,Memory,2,,,,,,,sunaefgzwiramypjvtd.jpg,,,,,,,,,,,,,,,
115,20,Memory,2,,,,,,,sunbpflsdaxnddnwcqi.jpg,,,,,,,,,,,,,,,
116,20,Memory,2,,,,,,,00787941205fa.jpg,,,,,,,,,,,,,,,
117,20,Memory,2,,,,,,,00116931230fa.jpg,,,,,,,,,,,,,,,
118,20,Memory,2,,,,,,,00505960627fa.jpg,,,,,,,,,,,,,,,
119,20,Memory,2,,,,,,,sunaavjinpnkappuonm.jpg,,,,,,,,,,,,,,,
120,20,Memory,2,,,,,,,sunanainkqdvktzoxyl.jpg,,,,,,,,,,,,,,,
121,20,Memory,2,,,,,,,sunabaergayifsgacxt.jpg,,,,,,,,,,,,,,,
122,20,Memory,2,,,,,,,sunaffgsyyvoqdlkmnk.jpg,,,,,,,,,,,,,,,
123,20,Memory,2,,,,,,,00990960627fa.jpg,,,,,,,,,,,,,,,
124,20,Memory,2,,,,,,,00265940128fb.jpg,,,,,,,,,,,,,,,
125,20,Memory,2,,,,,,,sunaapxkpvrhpjplsok.jpg,,,,,,,,,,,,,,,
126,20,Memory,2,,,,,,,sunabmytpyhsgigllxu.jpg,,,,,,,,,,,,,,,
127,20,Memory,2,,,,,,,sunaeomlfaabhpswasy.jpg,,,,,,,,,,,,,,,
128,20,Memory,2,,,,,,,sunabzuqsrgcsonqlkz.jpg,,,,,,,,,,,,,,,
129,20,Memory,2,,,,,,,00957960627fa.jpg,,,,,,,,,,,,,,,
130,20,Memory,2,,,,,,,00568940928fa.jpg,,,,,,,,,,,,,,,
131,20,Memory,2,,,,,,,00142931230fb.jpg,,,,,,,,,,,,,,,
132,20,Memory,2,,,,,,,sunafcofuuzebuadceo.jpg,,,,,,,,,,,,,,,
133,20,Memory,2,,,,,,,sunaatjesvdupctftmn.jpg,,,,,,,,,,,,,,,
134,20,Memory,2,,,,,,,00725941201fa.jpg,,,,,,,,,,,,,,,
135,20,Memory,2,,,,,,,00744941201fa.jpg,,,,,,,,,,,,,,,
136,20,Memory,2,,,,,,,00276940422fa.jpg,,,,,,,,,,,,,,,
137,20,Memory,2,,,,,,,00754941201fa.jpg,,,,,,,,,,,,,,,
138,20,Memory,2,,,,,,,sunabctlikybqabezjv.jpg,,,,,,,,,,,,,,,
139,20,Memory,2,,,,,,,00903960620fa.jpg,,,,,,,,,,,,,,,
140,20,Memory,2,,,,,,,00209940128fb.jpg,,,,,,,,,,,,,,,
141,20,Memory,2,,,,,,,00162931230fb.jpg,,,,,,,,,,,,,,,
142,20,Memory,2,,,,,,,00915960620fa.jpg,,,,,,,,,,,,,,,
143,20,Memory,2,,,,,,,sunaakqepfoeqomfgxf.jpg,,,,,,,,,,,,,,,
144,20,Memory,2,,,,,,,sunapileznnbbmrwoei.jpg,,,,,,,,,,,,,,,
145,20,Memory,2,,,,,,,sunagmwxxwymwojbvgi.jpg,,,,,,,,,,,,,,,
146,20,Memory,2,,,,,,,sunavhxgmgrqsaptynb.jpg,,,,,,,,,,,,,,,
147,20,Memory,2,,,,,,,sunacsdhbbsybcyxnel.jpg,,,,,,,,,,,,,,,
148,20,Memory,2,,,,,,,00753941201fa.jpg,,,,,,,,,,,,,,,
149,20,Memory,2,,,,,,,sunabkmdplkdbvxriff.jpg,,,,,,,,,,,,,,,
150,20,Presentation,3,00191940128fb_sunaawsdjisukbbginm.jpg,00796941205fa_sunaguchqqnrtodtezq.jpg,00191940128fb.jpg,sunaawsdjisukbbginm.jpg,00796941205fa.jpg,sunaguchqqnrtodtezq.jpg,,,<,Place,,,,,0,,,,,,,x
151,20,Presentation,3,00227940128fa_sunabckqabszusgcykj.jpg,00794960620fa_sunagtqhhwxjeuxdebe.jpg,00227940128fa.jpg,sunabckqabszusgcykj.jpg,00794960620fa.jpg,sunagtqhhwxjeuxdebe.jpg,,,<,Face,,,,,1,,,,,,,x
152,20,Presentation,3,00132931230fb_sunaanjcbzdvtvblsdy.jpg,00193940928fa_sunaaxjpzcnxligjtjq.jpg,00132931230fb.jpg,sunaanjcbzdvtvblsdy.jpg,00193940928fa.jpg,sunaaxjpzcnxligjtjq.jpg,,,>,Place,,,,,1,,,,,,,x
153,20,Presentation,3,00123931230fb_sunaalcrrdbjgdztbiz.jpg,00111931230fb_sunaakgekhjklxmvulj.jpg,00123931230fb.jpg,sunaalcrrdbjgdztbiz.jpg,00111931230fb.jpg,sunaakgekhjklxmvulj.jpg,,,<,Face,,,,,1,,,,,,,o
154,20,Presentation,3,00882960530fa_sunaknlirqjqiwbbeeg.jpg,00921960627fa_sunapqkpqdfvxlbqwyo.jpg,00882960530fa.jpg,sunaknlirqjqiwbbeeg.jpg,00921960627fa.jpg,sunapqkpqdfvxlbqwyo.jpg,,,<,Face,,,,,1,,,,,,,x
155,20,Presentation,3,00741941201fa_sunaemcowdozyphwknd.jpg,00743941201fa_sunaeoghzrjarigmwua.jpg,00741941201fa.jpg,sunaemcowdozyphwknd.jpg,00743941201fa.jpg,sunaeoghzrjarigmwua.jpg,,,>,Face,,,,,0,,,,,,,x
156,20,Presentation,3,00280940422fb_sunabohxbskznglnrhv.jpg,00136931230fb_sunaanptmsknhirrzed.jpg,00280940422fb.jpg,sunabohxbskznglnrhv.jpg,00136931230fb.jpg,sunaanptmsknhirrzed.jpg,,,>,Face,,,,,1,,,,,,,x
157,20,Presentation,3,00559940519fa_sunacjkmnpawfzbyvae.jpg,00208940128fa_sunaazzyhbvqjpmazjq.jpg,00559940519fa.jpg,sunacjkmnpawfzbyvae.jpg,00208940128fa.jpg,sunaazzyhbvqjpmazjq.jpg,,,<,Place,,,,,1,,,,,,,x
158,20,Presentation,3,00153931230fa_sunaauhozyxzeeqstxi.jpg,00705941205fa_sunadtlxenqqxsyjvix.jpg,00153931230fa.jpg,sunaauhozyxzeeqstxi.jpg,00705941205fa.jpg,sunadtlxenqqxsyjvix.jpg,,,>,Place,,,,,1,,,,,,,x
159,20,Presentation,3,00245940128fa_sunabeyhmxodahoieyk.jpg,00892960530fa_sunalntxqqadigcletd.jpg,00245940128fa.jpg,sunabeyhmxodahoieyk.jpg,00892960530fa.jpg,sunalntxqqadigcletd.jpg,,,>,Place,,,,,1,,,,,,,o
160,20,Memory,3,,,,,,,sunaanptmsknhirrzed.jpg,,,,,,,,,,,,,,,
161,20,Memory,3,,,,,,,sunaawsdjisukbbginm.jpg,,,,,,,,,,,,,,,
162,20,Memory,3,,,,,,,00191940128fb.jpg,,,,,,,,,,,,,,,
163,20,Memory,3,,,,,,,sunaazzyhbvqjpmazjq.jpg,,,,,,,,,,,,,,,
164,20,Memory,3,,,,,,,00559940519fa.jpg,,,,,,,,,,,,,,,
165,20,Memory,3,,,,,,,00081941031fa.jpg,,,,,,,,,,,,,,,
166,20,Memory,3,,,,,,,00882960530fa.jpg,,,,,,,,,,,,,,,
167,20,Memory,3,,,,,,,sunaaxjpzcnxligjtjq.jpg,,,,,,,,,,,,,,,
168,20,Memory,3,,,,,,,00132931230fb.jpg,,,,,,,,,,,,,,,
169,20,Memory,3,,,,,,,01003960627fb.jpg,,,,,,,,,,,,,,,
170,20,Memory,3,,,,,,,00111931230fb.jpg,,,,,,,,,,,,,,,
171,20,Memory,3,,,,,,,sunaeuvjbmdpknaqqaj.jpg,,,,,,,,,,,,,,,
172,20,Memory,3,,,,,,,sunaakgekhjklxmvulj.jpg,,,,,,,,,,,,,,,
173,20,Memory,3,,,,,,,00208940128fa.jpg,,,,,,,,,,,,,,,
174,20,Memory,3,,,,,,,sunaanjcbzdvtvblsdy.jpg,,,,,,,,,,,,,,,
175,20,Memory,3,,,,,,,sunacjkmnpawfzbyvae.jpg,,,,,,,,,,,,,,,
176,20,Memory,3,,,,,,,sunaflojskatpeqyzqp.jpg,,,,,,,,,,,,,,,
177,20,Memory,3,,,,,,,sunaaftlyfudyzuhqzf.jpg,,,,,,,,,,,,,,,
178,20,Memory,3,,,,,,,sunaahwnmtqsrhocysw.jpg,,,,,,,,,,,,,,,
179,20,Memory,3,,,,,,,00743941201fa.jpg,,,,,,,,,,,,,,,
180,20,Memory,3,,,,,,,00749941201fa.jpg,,,,,,,,,,,,,,,
181,20,Memory,3,,,,,,,sunarpsxqkduedrrzyi.jpg,,,,,,,,,,,,,,,
182,20,Memory,3,,,,,,,sunaauhozyxzeeqstxi.jpg,,,,,,,,,,,,,,,
183,20,Memory,3,,,,,,,00153931230fa.jpg,,,,,,,,,,,,,,,
184,20,Memory,3,,,,,,,00976960627fa.jpg,,,,,,,,,,,,,,,
185,20,Memory,3,,,,,,,00770941201fa.jpg,,,,,,,,,,,,,,,
186,20,Memory,3,,,,,,,sunaeoghzrjarigmwua.jpg,,,,,,,,,,,,,,,
187,20,Memory,3,,,,,,,00093931230fa.jpg,,,,,,,,,,,,,,,
188,20,Memory,3,,,,,,,sunaknlirqjqiwbbeeg.jpg,,,,,,,,,,,,,,,
189,20,Memory,3,,,,,,,00060931230fa.jpg,,,,,,,,,,,,,,,
190,20,Memory,3,,,,,,,00889960530fa.jpg,,,,,,,,,,,,,,,
191,20,Memory,3,,,,,,,sunbbhqyyzmsxhsbjmp.jpg,,,,,,,,,,,,,,,
192,20,Memory,3,,,,,,,sunaaehaikpckyjsety.jpg,,,,,,,,,,,,,,,
193,20,Memory,3,,,,,,,00136931230fb.jpg,,,,,,,,,,,,,,,
194,20,Memory,3,,,,,,,00943960627fa.jpg,,,,,,,,,,,,,,,
195,20,Memory,3,,,,,,,sunbwdrdvsweerwsdrj.jpg,,,,,,,,,,,,,,,
196,20,Memory,3,,,,,,,01000960627fa.jpg,,,,,,,,,,,,,,,
197,20,Memory,3,,,,,,,sunaletopenvvozhpxc.jpg,,,,,,,,,,,,,,,
198,20,Memory,3,,,,,,,00193940928fa.jpg,,,,,,,,,,,,,,,
199,20,Memory,3,,,,,,,sunbvzmgrdvaakxusbu.jpg,,,,,,,,,,,,,,,
200,20,Presentation,4,01007960627fa_sunbxarcshsnqsefemx.jpg,00634940928fa_sunadcphrizvfpljiqt.jpg,01007960627fa.jpg,sunbxarcshsnqsefemx.jpg,00634940928fa.jpg,sunadcphrizvfpljiqt.jpg,,,<,Face,,,,,1,,,,,,,o
201,20,Presentation,4,00772941201fa_sunafpfpiiujzoesnqg.jpg,00776941205fa_sunafxokyavhgptyfye.jpg,00772941201fa.jpg,sunafpfpiiujzoesnqg.jpg,00776941205fa.jpg,sunafxokyavhgptyfye.jpg,,,<,Place,,,,,0,,,,,,,x
202,20,Presentation,4,00986960627fa_sunbgzjryivyczuvkvm.jpg,00857940307fa_sunaiwfobocrruqznsv.jpg,00986960627fa.jpg,sunbgzjryivyczuvkvm.jpg,00857940307fa.jpg,sunaiwfobocrruqznsv.jpg,,,>,Face,,,,,1,,,,,,,o
203,20,Presentation,4,00069931230fb_sunaaeowapdkwzqpgqr.jpg,00884960530fa_sunakodkcslgqhqlgwl.jpg,00069931230fb.jpg,sunaaeowapdkwzqpgqr.jpg,00884960530fa.jpg,sunakodkcslgqhqlgwl.jpg,,,>,Face,,,,,1,,,,,,,o
204,20,Presentation,4,00306940422fa_sunabueyoajufbkraki.jpg,00841940307fa_sunaisiwfgppimtnmxl.jpg,00306940422fa.jpg,sunabueyoajufbkraki.jpg,00841940307fa.jpg,sunaisiwfgppimtnmxl.jpg,,,>,Face,,,,,1,,,,,,,x
205,20,Presentation,4,00859940307fa_sunaiycurtqsfkvcaso.jpg,00919960620fa_sunapmfmzadmosuogaz.jpg,00859940307fa.jpg,sunaiycurtqsfkvcaso.jpg,00919960620fa.jpg,sunapmfmzadmosuogaz.jpg,,,<,Face,,,,,1,,,,,,,x
206,20,Presentation,4,00198940128fb_sunaazezcsunmhttzxz.jpg,00235940128fb_sunabclssnoeuigtawp.jpg,00198940128fb.jpg,sunaazezcsunmhttzxz.jpg,00235940128fb.jpg,sunabclssnoeuigtawp.jpg,,,>,Place,,,,,1,,,,,,,x
207,20,Presentation,4,00130931230fa_sunaamvxnvouicstkjb.jpg,00913960530fa_sunaooffzffbhcpirmm.jpg,00130931230fa.jpg,sunaamvxnvouicstkjb.jpg,00913960530fa.jpg,sunaooffzffbhcpirmm.jpg,,,<,Place,,,,,1,,,,,,,o
208,20,Presentation,4,00818940307fa_sunahpblecxtmuzkmxb.jpg,00870940307fa_sunajrgtewnualfcerj.jpg,00818940307fa.jpg,sunahpblecxtmuzkmxb.jpg,00870940307fa.jpg,sunajrgtewnualfcerj.jpg,,,>,Place,,,,,1,,,,,,,o
209,20,Presentation,4,00129931230fb_sunaamsdyakblkfoydx.jpg,00109931230fa_sunaajuzribjrizdshh.jpg,00129931230fb.jpg,sunaamsdyakblkfoydx.jpg,00109931230fa.jpg,sunaajuzribjrizdshh.jpg,,,<,Place,,,,,1,,,,,,,o
210,20,Memory,4,,,,,,,00122931230fa.jpg,,,,,,,,,,,,,,,
211,20,Memory,4,,,,,,,sunahpblecxtmuzkmxb.jpg,,,,,,,,,,,,,,,
212,20,Memory,4,,,,,,,00564941031fa.jpg,,,,,,,,,,,,,,,
213,20,Memory,4,,,,,,,sunbgzjryivyczuvkvm.jpg,,,,,,,,,,,,,,,
214,20,Memory,4,,,,,,,sunakodkcslgqhqlgwl.jpg,,,,,,,,,,,,,,,
215,20,Memory,4,,,,,,,00635941031fa.jpg,,,,,,,,,,,,,,,
216,20,Memory,4,,,,,,,sunajtrfunvzdfticna.jpg,,,,,,,,,,,,,,,
217,20,Memory,4,,,,,,,00841940307fa.jpg,,,,,,,,,,,,,,,
218,20,Memory,4,,,,,,,sunacsaovnjezqwbykf.jpg,,,,,,,,,,,,,,,
219,20,Memory,4,,,,,,,00306940422fa.jpg,,,,,,,,,,,,,,,
220,20,Memory,4,,,,,,,00818940307fa.jpg,,,,,,,,,,,,,,,
221,20,Memory,4,,,,,,,sunaisiwfgppimtnmxl.jpg,,,,,,,,,,,,,,,
222,20,Memory,4,,,,,,,sunabclssnoeuigtawp.jpg,,,,,,,,,,,,,,,
223,20,Memory,4,,,,,,,00609940928fa.jpg,,,,,,,,,,,,,,,
224,20,Memory,4,,,,,,,00816941205fa.jpg,,,,,,,,,,,,,,,
225,20,Memory,4,,,,,,,sunabueyoajufbkraki.jpg,,,,,,,,,,,,,,,
226,20,Memory,4,,,,,,,sunaamvxnvouicstkjb.jpg,,,,,,,,,,,,,,,
227,20,Memory,4,,,,,,,sunbddbivbptlrlauhy.jpg,,,,,,,,,,,,,,,
228,20,Memory,4,,,,,,,00638941031fa.jpg,,,,,,,,,,,,,,,
229,20,Memory,4,,,,,,,sunahmhrncocyhsjpxk.jpg,,,,,,,,,,,,,,,
230,20,Memory,4,,,,,,,00634940928fa.jpg,,,,,,,,,,,,,,,
231,20,Memory,4,,,,,,,00777941205fa.jpg,,,,,,,,,,,,,,,
232,20,Memory,4,,,,,,,sunadfktsqjthoglcsm.jpg,,,,,,,,,,,,,,,
233,20,Memory,4,,,,,,,sunacycdoztxoluxjyk.jpg,,,,,,,,,,,,,,,
234,20,Memory,4,,,,,,,00986960627fa.jpg,,,,,,,,,,,,,,,
235,20,Memory,4,,,,,,,sunadbdqzigzwipuipr.jpg,,,,,,,,,,,,,,,
236,20,Memory,4,,,,,,,01007960627fa.jpg,,,,,,,,,,,,,,,
237,20,Memory,4,,,,,,,00874940307fa.jpg,,,,,,,,,,,,,,,
238,20,Memory,4,,,,,,,sunajrgtewnualfcerj.jpg,,,,,,,,,,,,,,,
239,20,Memory,4,,,,,,,sunaddsaeicthrfbkhe.jpg,,,,,,,,,,,,,,,
240,20,Memory,4,,,,,,,00870940307fa.jpg,,,,,,,,,,,,,,,
241,20,Memory,4,,,,,,,00631940928fa.jpg,,,,,,,,,,,,,,,
242,20,Memory,4,,,,,,,00130931230fa.jpg,,,,,,,,,,,,,,,
243,20,Memory,4,,,,,,,00884960530fa.jpg,,,,,,,,,,,,,,,
244,20,Memory,4,,,,,,,sunbxarcshsnqsefemx.jpg,,,,,,,,,,,,,,,
245,20,Memory,4,,,,,,,00978960627fa.jpg,,,,,,,,,,,,,,,
246,20,Memory,4,,,,,,,sunadcphrizvfpljiqt.jpg,,,,,,,,,,,,,,,
247,20,Memory,4,,,,,,,sunaakxjfbrrequcjmx.jpg,,,,,,,,,,,,,,,
248,20,Memory,4,,,,,,,00235940128fb.jpg,,,,,,,,,,,,,,,
249,20,Memory,4,,,,,,,sunagcinxkccdtrjmlv.jpg,,,,,,,,,,,,,,,
250,20,Presentation,5,00839940307fa_sunaipyohrqlwngaqif.jpg,00971960627fa_sunbbegcweqnetpdlrh.jpg,00839940307fa.jpg,sunaipyohrqlwngaqif.jpg,00971960627fa.jpg,sunbbegcweqnetpdlrh.jpg,,,>,Place,,,,,1,,,,,,,x
251,20,Presentation,5,00868960307fa_sunajjxttslobudoqbv.jpg,00108960530fa_sunaajtnvzzpsjdzres.jpg,00868960307fa.jpg,sunajjxttslobudoqbv.jpg,00108960530fa.jpg,sunaajtnvzzpsjdzres.jpg,,,<,Place,,,,,1,,,,,,,o
252,20,Presentation,5,00598940928fa_sunacxeheuiigkcgquf.jpg,00885960530fa_sunakwlvxjpddialozd.jpg,00598940928fa.jpg,sunacxeheuiigkcgquf.jpg,00885960530fa.jpg,sunakwlvxjpddialozd.jpg,,,<,Face,,,,,1,,,,,,,o
253,20,Presentation,5,00766960620fa_sunafijbgncijwykrnl.jpg,00305940422fa_sunabtrnbvpppgczjim.jpg,00766960620fa.jpg,sunafijbgncijwykrnl.jpg,00305940422fa.jpg,sunabtrnbvpppgczjim.jpg,,,<,Face,,,,,0,,,,,,,x
254,20,Presentation,5,00065931230fb_sunaaemixhfquhnxxlm.jpg,00938960627fa_sunaqyylsngywqzwfmx.jpg,00065931230fb.jpg,sunaaemixhfquhnxxlm.jpg,00938960627fa.jpg,sunaqyylsngywqzwfmx.jpg,,,>,Face,,,,,1,,,,,,,x
255,20,Presentation,5,00854940307fa_sunaiwduelojtwaqeyh.jpg,00799941205fa_sunagutjvdvnhxejerz.jpg,00854940307fa.jpg,sunaiwduelojtwaqeyh.jpg,00799941205fa.jpg,sunagutjvdvnhxejerz.jpg,,,<,Face,,,,,1,,,,,,,o
256,20,Presentation,5,00931960627fa_sunaptrqvaooxfvktvw.jpg,00926960627Fa_sunapqwoeotxshkukbh.jpg,00931960627fa.jpg,sunaptrqvaooxfvktvw.jpg,00926960627Fa.jpg,sunapqwoeotxshkukbh.jpg,,,>,Place,,,,,1,,,,,,,x
257,20,Presentation,5,00482940519fa_sunabyfxcxhdebvdyfd.jpg,00939960627fa_sunarceibpcyacbmfga.jpg,00482940519fa.jpg,sunabyfxcxhdebvdyfd.jpg,00939960627fa.jpg,sunarceibpcyacbmfga.jpg,,,<,Place,,,,,1,,,,,,,o
258,20,Presentation,5,00787960620fa_sunagoufulkpsxrmklt.jpg,00933960627fa_sunapwjkcxdaeqehfql.jpg,00787960620fa.jpg,sunagoufulkpsxrmklt.jpg,00933960627fa.jpg,sunapwjkcxdaeqehfql.jpg,,,>,Place,,,,,1,,,,,,,o
259,20,Presentation,5,00950960627fa_sunasrjlmglmjzbmqxb.jpg,00963960627fa_sunayaepykrqvenaqqy.jpg,00950960627fa.jpg,sunasrjlmglmjzbmqxb.jpg,00963960627fa.jpg,sunayaepykrqvenaqqy.jpg,,,>,Face,,,,,1,,,,,,,o
260,20,Memory,5,,,,,,,sunabyfxcxhdebvdyfd.jpg,,,,,,,,,,,,,,,
261,20,Memory,5,,,,,,,00787960620fa.jpg,,,,,,,,,,,,,,,
262,20,Memory,5,,,,,,,sunbbegcweqnetpdlrh.jpg,,,,,,,,,,,,,,,
263,20,Memory,5,,,,,,,00766960620fa.jpg,,,,,,,,,,,,,,,
264,20,Memory,5,,,,,,,sunaqyylsngywqzwfmx.jpg,,,,,,,,,,,,,,,
265,20,Memory,5,,,,,,,00898960530fa.jpg,,,,,,,,,,,,,,,
266,20,Memory,5,,,,,,,00305940422fa.jpg,,,,,,,,,,,,,,,
267,20,Memory,5,,,,,,,sunagoufulkpsxrmklt.jpg,,,,,,,,,,,,,,,
268,20,Memory,5,,,,,,,00825940307fa.jpg,,,,,,,,,,,,,,,
269,20,Memory,5,,,,,,,00938960627fa.jpg,,,,,,,,,,,,,,,
270,20,Memory,5,,,,,,,00080931230fb.jpg,,,,,,,,,,,,,,,
271,20,Memory,5,,,,,,,sunbloeoiozwjjsiamp.jpg,,,,,,,,,,,,,,,
272,20,Memory,5,,,,,,,00987960627fa.jpg,,,,,,,,,,,,,,,
273,20,Memory,5,,,,,,,00971960627fa.jpg,,,,,,,,,,,,,,,
274,20,Memory,5,,,,,,,00854940307fa.jpg,,,,,,,,,,,,,,,
275,20,Memory,5,,,,,,,sunafijbgncijwykrnl.jpg,,,,,,,,,,,,,,,
276,20,Memory,5,,,,,,,sunaafjszryxyavjzln.jpg,,,,,,,,,,,,,,,
277,20,Memory,5,,,,,,,00933960627fa.jpg,,,,,,,,,,,,,,,
278,20,Memory,5,,,,,,,00482940519fa.jpg,,,,,,,,,,,,,,,
279,20,Memory,5,,,,,,,sunabtrnbvpppgczjim.jpg,,,,,,,,,,,,,,,
280,20,Memory,5,,,,,,,sunahrltmuwbiehihpe.jpg,,,,,,,,,,,,,,,
281,20,Memory,5,,,,,,,sunabizydfotqddlnjp.jpg,,,,,,,,,,,,,,,
282,20,Memory,5,,,,,,,00966960627fa.jpg,,,,,,,,,,,,,,,
283,20,Memory,5,,,,,,,sunaloffvbvysigxent.jpg,,,,,,,,,,,,,,,
284,20,Memory,5,,,,,,,00125931230fa.jpg,,,,,,,,,,,,,,,
285,20,Memory,5,,,,,,,sunaiwduelojtwaqeyh.jpg,,,,,,,,,,,,,,,
286,20,Memory,5,,,,,,,00893960530Fa.jpg,,,,,,,,,,,,,,,
287,20,Memory,5,,,,,,,sunajjxttslobudoqbv.jpg,,,,,,,,,,,,,,,
288,20,Memory,5,,,,,,,00885960530fa.jpg,,,,,,,,,,,,,,,
289,20,Memory,5,,,,,,,sunaalltyvjhbzhkmvg.jpg,,,,,,,,,,,,,,,
290,20,Memory,5,,,,,,,00262940128fa.jpg,,,,,,,,,,,,,,,
291,20,Memory,5,,,,,,,sunamkmeblgteyggink.jpg,,,,,,,,,,,,,,,
292,20,Memory,5,,,,,,,sunakwlvxjpddialozd.jpg,,,,,,,,,,,,,,,
293,20,Memory,5,,,,,,,sunaetydippjxikifsb.jpg,,,,,,,,,,,,,,,
294,20,Memory,5,,,,,,,sunaygrtwrwfezqjizr.jpg,,,,,,,,,,,,,,,
295,20,Memory,5,,,,,,,sunapwjkcxdaeqehfql.jpg,,,,,,,,,,,,,,,
296,20,Memory,5,,,,,,,00746941201fa.jpg,,,,,,,,,,,,,,,
297,20,Memory,5,,,,,,,sunaajayojuslbbnneg.jpg,,,,,,,,,,,,,,,
298,20,Memory,5,,,,,,,00868960307fa.jpg,,,,,,,,,,,,,,,
299,20,Memory,5,,,,,,,00097931230fa.jpg,,,,,,,,,,,,,,,
300,20,Presentation,6,00982960627fa_sunbesrwkdsffeogeqq.jpg,00086931230fa_sunaafynehyrzpsoaml.jpg,00982960627fa.jpg,sunbesrwkdsffeogeqq.jpg,00086931230fa.jpg,sunaafynehyrzpsoaml.jpg,,,>,Place,,,,,1,,,,,,,o
301,20,Presentation,6,00131931230fb_sunaangbuylfvckqqoo.jpg,00747941201fa_sunaeutbrtswvsozxyk.jpg,00131931230fb.jpg,sunaangbuylfvckqqoo.jpg,00747941201fa.jpg,sunaeutbrtswvsozxyk.jpg,,,<,Place,,,,,1,,,,,,,o
302,20,Presentation,6,00529940519fa_sunacbeefkxpymwevpk.jpg,00061931230fb_sunaaekxzjzrfgtkwjf.jpg,00529940519fa.jpg,sunacbeefkxpymwevpk.jpg,00061931230fb.jpg,sunaaekxzjzrfgtkwjf.jpg,,,<,Face,,,,,1,,,,,,,o
303,20,Presentation,6,00908960530fa_sunanwjjyqqwzqrqagd.jpg,00829940307fa_sunahwgbqkqcrwprgvh.jpg,00908960530fa.jpg,sunanwjjyqqwzqrqagd.jpg,00829940307fa.jpg,sunahwgbqkqcrwprgvh.jpg,,,>,Place,,,,,1,,,,,,,x
304,20,Presentation,6,00681941121fa_sunadqmjrhfjyuzyvdd.jpg,00574940928fa_sunacvbrcejzwmcgnoq.jpg,00681941121fa.jpg,sunadqmjrhfjyuzyvdd.jpg,00574940928fa.jpg,sunacvbrcejzwmcgnoq.jpg,,,>,Face,,,,,1,,,,,,,o
305,20,Presentation,6,00112931230fa_sunaakjaacuzulqckgl.jpg,00906960530fa_sunantryfbloeaomfta.jpg,00112931230fa.jpg,sunaakjaacuzulqckgl.jpg,00906960530fa.jpg,sunantryfbloeaomfta.jpg,,,<,Face,,,,,1,,,,,,,o
306,20,Presentation,6,00937960627fa_sunaqsolmfydodnakub.jpg,00860940307fa_sunaizeyhvjzknwjudw.jpg,00937960627fa.jpg,sunaqsolmfydodnakub.jpg,00860940307fa.jpg,sunaizeyhvjzknwjudw.jpg,,,>,Place,,,,,0,,,,,,,o
307,20,Presentation,6,00877960530fa_sunajxpkuhbizeveguy.jpg,00564940928fa_sunacmpqqfbsvlzinzl.jpg,00877960530fa.jpg,sunajxpkuhbizeveguy.jpg,00564940928fa.jpg,sunacmpqqfbsvlzinzl.jpg,,,<,Place,,,,,1,,,,,,,o
308,20,Presentation,6,00847940307fa_sunaivdjruhkrfywfed.jpg,00960960627fa_sunawksfbacycuhbrsc.jpg,00847940307fa.jpg,sunaivdjruhkrfywfed.jpg,00960960627fa.jpg,sunawksfbacycuhbrsc.jpg,,,>,Face,,,,,0,,,,,,,o
309,20,Presentation,6,00949960627fb_sunasnqkkyhilqkxiqm.jpg,00944960627fa_sunasbbntuiheekqyaq.jpg,00949960627fb.jpg,sunasnqkkyhilqkxiqm.jpg,00944960627fa.jpg,sunasbbntuiheekqyaq.jpg,,,<,Face,,,,,0,,,,,,,o
310,20,Memory,6,,,,,,,sunahwgbqkqcrwprgvh.jpg,,,,,,,,,,,,,,,
311,20,Memory,6,,,,,,,00314940422fa.jpg,,,,,,,,,,,,,,,
312,20,Memory,6,,,,,,,sunagsiwrmuixqgdimb.jpg,,,,,,,,,,,,,,,
313,20,Memory,6,,,,,,,00949960627fb.jpg,,,,,,,,,,,,,,,
314,20,Memory,6,,,,,,,00829940307fa.jpg,,,,,,,,,,,,,,,
315,20,Memory,6,,,,,,,00086931230fa.jpg,,,,,,,,,,,,,,,
316,20,Memory,6,,,,,,,00860940307fa.jpg,,,,,,,,,,,,,,,
317,20,Memory,6,,,,,,,sunafvtpfczkzopbgue.jpg,,,,,,,,,,,,,,,
318,20,Memory,6,,,,,,,sunaafynehyrzpsoaml.jpg,,,,,,,,,,,,,,,
319,20,Memory,6,,,,,,,sundahdxwmcdluscvot.jpg,,,,,,,,,,,,,,,
320,20,Memory,6,,,,,,,00774941201fa.jpg,,,,,,,,,,,,,,,
321,20,Memory,6,,,,,,,00858940307fa.jpg,,,,,,,,,,,,,,,
322,20,Memory,6,,,,,,,00557940519fa.jpg,,,,,,,,,,,,,,,
323,20,Memory,6,,,,,,,sunabrjdpmoedcdjbpo.jpg,,,,,,,,,,,,,,,
324,20,Memory,6,,,,,,,00792941205fa.jpg,,,,,,,,,,,,,,,
325,20,Memory,6,,,,,,,sunaqsolmfydodnakub.jpg,,,,,,,,,,,,,,,
326,20,Memory,6,,,,,,,sunaccdtpgenvcbcbcf.jpg,,,,,,,,,,,,,,,
327,20,Memory,6,,,,,,,00877960530fa.jpg,,,,,,,,,,,,,,,
328,20,Memory,6,,,,,,,sunantryfbloeaomfta.jpg,,,,,,,,,,,,,,,
329,20,Memory,6,,,,,,,01011960627fa.jpg,,,,,,,,,,,,,,,
330,20,Memory,6,,,,,,,00906960530fa.jpg,,,,,,,,,,,,,,,
331,20,Memory,6,,,,,,,00532960627fa.jpg,,,,,,,,,,,,,,,
332,20,Memory,6,,,,,,,00908960530fa.jpg,,,,,,,,,,,,,,,
333,20,Memory,6,,,,,,,00292940422fb.jpg,,,,,,,,,,,,,,,
334,20,Memory,6,,,,,,,sunabwmcbaxwioksdgw.jpg,,,,,,,,,,,,,,,
335,20,Memory,6,,,,,,,sunanwjjyqqwzqrqagd.jpg,,,,,,,,,,,,,,,
336,20,Memory,6,,,,,,,00581940928fa.jpg,,,,,,,,,,,,,,,
337,20,Memory,6,,,,,,,sunacvzhvcksnwqcqbw.jpg,,,,,,,,,,,,,,,
338,20,Memory,6,,,,,,,sunachtuarilwyqnvjx.jpg,,,,,,,,,,,,,,,
339,20,Memory,6,,,,,,,00747941201fa.jpg,,,,,,,,,,,,,,,
340,20,Memory,6,,,,,,,sunaeutbrtswvsozxyk.jpg,,,,,,,,,,,,,,,
341,20,Memory,6,,,,,,,00937960627fa.jpg,,,,,,,,,,,,,,,
342,20,Memory,6,,,,,,,sunaizeyhvjzknwjudw.jpg,,,,,,,,,,,,,,,
343,20,Memory,6,,,,,,,sunaixpqndlwhwjtjek.jpg,,,,,,,,,,,,,,,
344,20,Memory,6,,,,,,,sunaangbuylfvckqqoo.jpg,,,,,,,,,,,,,,,
345,20,Memory,6,,,,,,,sunapqwnqzxlsfvgsjm.jpg,,,,,,,,,,,,,,,
346,20,Memory,6,,,,,,,00925960627fa.jpg,,,,,,,,,,,,,,,
347,20,Memory,6,,,,,,,00131931230fb.jpg,,,,,,,,,,,,,,,
348,20,Memory,6,,,,,,,sunajxpkuhbizeveguy.jpg,,,,,,,,,,,,,,,
349,20,Memory,6,,,,,,,sunasnqkkyhilqkxiqm.jpg,,,,,,,,,,,,,,,
350,20,Presentation,7,00127931230fa_sunaampvucecsfbdafn.jpg,00835940307fa_sunaijsqpvodplbwxkf.jpg,00127931230fa.jpg,sunaampvucecsfbdafn.jpg,00835940307fa.jpg,sunaijsqpvodplbwxkf.jpg,,,<,Place,,,,,1,,,,,,,o
351,20,Presentation,7,00119931230fb_sunaakvmbftkrgqhjun.jpg,00144931230fb_sunaathajvxrgptwhoj.jpg,00119931230fb.jpg,sunaakvmbftkrgqhjun.jpg,00144931230fb.jpg,sunaathajvxrgptwhoj.jpg,,,<,Place,,,,,1,,,,,,,x
352,20,Presentation,7,00989960627fa_sunbondbduabvijnmch.jpg,00264940128fb_sunabjzyxcjnmztdonj.jpg,00989960627fa.jpg,sunbondbduabvijnmch.jpg,00264940128fb.jpg,sunabjzyxcjnmztdonj.jpg,,,>,Place,,,,,1,,,,,,,x
353,20,Presentation,7,00479940519fa_sunabxsbfwjccqxxzxq.jpg,00288940422fa_sunabppokiyglaxpcha.jpg,00479940519fa.jpg,sunabxsbfwjccqxxzxq.jpg,00288940422fa.jpg,sunabppokiyglaxpcha.jpg,,,<,Face,,,,,1,,,,,,,x
354,20,Presentation,7,00782941205fa_sunagfvluwixdsozaql.jpg,00780960530fa_sunagetqixeypsysbpn.jpg,00782941205fa.jpg,sunagfvluwixdsozaql.jpg,00780960530fa.jpg,sunagetqixeypsysbpn.jpg,,,>,Place,,,,,1,,,,,,,o
355,20,Presentation,7,00548940519fa_sunacerqowiaeoqkmsq.jpg,00895960530fa_sunamczizlzavhzhpay.jpg,00548940519fa.jpg,sunacerqowiaeoqkmsq.jpg,00895960530fa.jpg,sunamczizlzavhzhpay.jpg,,,<,Face,,,,,1,,,,,,,x
356,20,Presentation,7,00194940128fb_sunaayehfdqcyxggsej.jpg,01004960627fa_sunbwtlihsuptkrckid.jpg,00194940128fb.jpg,sunaayehfdqcyxggsej.jpg,01004960627fa.jpg,sunbwtlihsuptkrckid.jpg,,,>,Face,,,,,1,,,,,,,o
357,20,Presentation,7,00935960627fa_sunaqbmgkgqucajzrkp.jpg,00062931230fb_sunaaelotvjgibjtjhs.jpg,00935960627fa.jpg,sunaqbmgkgqucajzrkp.jpg,00062931230fb.jpg,sunaaelotvjgibjtjhs.jpg,,,<,Place,,,,,1,,,,,,,x
358,20,Presentation,7,00214940128fa_sunabbafjowbzcvbucc.jpg,00790941205fa_sunagpjzsbltchlwvou.jpg,00214940128fa.jpg,sunabbafjowbzcvbucc.jpg,00790941205fa.jpg,sunagpjzsbltchlwvou.jpg,,,>,Face,,,,,1,,,,,,,x
359,20,Presentation,7,00210940128fb_sunabanoxjtqxamkucc.jpg,00965960627fa_sunaydywdmvlfddbxbk.jpg,00210940128fb.jpg,sunabanoxjtqxamkucc.jpg,00965960627fa.jpg,sunaydywdmvlfddbxbk.jpg,,,>,Face,,,,,1,,,,,,,o
360,20,Memory,7,,,,,,,00210940128fb.jpg,,,,,,,,,,,,,,,
361,20,Memory,7,,,,,,,00571940928fa.jpg,,,,,,,,,,,,,,,
362,20,Memory,7,,,,,,,00676941121fa.jpg,,,,,,,,,,,,,,,
363,20,Memory,7,,,,,,,00800941205fb.jpg,,,,,,,,,,,,,,,
364,20,Memory,7,,,,,,,00835940307fa.jpg,,,,,,,,,,,,,,,
365,20,Memory,7,,,,,,,sunaofikylqtxphvdem.jpg,,,,,,,,,,,,,,,
366,20,Memory,7,,,,,,,00119931230fb.jpg,,,,,,,,,,,,,,,
367,20,Memory,7,,,,,,,00993960627fa.jpg,,,,,,,,,,,,,,,
368,20,Memory,7,,,,,,,01004960627fa.jpg,,,,,,,,,,,,,,,
369,20,Memory,7,,,,,,,sunacuatpqpqhyjhjqk.jpg,,,,,,,,,,,,,,,
370,20,Memory,7,,,,,,,sunaglqunwuycxydmyu.jpg,,,,,,,,,,,,,,,
371,20,Memory,7,,,,,,,sunagfvluwixdsozaql.jpg,,,,,,,,,,,,,,,
372,20,Memory,7,,,,,,,00062931230fb.jpg,,,,,,,,,,,,,,,
373,20,Memory,7,,,,,,,00790941205fa.jpg,,,,,,,,,,,,,,,
374,20,Memory,7,,,,,,,00144931230fb.jpg,,,,,,,,,,,,,,,
375,20,Memory,7,,,,,,,sunaijsqpvodplbwxkf.jpg,,,,,,,,,,,,,,,
376,20,Memory,7,,,,,,,sunaafbmtoniaasysgu.jpg,,,,,,,,,,,,,,,
377,20,Memory,7,,,,,,,sunaathajvxrgptwhoj.jpg,,,,,,,,,,,,,,,
378,20,Memory,7,,,,,,,sunaaelotvjgibjtjhs.jpg,,,,,,,,,,,,,,,
379,20,Memory,7,,,,,,,00935960627fa.jpg,,,,,,,,,,,,,,,
380,20,Memory,7,,,,,,,sunadpnqovzckyikrjo.jpg,,,,,,,,,,,,,,,
381,20,Memory,7,,,,,,,sunabanoxjtqxamkucc.jpg,,,,,,,,,,,,,,,
382,20,Memory,7,,,,,,,00073931230fa.jpg,,,,,,,,,,,,,,,
383,20,Memory,7,,,,,,,sunagpjzsbltchlwvou.jpg,,,,,,,,,,,,,,,
384,20,Memory,7,,,,,,,sunammbnoambmhdxdwd.jpg,,,,,,,,,,,,,,,
385,20,Memory,7,,,,,,,sunaakvmbftkrgqhjun.jpg,,,,,,,,,,,,,,,
386,20,Memory,7,,,,,,,00548940519fa.jpg,,,,,,,,,,,,,,,
387,20,Memory,7,,,,,,,sunaqbmgkgqucajzrkp.jpg,,,,,,,,,,,,,,,
388,20,Memory,7,,,,,,,00910960530fa.jpg,,,,,,,,,,,,,,,
389,20,Memory,7,,,,,,,00076931230fa.jpg,,,,,,,,,,,,,,,
390,20,Memory,7,,,,,,,sunbprywzqxjcezkbch.jpg,,,,,,,,,,,,,,,
391,20,Memory,7,,,,,,,sunawotxrevnqvamsfp.jpg,,,,,,,,,,,,,,,
392,20,Memory,7,,,,,,,sunaafewhewbxmjiurz.jpg,,,,,,,,,,,,,,,
393,20,Memory,7,,,,,,,sunbwtlihsuptkrckid.jpg,,,,,,,,,,,,,,,
394,20,Memory,7,,,,,,,00785941205fa.jpg,,,,,,,,,,,,,,,
395,20,Memory,7,,,,,,,sunacerqowiaeoqkmsq.jpg,,,,,,,,,,,,,,,
396,20,Memory,7,,,,,,,sunagvjurcwdbixvnyi.jpg,,,,,,,,,,,,,,,
397,20,Memory,7,,,,,,,00901960530fa.jpg,,,,,,,,,,,,,,,
398,20,Memory,7,,,,,,,00961960627fa.jpg,,,,,,,,,,,,,,,
399,20,Memory,7,,,,,,,00782941205fa.jpg,,,,,,,,,,,,,,,
