,Subject,Trial Type,Run,Cued Composite,Uncued Composite,Cued Face,Cued Place,Uncued Face,Uncued Place,Memory Image,Category,Cued Side,Cued Category,Attention Reaction Time (s),Familiarity Reaction Time (s),Familiarity Rating,Attention Level,Cue Validity,Post Invalid Cue,Pre Invalid Cue,Attention Button,Rating History,Stimulus Onset,Stimulus End,Attention Probe
110,20,Memory,2,,,,,,,00239940128fa.jpg,,,,,2.063,2.0,,,,,,,1554834585.3558,1554834588.357752,
111,20,Memory,2,,,,,,,00145931230fb.jpg,,,,,1.027,3.0,,,,,,,1554834589.82392,1554834592.524494,
112,20,Memory,2,,,,,,,sundbixjudsgeuuehrn.jpg,,,,,1.394,3.0,,,,,,,1554834593.84112,1554834596.709081,
113,20,Memory,2,,,,,,,01207940128fa.jpg,,,,,0.976,2.0,,,,,,,1554834598.058592,1554834600.772468,
114,20,Memory,2,,,,,,,sunaefgzwiramypjvtd.jpg,,,,,1.609,2.0,,,,,,,1554834602.077441,1554834605.074117,
115,20,Memory,2,,,,,,,sunbpflsdaxnddnwcqi.jpg,,,,,2.309,2.0,,,,,,,1554834606.395741,1554834609.41682,
116,20,Memory,2,,,,,,,00787941205fa.jpg,,,,,1.325,2.0,,,,,,,1554834610.747074,1554834613.614203,
117,20,Memory,2,,,,,,,00116931230fa.jpg,,,,,2.86,1.0,,,,,,,1554834615.08224,1554834618.299316,
118,20,Memory,2,,,,,,,00505960627fa.jpg,,,,,1.343,2.0,,,,,,,1554834619.616446,1554834622.283673,
119,20,Memory,2,,,,,,,sunaavjinpnkappuonm.jpg,,,,,1.76,2.0,,,,,,,1554834623.584572,1554834626.197099,
120,20,Memory,2,,,,,,,sunanainkqdvktzoxyl.jpg,,,,,0.943,2.0,,,,,,,1554834627.501512,1554834629.969887,
121,20,Memory,2,,,,,,,sunabaergayifsgacxt.jpg,,,,,1.793,3.0,,,,,,,1554834631.27049,1554834634.602989,
122,20,Memory,2,,,,,,,sunaffgsyyvoqdlkmnk.jpg,,,,,1.26,3.0,,,,,,,1554834635.905296,1554834638.855607,
123,20,Memory,2,,,,,,,00990960627fa.jpg,,,,,1.542,2.0,,,,,,,1554834640.173788,1554834643.039902,
124,20,Memory,2,,,,,,,00265940128fb.jpg,,,,,1.094,3.0,,,,,,,1554834644.424875,1554834647.037874,
125,20,Memory,2,,,,,,,sunaapxkpvrhpjplsok.jpg,,,,,1.976,2.0,,,,,,,1554834648.492592,1554834651.505935,
126,20,Memory,2,,,,,,,sunabmytpyhsgigllxu.jpg,,,,,2.178,2.0,,,,,,,1554834652.943681,1554834656.074005,
127,20,Memory,2,,,,,,,sunaeomlfaabhpswasy.jpg,,,,,1.091,3.0,,,,,,,1554834657.411939,1554834660.142445,
128,20,Memory,2,,,,,,,sunabzuqsrgcsonqlkz.jpg,,,,,1.375,2.0,,,,,,,1554834661.613714,1554834664.582272,
129,20,Memory,2,,,,,,,00957960627fa.jpg,,,,,1.009,3.0,,,,,,,1554834665.89822,1554834668.919749,
130,20,Memory,2,,,,,,,00568940928fa.jpg,,,,,1.393,2.0,,,,,,,1554834670.216699,1554834673.018756,
131,20,Memory,2,,,,,,,00142931230fb.jpg,,,,,2.043,2.0,,,,,,,1554834674.43367,1554834677.63265,
132,20,Memory,2,,,,,,,sunafcofuuzebuadceo.jpg,,,,,1.042,3.0,,,,,,,1554834679.051739,1554834681.971252,
133,20,Memory,2,,,,,,,sunaatjesvdupctftmn.jpg,,,,,1.474,2.0,,,,,,,1554834683.270226,1554834686.637619,
134,20,Memory,2,,,,,,,00725941201fa.jpg,,,,,1.46,2.0,,,,,,,1554834687.955389,1554834690.673876,
135,20,Memory,2,,,,,,,00744941201fa.jpg,,,,,1.826,3.0,,,,,,,1554834692.023591,1554834694.991632,
136,20,Memory,2,,,,,,,00276940422fa.jpg,,,,,1.676,2.0,,,,,,,1554834696.325982,1554834699.607576,
137,20,Memory,2,,,,,,,00754941201fa.jpg,,,,,1.526,3.0,,,,,,,1554834700.910025,1554834703.777122,
138,20,Memory,2,,,,,,,sunabctlikybqabezjv.jpg,,,,,1.21,2.0,,,,,,,1554834705.228485,1554834708.194686,
139,20,Memory,2,,,,,,,00903960620fa.jpg,,,,,0.843,3.0,,,,,,,1554834709.594768,1554834712.613712,
140,20,Memory,2,,,,,,,00209940128fb.jpg,,,,,1.26,3.0,,,,,,,1554834713.929829,1554834717.114547,
141,20,Memory,2,,,,,,,00162931230fb.jpg,,,,,1.276,2.0,,,,,,,1554834718.415495,1554834721.099697,
142,20,Memory,2,,,,,,,00915960620fa.jpg,,,,,0.975,3.0,,,,,,,1554834722.416335,1554834724.986946,
143,20,Memory,2,,,,,,,sunaakqepfoeqomfgxf.jpg,,,,,2.042,3.0,,,,,,,1554834726.284697,1554834729.498303,
144,20,Memory,2,,,,,,,sunapileznnbbmrwoei.jpg,,,,,1.093,2.0,,,,,,,1554834730.802761,1554834734.048725,
145,20,Memory,2,,,,,,,sunagmwxxwymwojbvgi.jpg,,,,,2.175,1.0,,,,,,,1554834735.504292,1554834738.655019,
146,20,Memory,2,,,,,,,sunavhxgmgrqsaptynb.jpg,,,,,1.142,2.0,,,,,,,1554834740.05658,1554834743.268386,
147,20,Memory,2,,,,,,,sunacsdhbbsybcyxnel.jpg,,,,,2.125,4.0,,,,,,,1554834744.590829,1554834747.853382,
148,20,Memory,2,,,,,,,00753941201fa.jpg,,,,,2.143,3.0,,,,,,,1554834749.17596,1554834752.377596,
149,20,Memory,2,,,,,,,sunabkmdplkdbvxriff.jpg,,,,,1.243,2.0,,,,,,,1554834753.676275,1554834756.575438,
