,Subject,Trial Type,Run,Cued Composite,Uncued Composite,Cued Face,Cued Place,Uncued Face,Uncued Place,Memory Image,Category,Cued Side,Cued Category,Attention Reaction Time (s),Familiarity Reaction Time (s),Familiarity Rating,Attention Level,Cue Validity,Post Invalid Cue,Pre Invalid Cue,Attention Button,Rating History,Stimulus Onset,Stimulus End,Attention Probe
210,20,Memory,4,,,,,,,00122931230fa.jpg,,,,,1.625,2.0,,,,,,,1554835307.224024,1554835310.270992,
211,20,Memory,4,,,,,,,sunahpblecxtmuzkmxb.jpg,,,,,1.21,2.0,,,,,,,1554835311.591628,1554835314.304384,
212,20,Memory,4,,,,,,,00564941031fa.jpg,,,,,1.643,2.0,,,,,,,1554835315.677437,1554835318.598398,
213,20,Memory,4,,,,,,,sunbgzjryivyczuvkvm.jpg,,,,,1.594,2.0,,,,,,,1554835319.911726,1554835322.908646,
214,20,Memory,4,,,,,,,sunakodkcslgqhqlgwl.jpg,,,,,1.161,2.0,,,,,,,1554835324.195347,1554835326.764221,
215,20,Memory,4,,,,,,,00635941031fa.jpg,,,,,1.749,3.0,,,,,,,1554835328.063488,1554835330.827931,
216,20,Memory,4,,,,,,,sunajtrfunvzdfticna.jpg,,,,,1.36,3.0,,,,,,,1554835332.131661,1554835334.660727,
217,20,Memory,4,,,,,,,00841940307fa.jpg,,,,,2.742,3.0,,,,,,,1554835336.000701,1554835339.562934,
218,20,Memory,4,,,,,,,sunacsaovnjezqwbykf.jpg,,,,,1.692,3.0,,,,,,,1554835340.901858,1554835343.802136,
219,20,Memory,4,,,,,,,00306940422fa.jpg,,,,,1.776,2.0,,,,,,,1554835345.220284,1554835348.587495,
220,20,Memory,4,,,,,,,00818940307fa.jpg,,,,,0.875,3.0,,,,,,,1554835349.903772,1554835352.688567,
221,20,Memory,4,,,,,,,sunaisiwfgppimtnmxl.jpg,,,,,1.327,2.0,,,,,,,1554835353.988934,1554835356.752679,
222,20,Memory,4,,,,,,,sunabclssnoeuigtawp.jpg,,,,,1.71,2.0,,,,,,,1554835358.057197,1554835361.304186,
223,20,Memory,4,,,,,,,00609940928fa.jpg,,,,,1.542,2.0,,,,,,,1554835362.591223,1554835365.888197,
224,20,Memory,4,,,,,,,00816941205fa.jpg,,,,,1.976,3.0,,,,,,,1554835367.376543,1554835370.323545,
225,20,Memory,4,,,,,,,sunabueyoajufbkraki.jpg,,,,,1.442,4.0,,,,,,,1554835371.645712,1554835374.524772,
226,20,Memory,4,,,,,,,sunaamvxnvouicstkjb.jpg,,,,,1.043,2.0,,,,,,,1554835375.864087,1554835378.545206,
227,20,Memory,4,,,,,,,sunbddbivbptlrlauhy.jpg,,,,,1.611,3.0,,,,,,,1554835379.847086,1554835382.618973,
228,20,Memory,4,,,,,,,00638941031fa.jpg,,,,,1.109,3.0,,,,,,,1554835383.915515,1554835386.649516,
229,20,Memory,4,,,,,,,sunahmhrncocyhsjpxk.jpg,,,,,1.524,2.0,,,,,,,1554835387.950932,1554835390.680099,
230,20,Memory,4,,,,,,,00634940928fa.jpg,,,,,1.075,3.0,,,,,,,1554835392.001787,1554835394.64744,
231,20,Memory,4,,,,,,,00777941205fa.jpg,,,,,1.092,2.0,,,,,,,1554835396.086312,1554835398.998997,
232,20,Memory,4,,,,,,,sunadfktsqjthoglcsm.jpg,,,,,2.341,1.0,,,,,,,1554835400.305539,1554835403.359036,
233,20,Memory,4,,,,,,,sunacycdoztxoluxjyk.jpg,,,,,0.943,2.0,,,,,,,1554835404.7226,1554835407.144683,
234,20,Memory,4,,,,,,,00986960627fa.jpg,,,,,1.977,2.0,,,,,,,1554835408.456867,1554835411.477647,
235,20,Memory,4,,,,,,,sunadbdqzigzwipuipr.jpg,,,,,0.742,2.0,,,,,,,1554835412.774256,1554835415.572078,
236,20,Memory,4,,,,,,,01007960627fa.jpg,,,,,1.243,3.0,,,,,,,1554835416.860323,1554835419.927838,
237,20,Memory,4,,,,,,,00874940307fa.jpg,,,,,1.158,3.0,,,,,,,1554835421.227718,1554835423.792969,
238,20,Memory,4,,,,,,,sunajrgtewnualfcerj.jpg,,,,,0.76,2.0,,,,,,,1554835425.179023,1554835428.06499,
239,20,Memory,4,,,,,,,sunaddsaeicthrfbkhe.jpg,,,,,1.11,2.0,,,,,,,1554835429.430181,1554835432.327207,
240,20,Memory,4,,,,,,,00870940307fa.jpg,,,,,1.376,3.0,,,,,,,1554835433.632182,1554835436.361423,
241,20,Memory,4,,,,,,,00631940928fa.jpg,,,,,1.592,2.0,,,,,,,1554835437.649464,1554835440.563309,
242,20,Memory,4,,,,,,,00130931230fa.jpg,,,,,0.942,3.0,,,,,,,1554835441.851702,1554835444.68106,
243,20,Memory,4,,,,,,,00884960530fa.jpg,,,,,1.059,3.0,,,,,,,1554835446.003291,1554835449.006367,
244,20,Memory,4,,,,,,,sunbxarcshsnqsefemx.jpg,,,,,1.542,2.0,,,,,,,1554835450.304409,1554835453.033111,
245,20,Memory,4,,,,,,,00978960627fa.jpg,,,,,1.793,2.0,,,,,,,1554835454.438651,1554835457.422485,
246,20,Memory,4,,,,,,,sunadcphrizvfpljiqt.jpg,,,,,2.259,2.0,,,,,,,1554835458.805813,1554835461.887436,
247,20,Memory,4,,,,,,,sunaakxjfbrrequcjmx.jpg,,,,,0.825,2.0,,,,,,,1554835463.308837,1554835466.038042,
248,20,Memory,4,,,,,,,00235940128fb.jpg,,,,,0.826,3.0,,,,,,,1554835467.409963,1554835470.57754,
249,20,Memory,4,,,,,,,sunagcinxkccdtrjmlv.jpg,,,,,1.793,3.0,,,,,,,1554835471.894667,1554835475.141167,
