,Subject,Trial Type,Run,Cued Composite,Uncued Composite,Cued Face,Cued Place,Uncued Face,Uncued Place,Memory Image,Category,Cued Side,Cued Category,Attention Reaction Time (s),Familiarity Reaction Time (s),Familiarity Rating,Attention Level,Cue Validity,Post Invalid Cue,Pre Invalid Cue,Attention Button,Rating History,Stimulus Onset,Stimulus End,Attention Probe
10,34,Memory,0,,,,,,,00185940422fb.jpg,,,,,1.755,2,,,,,,,1540387003.686868,1540387006.305491,
11,34,Memory,0,,,,,,,00305940422fa.jpg,,,,,1.603,1,,,,,,,1540387007.821527,1540387010.339627,
12,34,Memory,0,,,,,,,sunbbxkanhzjgbwyxqs.jpg,,,,,2.368,3,,,,,,,1540387011.806705,1540387014.441499,
13,34,Memory,0,,,,,,,sunafvcflzhlqloapyo.jpg,,,,,0.0,,,,,,,,1540387015.874565,1540387018.240899,
14,34,Memory,0,,,,,,,00211940128fa.jpg,,,,,1.57,4,,,,,,,1540387019.908798,1540387022.292831,
15,34,Memory,0,,,,,,,00197940128fa.jpg,,,,,1.503,2,,,,,,,1540387023.876636,1540387026.428652,
16,34,Memory,0,,,,,,,sunaaheqzstzxuadglu.jpg,,,,,1.208,2,,,,,,,1540387027.84483,1540387030.479855,
17,34,Memory,0,,,,,,,00302940422fa.jpg,,,,,1.439,3,,,,,,,1540387031.900746,1540387034.485503,
18,34,Memory,0,,,,,,,00762941201fa.jpg,,,,,1.037,1,,,,,,,1540387035.932081,1540387038.299173,
19,34,Memory,0,,,,,,,sunahbvlpavurqoxdeq.jpg,,,,,1.374,1,,,,,,,1540387039.699393,1540387042.250507,
20,34,Memory,0,,,,,,,sunacsdhbbsybcyxnel.jpg,,,,,1.27,2,,,,,,,1540387043.700652,1540387046.219016,
21,34,Memory,0,,,,,,,sunabtrnbvpppgczjim.jpg,,,,,1.321,1,,,,,,,1540387047.801967,1540387050.268217,
22,34,Memory,0,,,,,,,00092931230fa.jpg,,,,,1.036,3,,,,,,,1540387051.669984,1540387054.153424,
23,34,Memory,0,,,,,,,sunafgzgbisbopcyslr.jpg,,,,,1.503,1,,,,,,,1540387055.637488,1540387058.10525,
24,34,Memory,0,,,,,,,sunagetqixeypsysbpn.jpg,,,,,0.871,1,,,,,,,1540387059.55486,1540387062.19007,
25,34,Memory,0,,,,,,,00809960620fa.jpg,,,,,1.052,1,,,,,,,1540387063.772416,1540387066.191003,
26,34,Memory,0,,,,,,,sunabasphceswhwwqvv.jpg,,,,,1.437,2,,,,,,,1540387067.591897,1540387069.925103,
27,34,Memory,0,,,,,,,00670941121fa.jpg,,,,,1.603,3,,,,,,,1540387071.40936,1540387073.892971,
28,34,Memory,0,,,,,,,sunaamsdyakblkfoydx.jpg,,,,,1.118,2,,,,,,,1540387075.293243,1540387077.661158,
29,34,Memory,0,,,,,,,00751960620fa.jpg,,,,,1.605,2,,,,,,,1540387079.078438,1540387081.413682,
30,34,Memory,0,,,,,,,sunaezuszgtxnmsxdbk.jpg,,,,,0.923,1,,,,,,,1540387082.779106,1540387085.246227,
31,34,Memory,0,,,,,,,sunabtlfmiwtljmoues.jpg,,,,,1.986,1,,,,,,,1540387086.681048,1540387089.098198,
32,34,Memory,0,,,,,,,00745941205fa.jpg,,,,,0.921,2,,,,,,,1540387090.582582,1540387092.949346,
33,34,Memory,0,,,,,,,sunadfktsqjthoglcsm.jpg,,,,,0.968,2,,,,,,,1540387094.449721,1540387096.884817,
34,34,Memory,0,,,,,,,sunaawqdbpihmlbwyyn.jpg,,,,,1.97,3,,,,,,,1540387098.350898,1540387100.786536,
35,34,Memory,0,,,,,,,00977960627fa.jpg,,,,,1.007,2,,,,,,,1540387102.202971,1540387104.736816,
36,34,Memory,0,,,,,,,00568940928fa.jpg,,,,,1.32,1,,,,,,,1540387106.153945,1540387108.50513,
37,34,Memory,0,,,,,,,00638941031fa.jpg,,,,,0.804,1,,,,,,,1540387109.954155,1540387112.306635,
38,34,Memory,0,,,,,,,sunaaylzyqlqrsmfwif.jpg,,,,,0.72,1,,,,,,,1540387113.772542,1540387116.223688,
39,34,Memory,0,,,,,,,00780960530fa.jpg,,,,,1.37,2,,,,,,,1540387117.724988,1540387120.141019,
40,34,Memory,0,,,,,,,00129931230fb.jpg,,,,,1.173,1,,,,,,,1540387121.609232,1540387124.043199,
41,34,Memory,0,,,,,,,00936960627fa.jpg,,,,,0.0,,,,,,,,1540387125.494161,1540387127.94502,
42,34,Memory,0,,,,,,,sunaefgzwiramypjvtd.jpg,,,,,0.936,1,,,,,,,1540387129.427465,1540387131.845668,
43,34,Memory,0,,,,,,,00705941205fa.jpg,,,,,0.935,3,,,,,,,1540387133.345921,1540387135.797688,
44,34,Memory,0,,,,,,,00773941201fa.jpg,,,,,1.204,2,,,,,,,1540387137.29771,1540387139.864096,
45,34,Memory,0,,,,,,,sunadochqcucscehsgk.jpg,,,,,1.105,1,,,,,,,1540387141.465965,1540387143.93245,
46,34,Memory,0,,,,,,,00725941201fa.jpg,,,,,1.102,1,,,,,,,1540387145.382768,1540387147.767583,
47,34,Memory,0,,,,,,,sunaeouogqolxvggaoq.jpg,,,,,0.919,1,,,,,,,1540387149.201439,1540387151.718079,
48,34,Memory,0,,,,,,,sunaqgjuuwvdcyiccjt.jpg,,,,,1.304,2,,,,,,,1540387153.168891,1540387155.570614,
49,34,Memory,0,,,,,,,sunadtlxenqqxsyjvix.jpg,,,,,0.887,3,,,,,,,1540387156.971378,1540387159.420765,
