,Subject,Trial Type,Run,Cued Composite,Uncued Composite,Cued Face,Cued Place,Uncued Face,Uncued Place,Memory Image,Category,Cued Side,Cued Category,Attention Reaction Time (s),Familiarity Reaction Time (s),Familiarity Rating,Attention Level,Cue Validity,Post Invalid Cue,Pre Invalid Cue,Attention Button,Rating History,Stimulus Onset,Stimulus End,Attention Probe
310,17,Memory,6,,,,,,,sunaenwuebvlpdmntju.jpg,,,,,0.0,,,,,,,,1539206321.506605,1539206323.557782,
311,17,Memory,6,,,,,,,00973960627fa.jpg,,,,,0.737,2.0,,,,,,,1539206324.808538,1539206326.792009,
312,17,Memory,6,,,,,,,sunagufzbeteqdjxais.jpg,,,,,0.553,2.0,,,,,,,1539206328.042939,1539206330.026872,
313,17,Memory,6,,,,,,,00194940128fb.jpg,,,,,0.737,2.0,,,,,,,1539206331.277087,1539206333.261139,
314,17,Memory,6,,,,,,,00097931230fa.jpg,,,,,0.454,3.0,,,,,,,1539206334.511194,1539206336.49532,
315,17,Memory,6,,,,,,,00742941201fa.jpg,,,,,0.603,1.0,,,,,,,1539206337.746421,1539206339.729416,
316,17,Memory,6,,,,,,,00209940128fb.jpg,,,,,0.82,2.0,,,,,,,1539206340.980379,1539206342.963802,
317,17,Memory,6,,,,,,,00797960620fa.jpg,,,,,0.32,2.0,,,,,,,1539206344.230822,1539206346.214715,
318,17,Memory,6,,,,,,,00609940928fa.jpg,,,,,0.47,2.0,,,,,,,1539206347.465968,1539206349.449114,
319,17,Memory,6,,,,,,,00529940519fa.jpg,,,,,0.904,2.0,,,,,,,1539206350.699887,1539206352.684039,
320,17,Memory,6,,,,,,,sunacwggadqsfpovdjv.jpg,,,,,0.837,2.0,,,,,,,1539206353.934975,1539206355.918401,
321,17,Memory,6,,,,,,,sunahrltmuwbiehihpe.jpg,,,,,1.072,2.0,,,,,,,1539206357.168327,1539206359.152636,
322,17,Memory,6,,,,,,,sunacbeefkxpymwevpk.jpg,,,,,0.836,2.0,,,,,,,1539206360.435649,1539206362.42076,
323,17,Memory,6,,,,,,,00836940307fa.jpg,,,,,0.603,2.0,,,,,,,1539206363.670767,1539206365.654696,
324,17,Memory,6,,,,,,,00778941205fa.jpg,,,,,0.704,2.0,,,,,,,1539206367.020961,1539206369.006198,
325,17,Memory,6,,,,,,,00825940307fa.jpg,,,,,1.003,2.0,,,,,,,1539206370.272773,1539206372.257162,
326,17,Memory,6,,,,,,,sunaauueuhhvklldjik.jpg,,,,,1.319,2.0,,,,,,,1539206373.508088,1539206375.491233,
327,17,Memory,6,,,,,,,sunaivdylrawbmhryfp.jpg,,,,,1.589,4.0,,,,,,,1539206376.741592,1539206378.726571,
328,17,Memory,6,,,,,,,sunaajayojuslbbnneg.jpg,,,,,0.587,2.0,,,,,,,1539206379.99345,1539206381.976703,
329,17,Memory,6,,,,,,,00749941201fa.jpg,,,,,0.652,2.0,,,,,,,1539206383.294641,1539206385.277789,
330,17,Memory,6,,,,,,,sunachtuarilwyqnvjx.jpg,,,,,0.652,2.0,,,,,,,1539206386.527932,1539206388.512771,
331,17,Memory,6,,,,,,,sunbbgtoeuzierkkajt.jpg,,,,,0.636,2.0,,,,,,,1539206389.763159,1539206391.746433,
332,17,Memory,6,,,,,,,sunacycdoztxoluxjyk.jpg,,,,,0.586,2.0,,,,,,,1539206392.99758,1539206394.981381,
333,17,Memory,6,,,,,,,00848940307fa.jpg,,,,,0.736,2.0,,,,,,,1539206396.247376,1539206398.232495,
334,17,Memory,6,,,,,,,00648941031fa.jpg,,,,,0.569,2.0,,,,,,,1539206399.498809,1539206401.482689,
335,17,Memory,6,,,,,,,00557940519fa.jpg,,,,,0.552,2.0,,,,,,,1539206402.750658,1539206404.734792,
336,17,Memory,6,,,,,,,sunaeuvjbmdpknaqqaj.jpg,,,,,0.636,2.0,,,,,,,1539206405.984052,1539206407.968999,
337,17,Memory,6,,,,,,,00124931230fa.jpg,,,,,0.82,2.0,,,,,,,1539206409.21906,1539206411.202442,
338,17,Memory,6,,,,,,,sunagcthdfirrcawoic.jpg,,,,,1.086,2.0,,,,,,,1539206412.454204,1539206414.437217,
339,17,Memory,6,,,,,,,00898960530fa.jpg,,,,,1.019,2.0,,,,,,,1539206415.737488,1539206417.721892,
340,17,Memory,6,,,,,,,00811960530fa.jpg,,,,,0.419,2.0,,,,,,,1539206418.988821,1539206420.972793,
341,17,Memory,6,,,,,,,sunahedfrhtcwpneund.jpg,,,,,0.42,2.0,,,,,,,1539206422.22306,1539206424.207847,
342,17,Memory,6,,,,,,,00154931230fa.jpg,,,,,0.786,2.0,,,,,,,1539206425.457911,1539206427.441367,
343,17,Memory,6,,,,,,,00589940928fa.jpg,,,,,0.654,2.0,,,,,,,1539206428.692429,1539206430.675444,
344,17,Memory,6,,,,,,,sunamkmeblgteyggink.jpg,,,,,1.005,2.0,,,,,,,1539206431.943209,1539206433.927463,
345,17,Memory,6,,,,,,,sunadfndyrtqqiasoig.jpg,,,,,0.57,2.0,,,,,,,1539206435.177703,1539206437.160491,
346,17,Memory,6,,,,,,,sunaayehfdqcyxggsej.jpg,,,,,1.253,2.0,,,,,,,1539206438.4288,1539206440.412626,
347,17,Memory,6,,,,,,,sunabaergayifsgacxt.jpg,,,,,0.754,2.0,,,,,,,1539206441.661829,1539206443.646868,
348,17,Memory,6,,,,,,,sunainqelldeebvxtcz.jpg,,,,,0.52,2.0,,,,,,,1539206444.897312,1539206446.881137,
349,17,Memory,6,,,,,,,sunaalhlvzmjmitybdn.jpg,,,,,0.585,2.0,,,,,,,1539206448.131366,1539206450.115229,
