,Subject,Trial Type,Run,Cued Composite,Uncued Composite,Cued Face,Cued Place,Uncued Face,Uncued Place,Memory Image,Category,Cued Side,Cued Category,Attention Reaction Time (s),Familiarity Reaction Time (s),Familiarity Rating,Attention Level,Cue Validity,Post Invalid Cue,Pre Invalid Cue,Attention Button,Rating History,Stimulus Onset,Stimulus End,Stimulus Start
160,KIRSTEN_LAST,Memory,3,,,,,,,00481940519fa.jpg,,,,,1.33,3,,,,,,,,1530914541.246955,1530914539.209991
161,KIRSTEN_LAST,Memory,3,,,,,,,sunaptrqvaooxfvktvw.jpg,,,,,1.484,3,,,,,,,,1530914544.531191,1530914542.549412
162,KIRSTEN_LAST,Memory,3,,,,,,,sunbagfpovqwbuexqdn.jpg,,,,,1.091,3,,,,,,,,1530914547.749452,1530914545.759808
163,KIRSTEN_LAST,Memory,3,,,,,,,00967960627fa.jpg,,,,,1.645,1,,,,,,,,1530914550.949519,1530914548.974189
164,KIRSTEN_LAST,Memory,3,,,,,,,sunanainkqdvktzoxyl.jpg,,,,,1.179,3,,,,,,,,1530914554.150644,1530914552.174209
165,KIRSTEN_LAST,Memory,3,,,,,,,sunaakxgygjfqrzpyoz.jpg,,,,,0.924,2,,,,,,,,1530914557.369709,1530914555.380729
166,KIRSTEN_LAST,Memory,3,,,,,,,00210940128fb.jpg,,,,,1.047,1,,,,,,,,1530914560.703026,1530914558.724856
167,KIRSTEN_LAST,Memory,3,,,,,,,sunabueyoajufbkraki.jpg,,,,,1.411,1,,,,,,,,1530914563.921149,1530914561.928428
168,KIRSTEN_LAST,Memory,3,,,,,,,sunadrmfzmstgdjdcod.jpg,,,,,1.155,1,,,,,,,,1530914567.122327,1530914565.135733
169,KIRSTEN_LAST,Memory,3,,,,,,,sunbwdrdvsweerwsdrj.jpg,,,,,1.276,3,,,,,,,,1530914570.339637,1530914568.349031
170,KIRSTEN_LAST,Memory,3,,,,,,,00776941205fa.jpg,,,,,0.907,1,,,,,,,,1530914573.540614,1530914571.552639
171,KIRSTEN_LAST,Memory,3,,,,,,,sunaaeowapdkwzqpgqr.jpg,,,,,0.904,1,,,,,,,,1530914576.8418,1530914574.856739
172,KIRSTEN_LAST,Memory,3,,,,,,,00540940519fa.jpg,,,,,0.937,1,,,,,,,,1530914580.042952,1530914578.057865
173,KIRSTEN_LAST,Memory,3,,,,,,,sunacycdoztxoluxjyk.jpg,,,,,1.036,2,,,,,,,,1530914583.260324,1530914581.276543
174,KIRSTEN_LAST,Memory,3,,,,,,,00694941121fa.jpg,,,,,1.511,3,,,,,,,,1530914586.478387,1530914584.485922
175,KIRSTEN_LAST,Memory,3,,,,,,,00120931230fa.jpg,,,,,0.989,1,,,,,,,,1530914589.678671,1530914587.692455
176,KIRSTEN_LAST,Memory,3,,,,,,,00957960627fa.jpg,,,,,0.003,2,,,,,,,,1530914592.896675,1530914590.906051
177,KIRSTEN_LAST,Memory,3,,,,,,,00306940422fa.jpg,,,,,1.321,3,,,,,,,,1530914596.096987,1530914594.112242
178,KIRSTEN_LAST,Memory,3,,,,,,,00836940307fa.jpg,,,,,0.824,1,,,,,,,,1530914599.31584,1530914597.327555
179,KIRSTEN_LAST,Memory,3,,,,,,,sunaeuvjbmdpknaqqaj.jpg,,,,,0.827,2,,,,,,,,1530914602.533317,1530914600.540785
180,KIRSTEN_LAST,Memory,3,,,,,,,00609940928fa.jpg,,,,,0.724,1,,,,,,,,1530914605.75148,1530914603.763442
181,KIRSTEN_LAST,Memory,3,,,,,,,00968960627fa.jpg,,,,,1.772,1,,,,,,,,1530914608.951596,1530914606.966108
182,KIRSTEN_LAST,Memory,3,,,,,,,sunafxokyavhgptyfye.jpg,,,,,1.12,3,,,,,,,,1530914612.153821,1530914610.167871
183,KIRSTEN_LAST,Memory,3,,,,,,,00069931230fb.jpg,,,,,0.805,2,,,,,,,,1530914615.353881,1530914613.368442
184,KIRSTEN_LAST,Memory,3,,,,,,,sunabxsuqbleluwczoy.jpg,,,,,1.703,4,,,,,,,,1530914618.572078,1530914616.588517
185,KIRSTEN_LAST,Memory,3,,,,,,,00903960620fa.jpg,,,,,0.822,3,,,,,,,,1530914621.772391,1530914619.786011
186,KIRSTEN_LAST,Memory,3,,,,,,,sunbaejotfklekvpxcz.jpg,,,,,1.103,2,,,,,,,,1530914625.074302,1530914623.089943
187,KIRSTEN_LAST,Memory,3,,,,,,,sunaamsdyakblkfoydx.jpg,,,,,0.821,3,,,,,,,,1530914628.274711,1530914626.288288
188,KIRSTEN_LAST,Memory,3,,,,,,,sunavhxgmgrqsaptynb.jpg,,,,,1.147,1,,,,,,,,1530914631.475602,1530914629.49872
189,KIRSTEN_LAST,Memory,3,,,,,,,01003960627fb.jpg,,,,,0.948,2,,,,,,,,1530914634.676809,1530914632.698852
190,KIRSTEN_LAST,Memory,3,,,,,,,sunacdnquypmsshhsbk.jpg,,,,,1.663,1,,,,,,,,1530914637.878979,1530914635.900988
191,KIRSTEN_LAST,Memory,3,,,,,,,00931960627fa.jpg,,,,,0.843,1,,,,,,,,1530914641.095528,1530914639.104735
192,KIRSTEN_LAST,Memory,3,,,,,,,sunacfdkbsrughwqwtt.jpg,,,,,1.039,4,,,,,,,,1530914644.296696,1530914642.311264
193,KIRSTEN_LAST,Memory,3,,,,,,,sunabanoxjtqxamkucc.jpg,,,,,1.359,2,,,,,,,,1530914647.514772,1530914645.524405
194,KIRSTEN_LAST,Memory,3,,,,,,,00749941201fa.jpg,,,,,1.027,1,,,,,,,,1530914650.848736,1530914648.857305
195,KIRSTEN_LAST,Memory,3,,,,,,,sunacxeheuiigkcgquf.jpg,,,,,1.063,3,,,,,,,,1530914654.183952,1530914652.206607
196,KIRSTEN_LAST,Memory,3,,,,,,,00129931230fb.jpg,,,,,1.006,1,,,,,,,,1530914657.385018,1530914655.39749
197,KIRSTEN_LAST,Memory,3,,,,,,,00598940928fa.jpg,,,,,0.957,1,,,,,,,,1530914660.60151,1530914658.614299
198,KIRSTEN_LAST,Memory,3,,,,,,,sunainqelldeebvxtcz.jpg,,,,,1.324,4,,,,,,,,1530914663.819717,1530914661.831439
199,KIRSTEN_LAST,Memory,3,,,,,,,00554940519fa.jpg,,,,,1.32,1,,,,,,,,1530914667.019799,1530914665.035922
