,Subject,Trial Type,Run,Cued Composite,Uncued Composite,Cued Face,Cued Place,Uncued Face,Uncued Place,Memory Image,Category,Cued Side,Cued Category,Attention Reaction Time (s),Familiarity Reaction Time (s),Familiarity Rating,Attention Level,Cue Validity,Post Invalid Cue,Pre Invalid Cue,Attention Button
0,KirstenTest1,Presentation,0,00906960530fa_sunantryfbloeaomfta.jpg,00779941205fa_sunagdzlvkqtpnfxfcg.jpg,00906960530fa.jpg,sunantryfbloeaomfta.jpg,00779941205fa.jpg,sunagdzlvkqtpnfxfcg.jpg,,,>,Place,,,,,1,,,
1,KirstenTest1,Presentation,0,00636941031fa_sunaddtdkycxbqlpfqa.jpg,00131931230fb_sunaangbuylfvckqqoo.jpg,00636941031fa.jpg,sunaddtdkycxbqlpfqa.jpg,00131931230fb.jpg,sunaangbuylfvckqqoo.jpg,,,>,Place,,,,,1,,,
2,KirstenTest1,Presentation,0,00675941121fa_sunadoxcchtmsxewsau.jpg,00662941121fa_sunadkazmlajmohnwfl.jpg,00675941121fa.jpg,sunadoxcchtmsxewsau.jpg,00662941121fa.jpg,sunadkazmlajmohnwfl.jpg,,,>,Place,,,,,1,,,
3,KirstenTest1,Presentation,0,00938960627fa_sunaqyylsngywqzwfmx.jpg,00953960627fa_sunatstrpjxhvtbaczf.jpg,00938960627fa.jpg,sunaqyylsngywqzwfmx.jpg,00953960627fa.jpg,sunatstrpjxhvtbaczf.jpg,,,>,Place,,,,,1,,,
4,KirstenTest1,Presentation,0,00862940307fa_sunaizgnnplsvajzhkc.jpg,00154931230fa_sunaauueuhhvklldjik.jpg,00862940307fa.jpg,sunaizgnnplsvajzhkc.jpg,00154931230fa.jpg,sunaauueuhhvklldjik.jpg,,,>,Place,,,,,1,,,
5,KirstenTest1,Presentation,0,00983960627fa_sunbfyvfqiimvdaxlqn.jpg,00163931230fb_sunaavodbcpygkggnfp.jpg,00983960627fa.jpg,sunbfyvfqiimvdaxlqn.jpg,00163931230fb.jpg,sunaavodbcpygkggnfp.jpg,,,>,Place,,,,,1,,,
6,KirstenTest1,Presentation,0,00783941205fa_sunagjeesomrwjsfqie.jpg,00971960627fa_sunbbegcweqnetpdlrh.jpg,00783941205fa.jpg,sunagjeesomrwjsfqie.jpg,00971960627fa.jpg,sunbbegcweqnetpdlrh.jpg,,,>,Place,,,,,1,,,
7,KirstenTest1,Presentation,0,00670941121fa_sunadochqcucscehsgk.jpg,00153931230fa_sunaauhozyxzeeqstxi.jpg,00670941121fa.jpg,sunadochqcucscehsgk.jpg,00153931230fa.jpg,sunaauhozyxzeeqstxi.jpg,,,>,Place,,,,,1,,,
8,KirstenTest1,Presentation,0,00901960530fa_sunammbnoambmhdxdwd.jpg,00996960627fa_sunbpvgllfdejxcpjqp.jpg,00901960530fa.jpg,sunammbnoambmhdxdwd.jpg,00996960627fa.jpg,sunbpvgllfdejxcpjqp.jpg,,,>,Place,,,,,1,,,
9,KirstenTest1,Presentation,0,00095931230fa_sunaahzooisqkwlxwoz.jpg,00887960530_sunalcrtwiycqobgelp.jpg,00095931230fa.jpg,sunaahzooisqkwlxwoz.jpg,00887960530.jpg,sunalcrtwiycqobgelp.jpg,,,>,Place,,,,,1,,,
10,KirstenTest1,Memory,0,,,,,,,sunaajuzribjrizdshh.jpg,,,,,,,,,,,
11,KirstenTest1,Memory,0,,,,,,,00811960530fa.jpg,,,,,,,,,,,
12,KirstenTest1,Memory,0,,,,,,,00694941121fa.jpg,,,,,,,,,,,
13,KirstenTest1,Memory,0,,,,,,,00862940307fa.jpg,,,,,,,,,,,
14,KirstenTest1,Memory,0,,,,,,,sunacxtcahkymosigud.jpg,,,,,,,,,,,
15,KirstenTest1,Memory,0,,,,,,,sunbvbrvgbpanfrawft.jpg,,,,,,,,,,,
16,KirstenTest1,Memory,0,,,,,,,00779941205fa.jpg,,,,,,,,,,,
17,KirstenTest1,Memory,0,,,,,,,sunavspxmxubqaeidjt.jpg,,,,,,,,,,,
18,KirstenTest1,Memory,0,,,,,,,00993960627fa.jpg,,,,,,,,,,,
19,KirstenTest1,Memory,0,,,,,,,sunaauueuhhvklldjik.jpg,,,,,,,,,,,
20,KirstenTest1,Memory,0,,,,,,,00154931230fa.jpg,,,,,,,,,,,
21,KirstenTest1,Memory,0,,,,,,,sunaizgnnplsvajzhkc.jpg,,,,,,,,,,,
22,KirstenTest1,Memory,0,,,,,,,00109931230fa.jpg,,,,,,,,,,,
23,KirstenTest1,Memory,0,,,,,,,sunaavodbcpygkggnfp.jpg,,,,,,,,,,,
24,KirstenTest1,Memory,0,,,,,,,sunadakkdovnuzlycvp.jpg,,,,,,,,,,,
25,KirstenTest1,Memory,0,,,,,,,00747941201fa.jpg,,,,,,,,,,,
26,KirstenTest1,Memory,0,,,,,,,sunaeutbrtswvsozxyk.jpg,,,,,,,,,,,
27,KirstenTest1,Memory,0,,,,,,,00983960627fa.jpg,,,,,,,,,,,
28,KirstenTest1,Memory,0,,,,,,,00901960530fa.jpg,,,,,,,,,,,
29,KirstenTest1,Memory,0,,,,,,,00958960627fa.jpg,,,,,,,,,,,
30,KirstenTest1,Memory,0,,,,,,,00163931230fb.jpg,,,,,,,,,,,
31,KirstenTest1,Memory,0,,,,,,,sunadrmfzmstgdjdcod.jpg,,,,,,,,,,,
32,KirstenTest1,Memory,0,,,,,,,sunadkazmlajmohnwfl.jpg,,,,,,,,,,,
33,KirstenTest1,Memory,0,,,,,,,00630941031fa.jpg,,,,,,,,,,,
34,KirstenTest1,Memory,0,,,,,,,00938960627fa.jpg,,,,,,,,,,,
35,KirstenTest1,Memory,0,,,,,,,sunammbnoambmhdxdwd.jpg,,,,,,,,,,,
36,KirstenTest1,Memory,0,,,,,,,00598941031fa.jpg,,,,,,,,,,,
37,KirstenTest1,Memory,0,,,,,,,sunbfyvfqiimvdaxlqn.jpg,,,,,,,,,,,
38,KirstenTest1,Memory,0,,,,,,,sunahedfrhtcwpneund.jpg,,,,,,,,,,,
39,KirstenTest1,Memory,0,,,,,,,sunadochqcucscehsgk.jpg,,,,,,,,,,,
40,KirstenTest1,Memory,0,,,,,,,sunbaejotfklekvpxcz.jpg,,,,,,,,,,,
41,KirstenTest1,Memory,0,,,,,,,00662941121fa.jpg,,,,,,,,,,,
42,KirstenTest1,Memory,0,,,,,,,00999960627fa.jpg,,,,,,,,,,,
43,KirstenTest1,Memory,0,,,,,,,sunagdzlvkqtpnfxfcg.jpg,,,,,,,,,,,
44,KirstenTest1,Memory,0,,,,,,,sunaauhozyxzeeqstxi.jpg,,,,,,,,,,,
45,KirstenTest1,Memory,0,,,,,,,sunaqyylsngywqzwfmx.jpg,,,,,,,,,,,
46,KirstenTest1,Memory,0,,,,,,,00967960627fa.jpg,,,,,,,,,,,
47,KirstenTest1,Memory,0,,,,,,,00670941121fa.jpg,,,,,,,,,,,
48,KirstenTest1,Memory,0,,,,,,,00153931230fa.jpg,,,,,,,,,,,
49,KirstenTest1,Memory,0,,,,,,,sunbprywzqxjcezkbch.jpg,,,,,,,,,,,
50,KirstenTest1,Presentation,1,00859940307fa_sunaiycurtqsfkvcaso.jpg,00963960627fa_sunayaepykrqvenaqqy.jpg,00859940307fa.jpg,sunaiycurtqsfkvcaso.jpg,00963960627fa.jpg,sunayaepykrqvenaqqy.jpg,,,>,Place,,,,,1,,,
51,KirstenTest1,Presentation,1,00123931230fb_sunaalcrrdbjgdztbiz.jpg,00868960307fa_sunajjxttslobudoqbv.jpg,00123931230fb.jpg,sunaalcrrdbjgdztbiz.jpg,00868960307fa.jpg,sunajjxttslobudoqbv.jpg,,,>,Place,,,,,1,,,
52,KirstenTest1,Presentation,1,00140931230fb_sunaapllqyqlykszopd.jpg,00870940307fa_sunajrgtewnualfcerj.jpg,00140931230fb.jpg,sunaapllqyqlykszopd.jpg,00870940307fa.jpg,sunajrgtewnualfcerj.jpg,,,>,Place,,,,,1,,,
53,KirstenTest1,Presentation,1,00197940128fa_sunaaylzyqlqrsmfwif.jpg,00911960530fa_sunaooaqzputrowwbsw.jpg,00197940128fa.jpg,sunaaylzyqlqrsmfwif.jpg,00911960530fa.jpg,sunaooaqzputrowwbsw.jpg,,,>,Place,,,,,1,,,
54,KirstenTest1,Presentation,1,00062931230fb_sunaaelotvjgibjtjhs.jpg,01005960627fa_sunbwyuesflwdpqtgoy.jpg,00062931230fb.jpg,sunaaelotvjgibjtjhs.jpg,01005960627fa.jpg,sunbwyuesflwdpqtgoy.jpg,,,>,Place,,,,,1,,,
55,KirstenTest1,Presentation,1,00913960530fa_sunaooffzffbhcpirmm.jpg,00807941205fa_sunahawfngukizslzsd.jpg,00913960530fa.jpg,sunaooffzffbhcpirmm.jpg,00807941205fa.jpg,sunahawfngukizslzsd.jpg,,,>,Place,,,,,1,,,
56,KirstenTest1,Presentation,1,00146960620fb_sunaatpeezlljqaxlhj.jpg,00116931230fa_sunaakqepfoeqomfgxf.jpg,00146960620fb.jpg,sunaatpeezlljqaxlhj.jpg,00116931230fa.jpg,sunaakqepfoeqomfgxf.jpg,,,>,Place,,,,,1,,,
57,KirstenTest1,Presentation,1,00162931230fb_sunaavjinpnkappuonm.jpg,00069931230fb_sunaaeowapdkwzqpgqr.jpg,00162931230fb.jpg,sunaavjinpnkappuonm.jpg,00069931230fb.jpg,sunaaeowapdkwzqpgqr.jpg,,,>,Place,,,,,1,,,
58,KirstenTest1,Presentation,1,00532960627fa_sunaccdtpgenvcbcbcf.jpg,00858940307fa_sunaixpqndlwhwjtjek.jpg,00532960627fa.jpg,sunaccdtpgenvcbcbcf.jpg,00858940307fa.jpg,sunaixpqndlwhwjtjek.jpg,,,>,Place,,,,,1,,,
59,KirstenTest1,Presentation,1,00950960627fa_sunasrjlmglmjzbmqxb.jpg,00288940422fa_sunabppokiyglaxpcha.jpg,00950960627fa.jpg,sunasrjlmglmjzbmqxb.jpg,00288940422fa.jpg,sunabppokiyglaxpcha.jpg,,,>,Place,,,,,1,,,
60,KirstenTest1,Memory,1,,,,,,,00749941201fa.jpg,,,,,,,,,,,
61,KirstenTest1,Memory,1,,,,,,,00858940307fa.jpg,,,,,,,,,,,
62,KirstenTest1,Memory,1,,,,,,,sunbwyuesflwdpqtgoy.jpg,,,,,,,,,,,
63,KirstenTest1,Memory,1,,,,,,,sunaapllqyqlykszopd.jpg,,,,,,,,,,,
64,KirstenTest1,Memory,1,,,,,,,00870940307fa.jpg,,,,,,,,,,,
65,KirstenTest1,Memory,1,,,,,,,sunaixpqndlwhwjtjek.jpg,,,,,,,,,,,
66,KirstenTest1,Memory,1,,,,,,,00162931230fb.jpg,,,,,,,,,,,
67,KirstenTest1,Memory,1,,,,,,,00264940128fb.jpg,,,,,,,,,,,
68,KirstenTest1,Memory,1,,,,,,,00532960627fa.jpg,,,,,,,,,,,
69,KirstenTest1,Memory,1,,,,,,,sunafhmnhsdurlvddpw.jpg,,,,,,,,,,,
70,KirstenTest1,Memory,1,,,,,,,sunaejnvnpltdmhbcsi.jpg,,,,,,,,,,,
71,KirstenTest1,Memory,1,,,,,,,sunaapxkpvrhpjplsok.jpg,,,,,,,,,,,
72,KirstenTest1,Memory,1,,,,,,,00763941205fa.jpg,,,,,,,,,,,
73,KirstenTest1,Memory,1,,,,,,,sunaeuvjbmdpknaqqaj.jpg,,,,,,,,,,,
74,KirstenTest1,Memory,1,,,,,,,00720960620fa.jpg,,,,,,,,,,,
75,KirstenTest1,Memory,1,,,,,,,sunaiycurtqsfkvcaso.jpg,,,,,,,,,,,
76,KirstenTest1,Memory,1,,,,,,,00728941205fa.jpg,,,,,,,,,,,
77,KirstenTest1,Memory,1,,,,,,,00568940928fa.jpg,,,,,,,,,,,
78,KirstenTest1,Memory,1,,,,,,,sunacsdhbbsybcyxnel.jpg,,,,,,,,,,,
79,KirstenTest1,Memory,1,,,,,,,sunafvsxtzaizojicxx.jpg,,,,,,,,,,,
80,KirstenTest1,Memory,1,,,,,,,sunajrgtewnualfcerj.jpg,,,,,,,,,,,
81,KirstenTest1,Memory,1,,,,,,,sunaiozxhxgtfrmoagh.jpg,,,,,,,,,,,
82,KirstenTest1,Memory,1,,,,,,,00142931230fb.jpg,,,,,,,,,,,
83,KirstenTest1,Memory,1,,,,,,,sunaakqepfoeqomfgxf.jpg,,,,,,,,,,,
84,KirstenTest1,Memory,1,,,,,,,sunaaeowapdkwzqpgqr.jpg,,,,,,,,,,,
85,KirstenTest1,Memory,1,,,,,,,00262940128fa.jpg,,,,,,,,,,,
86,KirstenTest1,Memory,1,,,,,,,00913960530fa.jpg,,,,,,,,,,,
87,KirstenTest1,Memory,1,,,,,,,00069931230fb.jpg,,,,,,,,,,,
88,KirstenTest1,Memory,1,,,,,,,00140931230fb.jpg,,,,,,,,,,,
89,KirstenTest1,Memory,1,,,,,,,sunaecpkgfewqqreqwe.jpg,,,,,,,,,,,
90,KirstenTest1,Memory,1,,,,,,,00116931230fa.jpg,,,,,,,,,,,
91,KirstenTest1,Memory,1,,,,,,,00838940307fa.jpg,,,,,,,,,,,
92,KirstenTest1,Memory,1,,,,,,,sunabizydfotqddlnjp.jpg,,,,,,,,,,,
93,KirstenTest1,Memory,1,,,,,,,sunaccdtpgenvcbcbcf.jpg,,,,,,,,,,,
94,KirstenTest1,Memory,1,,,,,,,sunaooffzffbhcpirmm.jpg,,,,,,,,,,,
95,KirstenTest1,Memory,1,,,,,,,00859940307fa.jpg,,,,,,,,,,,
96,KirstenTest1,Memory,1,,,,,,,sunaavjinpnkappuonm.jpg,,,,,,,,,,,
97,KirstenTest1,Memory,1,,,,,,,01005960627fa.jpg,,,,,,,,,,,
98,KirstenTest1,Memory,1,,,,,,,00773960620fa.jpg,,,,,,,,,,,
99,KirstenTest1,Memory,1,,,,,,,sunabjzyxcjnmztdonj.jpg,,,,,,,,,,,
100,KirstenTest1,Presentation,2,00638941031fa_sunadfktsqjthoglcsm.jpg,00571940928fa_sunacuatpqpqhyjhjqk.jpg,00638941031fa.jpg,sunadfktsqjthoglcsm.jpg,00571940928fa.jpg,sunacuatpqpqhyjhjqk.jpg,,,<,Face,,,,,1,,,
101,KirstenTest1,Presentation,2,00540940519fa_sunacdnquypmsshhsbk.jpg,00905960530fa_sunanmoqeyprjjjfxjt.jpg,00540940519fa.jpg,sunacdnquypmsshhsbk.jpg,00905960530fa.jpg,sunanmoqeyprjjjfxjt.jpg,,,<,Face,,,,,1,,,
102,KirstenTest1,Presentation,2,00893960530Fa_sunaloffvbvysigxent.jpg,00073931230fa_sunaafbmtoniaasysgu.jpg,00893960530Fa.jpg,sunaloffvbvysigxent.jpg,00073931230fa.jpg,sunaafbmtoniaasysgu.jpg,,,<,Face,,,,,1,,,
103,KirstenTest1,Presentation,2,00787960620fa_sunagoufulkpsxrmklt.jpg,00090931230fa_sunaahedjlmtqekgyvj.jpg,00787960620fa.jpg,sunagoufulkpsxrmklt.jpg,00090931230fa.jpg,sunaahedjlmtqekgyvj.jpg,,,<,Face,,,,,1,,,
104,KirstenTest1,Presentation,2,00864940307fa_sunajawzbrlrwafowen.jpg,00851940307fa_sunaivflshbyfrfzhqb.jpg,00864940307fa.jpg,sunajawzbrlrwafowen.jpg,00851940307fa.jpg,sunaivflshbyfrfzhqb.jpg,,,<,Face,,,,,1,,,
105,KirstenTest1,Presentation,2,00825940307fa_sunahrltmuwbiehihpe.jpg,00784941205fb_sunagjzcrjvmxzqzljx.jpg,00825940307fa.jpg,sunahrltmuwbiehihpe.jpg,00784941205fb.jpg,sunagjzcrjvmxzqzljx.jpg,,,<,Face,,,,,1,,,
106,KirstenTest1,Presentation,2,00965960627fa_sunaydywdmvlfddbxbk.jpg,01003960627fb_sunbwdrdvsweerwsdrj.jpg,00965960627fa.jpg,sunaydywdmvlfddbxbk.jpg,01003960627fb.jpg,sunbwdrdvsweerwsdrj.jpg,,,<,Face,,,,,0,,,
107,KirstenTest1,Presentation,2,00984960627fa_sunbfzchmomnvzhbxdg.jpg,00096931230fa_sunaaiqiqcggrskoqgy.jpg,00984960627fa.jpg,sunbfzchmomnvzhbxdg.jpg,00096931230fa.jpg,sunaaiqiqcggrskoqgy.jpg,,,<,Face,,,,,1,,,
108,KirstenTest1,Presentation,2,00789960620fa_sunagpancjmxqfazssf.jpg,00819940307fa_sunahqldjibofgsfdgb.jpg,00789960620fa.jpg,sunagpancjmxqfazssf.jpg,00819940307fa.jpg,sunahqldjibofgsfdgb.jpg,,,<,Face,,,,,1,,,
109,KirstenTest1,Presentation,2,00193940928fa_sunaaxjpzcnxligjtjq.jpg,00120931230fa_sunaakxgygjfqrzpyoz.jpg,00193940928fa.jpg,sunaaxjpzcnxligjtjq.jpg,00120931230fa.jpg,sunaakxgygjfqrzpyoz.jpg,,,<,Face,,,,,1,,,
110,KirstenTest1,Memory,2,,,,,,,sunaakxgygjfqrzpyoz.jpg,,,,,,,,,,,
111,KirstenTest1,Memory,2,,,,,,,sunabeyhmxodahoieyk.jpg,,,,,,,,,,,
112,KirstenTest1,Memory,2,,,,,,,00893960530Fa.jpg,,,,,,,,,,,
113,KirstenTest1,Memory,2,,,,,,,sunagjzcrjvmxzqzljx.jpg,,,,,,,,,,,
114,KirstenTest1,Memory,2,,,,,,,sunajawzbrlrwafowen.jpg,,,,,,,,,,,
115,KirstenTest1,Memory,2,,,,,,,00133931230fa.jpg,,,,,,,,,,,
116,KirstenTest1,Memory,2,,,,,,,00864940307fa.jpg,,,,,,,,,,,
117,KirstenTest1,Memory,2,,,,,,,00903960620fa.jpg,,,,,,,,,,,
118,KirstenTest1,Memory,2,,,,,,,sunaanlwnpqndclffxt.jpg,,,,,,,,,,,
119,KirstenTest1,Memory,2,,,,,,,sunaloffvbvysigxent.jpg,,,,,,,,,,,
120,KirstenTest1,Memory,2,,,,,,,00245940128fa.jpg,,,,,,,,,,,
121,KirstenTest1,Memory,2,,,,,,,sunaakmxzhuceuiryah.jpg,,,,,,,,,,,
122,KirstenTest1,Memory,2,,,,,,,00800941205fb.jpg,,,,,,,,,,,
123,KirstenTest1,Memory,2,,,,,,,00792941205fa.jpg,,,,,,,,,,,
124,KirstenTest1,Memory,2,,,,,,,sunagsiwrmuixqgdimb.jpg,,,,,,,,,,,
125,KirstenTest1,Memory,2,,,,,,,01009960627fa.jpg,,,,,,,,,,,
126,KirstenTest1,Memory,2,,,,,,,sunanainkqdvktzoxyl.jpg,,,,,,,,,,,
127,KirstenTest1,Memory,2,,,,,,,sunahrltmuwbiehihpe.jpg,,,,,,,,,,,
128,KirstenTest1,Memory,2,,,,,,,00115931230fa.jpg,,,,,,,,,,,
129,KirstenTest1,Memory,2,,,,,,,sunapmfmzadmosuogaz.jpg,,,,,,,,,,,
130,KirstenTest1,Memory,2,,,,,,,00089931230fa.jpg,,,,,,,,,,,
131,KirstenTest1,Memory,2,,,,,,,sunanmoqeyprjjjfxjt.jpg,,,,,,,,,,,
132,KirstenTest1,Memory,2,,,,,,,sunaobtizabegtwfwul.jpg,,,,,,,,,,,
133,KirstenTest1,Memory,2,,,,,,,sunacdnquypmsshhsbk.jpg,,,,,,,,,,,
134,KirstenTest1,Memory,2,,,,,,,00784941205fb.jpg,,,,,,,,,,,
135,KirstenTest1,Memory,2,,,,,,,sunaydywdmvlfddbxbk.jpg,,,,,,,,,,,
136,KirstenTest1,Memory,2,,,,,,,00919960620fa.jpg,,,,,,,,,,,
137,KirstenTest1,Memory,2,,,,,,,sunaagcpoejbuzyvddd.jpg,,,,,,,,,,,
138,KirstenTest1,Memory,2,,,,,,,00965960627fa.jpg,,,,,,,,,,,
139,KirstenTest1,Memory,2,,,,,,,00571940928fa.jpg,,,,,,,,,,,
140,KirstenTest1,Memory,2,,,,,,,sunahqldjibofgsfdgb.jpg,,,,,,,,,,,
141,KirstenTest1,Memory,2,,,,,,,sunacuatpqpqhyjhjqk.jpg,,,,,,,,,,,
142,KirstenTest1,Memory,2,,,,,,,00905960530fa.jpg,,,,,,,,,,,
143,KirstenTest1,Memory,2,,,,,,,00825940307fa.jpg,,,,,,,,,,,
144,KirstenTest1,Memory,2,,,,,,,sunagvjurcwdbixvnyi.jpg,,,,,,,,,,,
145,KirstenTest1,Memory,2,,,,,,,00120931230fa.jpg,,,,,,,,,,,
146,KirstenTest1,Memory,2,,,,,,,sunbxzweleltykebgan.jpg,,,,,,,,,,,
147,KirstenTest1,Memory,2,,,,,,,00819940307fa.jpg,,,,,,,,,,,
148,KirstenTest1,Memory,2,,,,,,,00540940519fa.jpg,,,,,,,,,,,
149,KirstenTest1,Memory,2,,,,,,,00909960530.jpg,,,,,,,,,,,
150,KirstenTest1,Presentation,3,00972960627fa_sunbbfqwjpdxniyhies.jpg,00559940519fa_sunacjkmnpawfzbyvae.jpg,00972960627fa.jpg,sunbbfqwjpdxniyhies.jpg,00559940519fa.jpg,sunacjkmnpawfzbyvae.jpg,,,>,Face,,,,,1,,,
151,KirstenTest1,Presentation,3,00209940128fb_sunabaergayifsgacxt.jpg,00915960620fa_sunapileznnbbmrwoei.jpg,00209940128fb.jpg,sunabaergayifsgacxt.jpg,00915960620fa.jpg,sunapileznnbbmrwoei.jpg,,,>,Face,,,,,1,,,
152,KirstenTest1,Presentation,3,00848940307fa_sunaivdylrawbmhryfp.jpg,00070940307fa_sunaaeplwsfslcbtojr.jpg,00848940307fa.jpg,sunaivdylrawbmhryfp.jpg,00070940307fa.jpg,sunaaeplwsfslcbtojr.jpg,,,>,Face,,,,,1,,,
153,KirstenTest1,Presentation,3,00776941205fa_sunafxokyavhgptyfye.jpg,00184940128fa_sunaavtbadenwnzeutj.jpg,00776941205fa.jpg,sunafxokyavhgptyfye.jpg,00184940128fa.jpg,sunaavtbadenwnzeutj.jpg,,,>,Face,,,,,1,,,
154,KirstenTest1,Presentation,3,00778941205fa_sunagcthdfirrcawoic.jpg,00794960620fa_sunagtqhhwxjeuxdebe.jpg,00778941205fa.jpg,sunagcthdfirrcawoic.jpg,00794960620fa.jpg,sunagtqhhwxjeuxdebe.jpg,,,>,Face,,,,,1,,,
155,KirstenTest1,Presentation,3,00124931230fa_sunaalhlvzmjmitybdn.jpg,00960960627fa_sunawksfbacycuhbrsc.jpg,00124931230fa.jpg,sunaalhlvzmjmitybdn.jpg,00960960627fa.jpg,sunawksfbacycuhbrsc.jpg,,,>,Face,,,,,1,,,
156,KirstenTest1,Presentation,3,00803941205fa_sunagvxkjokqimstxpe.jpg,00743941201fa_sunaeoghzrjarigmwua.jpg,00803941205fa.jpg,sunagvxkjokqimstxpe.jpg,00743941201fa.jpg,sunaeoghzrjarigmwua.jpg,,,>,Face,,,,,1,,,
157,KirstenTest1,Presentation,3,00809960620fa_sunahbvlpavurqoxdeq.jpg,00968960627fa_sunbagfpovqwbuexqdn.jpg,00809960620fa.jpg,sunahbvlpavurqoxdeq.jpg,00968960627fa.jpg,sunbagfpovqwbuexqdn.jpg,,,>,Face,,,,,1,,,
158,KirstenTest1,Presentation,3,00191940128fb_sunaawsdjisukbbginm.jpg,00548940519fa_sunacerqowiaeoqkmsq.jpg,00191940128fb.jpg,sunaawsdjisukbbginm.jpg,00548940519fa.jpg,sunacerqowiaeoqkmsq.jpg,,,>,Face,,,,,1,,,
159,KirstenTest1,Presentation,3,00942960627fa_sunarfdklgdnjgeqfjg.jpg,00101931230fb_sunaajqmsaavkmgbsth.jpg,00942960627fa.jpg,sunarfdklgdnjgeqfjg.jpg,00101931230fb.jpg,sunaajqmsaavkmgbsth.jpg,,,>,Face,,,,,1,,,
160,KirstenTest1,Memory,3,,,,,,,sunagcthdfirrcawoic.jpg,,,,,,,,,,,
161,KirstenTest1,Memory,3,,,,,,,00065931230fb.jpg,,,,,,,,,,,
162,KirstenTest1,Memory,3,,,,,,,sunalntxqqadigcletd.jpg,,,,,,,,,,,
163,KirstenTest1,Memory,3,,,,,,,00124931230fa.jpg,,,,,,,,,,,
164,KirstenTest1,Memory,3,,,,,,,00942960627fa.jpg,,,,,,,,,,,
165,KirstenTest1,Memory,3,,,,,,,sunadbdqzigzwipuipr.jpg,,,,,,,,,,,
166,KirstenTest1,Memory,3,,,,,,,00776941205fa.jpg,,,,,,,,,,,
167,KirstenTest1,Memory,3,,,,,,,sunaivdjruhkrfywfed.jpg,,,,,,,,,,,
168,KirstenTest1,Memory,3,,,,,,,sunbaoizrfijvhpnnjn.jpg,,,,,,,,,,,
169,KirstenTest1,Memory,3,,,,,,,sunasmmcxdddtmtazwx.jpg,,,,,,,,,,,
170,KirstenTest1,Memory,3,,,,,,,sunagvxkjokqimstxpe.jpg,,,,,,,,,,,
171,KirstenTest1,Memory,3,,,,,,,sunafxokyavhgptyfye.jpg,,,,,,,,,,,
172,KirstenTest1,Memory,3,,,,,,,00803941205fa.jpg,,,,,,,,,,,
173,KirstenTest1,Memory,3,,,,,,,01011960627fa.jpg,,,,,,,,,,,
174,KirstenTest1,Memory,3,,,,,,,sunacwggadqsfpovdjv.jpg,,,,,,,,,,,
175,KirstenTest1,Memory,3,,,,,,,00589940928fa.jpg,,,,,,,,,,,
176,KirstenTest1,Memory,3,,,,,,,sunaalhlvzmjmitybdn.jpg,,,,,,,,,,,
177,KirstenTest1,Memory,3,,,,,,,sundahdxwmcdluscvot.jpg,,,,,,,,,,,
178,KirstenTest1,Memory,3,,,,,,,00631940928fa.jpg,,,,,,,,,,,
179,KirstenTest1,Memory,3,,,,,,,00548940519fa.jpg,,,,,,,,,,,
180,KirstenTest1,Memory,3,,,,,,,sunaaemixhfquhnxxlm.jpg,,,,,,,,,,,
181,KirstenTest1,Memory,3,,,,,,,sunarfdklgdnjgeqfjg.jpg,,,,,,,,,,,
182,KirstenTest1,Memory,3,,,,,,,sunaeoghzrjarigmwua.jpg,,,,,,,,,,,
183,KirstenTest1,Memory,3,,,,,,,sunacerqowiaeoqkmsq.jpg,,,,,,,,,,,
184,KirstenTest1,Memory,3,,,,,,,00892960530fa.jpg,,,,,,,,,,,
185,KirstenTest1,Memory,3,,,,,,,00794960620fa.jpg,,,,,,,,,,,
186,KirstenTest1,Memory,3,,,,,,,sunaajspcoepticvplv.jpg,,,,,,,,,,,
187,KirstenTest1,Memory,3,,,,,,,00102931230fa.jpg,,,,,,,,,,,
188,KirstenTest1,Memory,3,,,,,,,sunbagfpovqwbuexqdn.jpg,,,,,,,,,,,
189,KirstenTest1,Memory,3,,,,,,,00778941205fa.jpg,,,,,,,,,,,
190,KirstenTest1,Memory,3,,,,,,,00847940307fa.jpg,,,,,,,,,,,
191,KirstenTest1,Memory,3,,,,,,,00969960627fa.jpg,,,,,,,,,,,
192,KirstenTest1,Memory,3,,,,,,,00988960627fa.jpg,,,,,,,,,,,
193,KirstenTest1,Memory,3,,,,,,,sunagtqhhwxjeuxdebe.jpg,,,,,,,,,,,
194,KirstenTest1,Memory,3,,,,,,,00968960627fa.jpg,,,,,,,,,,,
195,KirstenTest1,Memory,3,,,,,,,00960960627fa.jpg,,,,,,,,,,,
196,KirstenTest1,Memory,3,,,,,,,sunawksfbacycuhbrsc.jpg,,,,,,,,,,,
197,KirstenTest1,Memory,3,,,,,,,00743941201fa.jpg,,,,,,,,,,,
198,KirstenTest1,Memory,3,,,,,,,00947960627fa.jpg,,,,,,,,,,,
199,KirstenTest1,Memory,3,,,,,,,sunbmaiocftdtvnzgap.jpg,,,,,,,,,,,
200,KirstenTest1,Presentation,4,00961960627fa_sunawotxrevnqvamsfp.jpg,00997960627fa_sunbtpilbhhbmhmeuzq.jpg,00961960627fa.jpg,sunawotxrevnqvamsfp.jpg,00997960627fa.jpg,sunbtpilbhhbmhmeuzq.jpg,,,>,Face,,,,,0,,,
201,KirstenTest1,Presentation,4,00076931230fa_sunaafewhewbxmjiurz.jpg,01000960627fa_sunbvzmgrdvaakxusbu.jpg,00076931230fa.jpg,sunaafewhewbxmjiurz.jpg,01000960627fa.jpg,sunbvzmgrdvaakxusbu.jpg,,,>,Face,,,,,1,,,
202,KirstenTest1,Presentation,4,00957960627fa_sunavhxgmgrqsaptynb.jpg,00782941205fa_sunagfvluwixdsozaql.jpg,00957960627fa.jpg,sunavhxgmgrqsaptynb.jpg,00782941205fa.jpg,sunagfvluwixdsozaql.jpg,,,>,Face,,,,,1,,,
203,KirstenTest1,Presentation,4,00242940128fa_sunabcuurugvxwparpk.jpg,00218940128fa_sunabbwggenhfbftyvi.jpg,00242940128fa.jpg,sunabcuurugvxwparpk.jpg,00218940128fa.jpg,sunabbwggenhfbftyvi.jpg,,,>,Face,,,,,0,,,
204,KirstenTest1,Presentation,4,00077931230fb_sunaafgqutfaishsxyu.jpg,00270940422fb_sunabllobxadqcyttej.jpg,00077931230fb.jpg,sunaafgqutfaishsxyu.jpg,00270940422fb.jpg,sunabllobxadqcyttej.jpg,,,>,Face,,,,,1,,,
205,KirstenTest1,Presentation,4,00185940422fb_sunaawqdbpihmlbwyyn.jpg,00081941031fa_sunaaftlyfudyzuhqzf.jpg,00185940422fb.jpg,sunaawqdbpihmlbwyyn.jpg,00081941031fa.jpg,sunaaftlyfudyzuhqzf.jpg,,,>,Face,,,,,1,,,
206,KirstenTest1,Presentation,4,00647941031fa_sunadflbrkckmepztql.jpg,00787941205fa_sunagmwxxwymwojbvgi.jpg,00647941031fa.jpg,sunadflbrkckmepztql.jpg,00787941205fa.jpg,sunagmwxxwymwojbvgi.jpg,,,>,Face,,,,,0,,,
207,KirstenTest1,Presentation,4,00092931230fa_sunaaheqzstzxuadglu.jpg,00082931230fa_sunaafvitpexrpvumsa.jpg,00092931230fa.jpg,sunaaheqzstzxuadglu.jpg,00082931230fa.jpg,sunaafvitpexrpvumsa.jpg,,,>,Face,,,,,1,,,
208,KirstenTest1,Presentation,4,00564940928fa_sunacmpqqfbsvlzinzl.jpg,00235940128fb_sunabclssnoeuigtawp.jpg,00564940928fa.jpg,sunacmpqqfbsvlzinzl.jpg,00235940128fb.jpg,sunabclssnoeuigtawp.jpg,,,>,Face,,,,,1,,,
209,KirstenTest1,Presentation,4,00744941201fa_sunaeomlfaabhpswasy.jpg,00933960627fa_sunapwjkcxdaeqehfql.jpg,00744941201fa.jpg,sunaeomlfaabhpswasy.jpg,00933960627fa.jpg,sunapwjkcxdaeqehfql.jpg,,,>,Face,,,,,1,,,
210,KirstenTest1,Memory,4,,,,,,,sunabkngeblodihjvbk.jpg,,,,,,,,,,,
211,KirstenTest1,Memory,4,,,,,,,01000960627fa.jpg,,,,,,,,,,,
212,KirstenTest1,Memory,4,,,,,,,00753941201fa.jpg,,,,,,,,,,,
213,KirstenTest1,Memory,4,,,,,,,00127931230fa.jpg,,,,,,,,,,,
214,KirstenTest1,Memory,4,,,,,,,00564940928fa.jpg,,,,,,,,,,,
215,KirstenTest1,Memory,4,,,,,,,sunbloeoiozwjjsiamp.jpg,,,,,,,,,,,
216,KirstenTest1,Memory,4,,,,,,,sunaafgqutfaishsxyu.jpg,,,,,,,,,,,
217,KirstenTest1,Memory,4,,,,,,,00082931230fa.jpg,,,,,,,,,,,
218,KirstenTest1,Memory,4,,,,,,,00077931230fb.jpg,,,,,,,,,,,
219,KirstenTest1,Memory,4,,,,,,,00081941031fa.jpg,,,,,,,,,,,
220,KirstenTest1,Memory,4,,,,,,,sunavhxgmgrqsaptynb.jpg,,,,,,,,,,,
221,KirstenTest1,Memory,4,,,,,,,00266940128fb.jpg,,,,,,,,,,,
222,KirstenTest1,Memory,4,,,,,,,sunadsgmtznewzyasnk.jpg,,,,,,,,,,,
223,KirstenTest1,Memory,4,,,,,,,sunagfvluwixdsozaql.jpg,,,,,,,,,,,
224,KirstenTest1,Memory,4,,,,,,,00987960627fa.jpg,,,,,,,,,,,
225,KirstenTest1,Memory,4,,,,,,,sunacacflqoyxhsqzhe.jpg,,,,,,,,,,,
226,KirstenTest1,Memory,4,,,,,,,00235940128fb.jpg,,,,,,,,,,,
227,KirstenTest1,Memory,4,,,,,,,00782941205fa.jpg,,,,,,,,,,,
228,KirstenTest1,Memory,4,,,,,,,sunaeomlfaabhpswasy.jpg,,,,,,,,,,,
229,KirstenTest1,Memory,4,,,,,,,00914960620fa.jpg,,,,,,,,,,,
230,KirstenTest1,Memory,4,,,,,,,sunabclssnoeuigtawp.jpg,,,,,,,,,,,
231,KirstenTest1,Memory,4,,,,,,,sunaaftlyfudyzuhqzf.jpg,,,,,,,,,,,
232,KirstenTest1,Memory,4,,,,,,,sunaafvitpexrpvumsa.jpg,,,,,,,,,,,
233,KirstenTest1,Memory,4,,,,,,,sunaduslxfzlbxlllnz.jpg,,,,,,,,,,,
234,KirstenTest1,Memory,4,,,,,,,sunacmpqqfbsvlzinzl.jpg,,,,,,,,,,,
235,KirstenTest1,Memory,4,,,,,,,00227940128fa.jpg,,,,,,,,,,,
236,KirstenTest1,Memory,4,,,,,,,sunabckqabszusgcykj.jpg,,,,,,,,,,,
237,KirstenTest1,Memory,4,,,,,,,00744941201fa.jpg,,,,,,,,,,,
238,KirstenTest1,Memory,4,,,,,,,sunaafewhewbxmjiurz.jpg,,,,,,,,,,,
239,KirstenTest1,Memory,4,,,,,,,00129931230fb.jpg,,,,,,,,,,,
240,KirstenTest1,Memory,4,,,,,,,00076931230fa.jpg,,,,,,,,,,,
241,KirstenTest1,Memory,4,,,,,,,00700941121fa.jpg,,,,,,,,,,,
242,KirstenTest1,Memory,4,,,,,,,00705960530fa.jpg,,,,,,,,,,,
243,KirstenTest1,Memory,4,,,,,,,00507940519fa.jpg,,,,,,,,,,,
244,KirstenTest1,Memory,4,,,,,,,sunaampvucecsfbdafn.jpg,,,,,,,,,,,
245,KirstenTest1,Memory,4,,,,,,,00957960627fa.jpg,,,,,,,,,,,
246,KirstenTest1,Memory,4,,,,,,,sunaamsdyakblkfoydx.jpg,,,,,,,,,,,
247,KirstenTest1,Memory,4,,,,,,,sunaozisvwfbmlkfhzv.jpg,,,,,,,,,,,
248,KirstenTest1,Memory,4,,,,,,,sunbvzmgrdvaakxusbu.jpg,,,,,,,,,,,
249,KirstenTest1,Memory,4,,,,,,,sunafcofuuzebuadceo.jpg,,,,,,,,,,,
250,KirstenTest1,Presentation,5,00564941031fa_sunacsaovnjezqwbykf.jpg,00132931230fb_sunaanjcbzdvtvblsdy.jpg,00564941031fa.jpg,sunacsaovnjezqwbykf.jpg,00132931230fb.jpg,sunaanjcbzdvtvblsdy.jpg,,,<,Place,,,,,1,,,
251,KirstenTest1,Presentation,5,00766960620fa_sunafijbgncijwykrnl.jpg,00857940307fa_sunaiwfobocrruqznsv.jpg,00766960620fa.jpg,sunafijbgncijwykrnl.jpg,00857940307fa.jpg,sunaiwfobocrruqznsv.jpg,,,<,Place,,,,,1,,,
252,KirstenTest1,Presentation,5,00885960530fa_sunakwlvxjpddialozd.jpg,00816941205fa_sunahmhrncocyhsjpxk.jpg,00885960530fa.jpg,sunakwlvxjpddialozd.jpg,00816941205fa.jpg,sunahmhrncocyhsjpxk.jpg,,,<,Place,,,,,1,,,
253,KirstenTest1,Presentation,5,00978960627fa_sunbddbivbptlrlauhy.jpg,00801941205fa_sunagvprlbprarvgdvj.jpg,00978960627fa.jpg,sunbddbivbptlrlauhy.jpg,00801941205fa.jpg,sunagvprlbprarvgdvj.jpg,,,<,Place,,,,,1,,,
254,KirstenTest1,Presentation,5,00271940422fa_sunabmbnddafmywtjjj.jpg,00267940128fb_sunablfqiwfqomjarht.jpg,00271940422fa.jpg,sunabmbnddafmywtjjj.jpg,00267940128fb.jpg,sunablfqiwfqomjarht.jpg,,,<,Place,,,,,1,,,
255,KirstenTest1,Presentation,5,00771941205fa_sunafowswglhxcsufpo.jpg,00144931230fb_sunaathajvxrgptwhoj.jpg,00771941205fa.jpg,sunafowswglhxcsufpo.jpg,00144931230fb.jpg,sunaathajvxrgptwhoj.jpg,,,<,Place,,,,,1,,,
256,KirstenTest1,Presentation,5,00815941205fa_sunahiphsekjihkafsl.jpg,00834940307fa_sunaibnpvhkdpdnzcnz.jpg,00815941205fa.jpg,sunahiphsekjihkafsl.jpg,00834940307fa.jpg,sunaibnpvhkdpdnzcnz.jpg,,,<,Place,,,,,1,,,
257,KirstenTest1,Presentation,5,00754941201fa_sunaffgsyyvoqdlkmnk.jpg,00986960627fa_sunbgzjryivyczuvkvm.jpg,00754941201fa.jpg,sunaffgsyyvoqdlkmnk.jpg,00986960627fa.jpg,sunbgzjryivyczuvkvm.jpg,,,<,Place,,,,,1,,,
258,KirstenTest1,Presentation,5,00609940928fa_sunacycdoztxoluxjyk.jpg,00866940307fa_sunajbwkywmsqkldfml.jpg,00609940928fa.jpg,sunacycdoztxoluxjyk.jpg,00866940307fa.jpg,sunajbwkywmsqkldfml.jpg,,,<,Place,,,,,1,,,
259,KirstenTest1,Presentation,5,00900960530fa_sunamlotskmmsjeogby.jpg,00908960530fa_sunanwjjyqqwzqrqagd.jpg,00900960530fa.jpg,sunamlotskmmsjeogby.jpg,00908960530fa.jpg,sunanwjjyqqwzqrqagd.jpg,,,<,Place,,,,,1,,,
260,KirstenTest1,Memory,5,,,,,,,00805941205fa.jpg,,,,,,,,,,,
261,KirstenTest1,Memory,5,,,,,,,sunabmbnddafmywtjjj.jpg,,,,,,,,,,,
262,KirstenTest1,Memory,5,,,,,,,00985960627fa.jpg,,,,,,,,,,,
263,KirstenTest1,Memory,5,,,,,,,00854940307fa.jpg,,,,,,,,,,,
264,KirstenTest1,Memory,5,,,,,,,00900960530fa.jpg,,,,,,,,,,,
265,KirstenTest1,Memory,5,,,,,,,00818940307fa.jpg,,,,,,,,,,,
266,KirstenTest1,Memory,5,,,,,,,00816941205fa.jpg,,,,,,,,,,,
267,KirstenTest1,Memory,5,,,,,,,00885960530fa.jpg,,,,,,,,,,,
268,KirstenTest1,Memory,5,,,,,,,sunacjnahdmqfnjfwqx.jpg,,,,,,,,,,,
269,KirstenTest1,Memory,5,,,,,,,00138931230fa.jpg,,,,,,,,,,,
270,KirstenTest1,Memory,5,,,,,,,00866940307fa.jpg,,,,,,,,,,,
271,KirstenTest1,Memory,5,,,,,,,sunbgzjryivyczuvkvm.jpg,,,,,,,,,,,
272,KirstenTest1,Memory,5,,,,,,,sunaanjcbzdvtvblsdy.jpg,,,,,,,,,,,
273,KirstenTest1,Memory,5,,,,,,,sunaapfaivxqoynnwwp.jpg,,,,,,,,,,,
274,KirstenTest1,Memory,5,,,,,,,sunahmhrncocyhsjpxk.jpg,,,,,,,,,,,
275,KirstenTest1,Memory,5,,,,,,,00754941201fa.jpg,,,,,,,,,,,
276,KirstenTest1,Memory,5,,,,,,,sunamlotskmmsjeogby.jpg,,,,,,,,,,,
277,KirstenTest1,Memory,5,,,,,,,00296940422fa.jpg,,,,,,,,,,,
278,KirstenTest1,Memory,5,,,,,,,00271940422fa.jpg,,,,,,,,,,,
279,KirstenTest1,Memory,5,,,,,,,00482940519fa.jpg,,,,,,,,,,,
280,KirstenTest1,Memory,5,,,,,,,00878960530fa.jpg,,,,,,,,,,,
281,KirstenTest1,Memory,5,,,,,,,sunabrwnslxalcohfre.jpg,,,,,,,,,,,
282,KirstenTest1,Memory,5,,,,,,,sunajbwkywmsqkldfml.jpg,,,,,,,,,,,
283,KirstenTest1,Memory,5,,,,,,,sunbgklxeqjhdbyfhhy.jpg,,,,,,,,,,,
284,KirstenTest1,Memory,5,,,,,,,sunabyfxcxhdebvdyfd.jpg,,,,,,,,,,,
285,KirstenTest1,Memory,5,,,,,,,sunahpblecxtmuzkmxb.jpg,,,,,,,,,,,
286,KirstenTest1,Memory,5,,,,,,,00834940307fa.jpg,,,,,,,,,,,
287,KirstenTest1,Memory,5,,,,,,,sunaibnpvhkdpdnzcnz.jpg,,,,,,,,,,,
288,KirstenTest1,Memory,5,,,,,,,sunafowswglhxcsufpo.jpg,,,,,,,,,,,
289,KirstenTest1,Memory,5,,,,,,,sunakgbnzxmfohgehnu.jpg,,,,,,,,,,,
290,KirstenTest1,Memory,5,,,,,,,sunaffgsyyvoqdlkmnk.jpg,,,,,,,,,,,
291,KirstenTest1,Memory,5,,,,,,,00562941031fa.jpg,,,,,,,,,,,
292,KirstenTest1,Memory,5,,,,,,,00935960627fa.jpg,,,,,,,,,,,
293,KirstenTest1,Memory,5,,,,,,,00132931230fb.jpg,,,,,,,,,,,
294,KirstenTest1,Memory,5,,,,,,,00771941205fa.jpg,,,,,,,,,,,
295,KirstenTest1,Memory,5,,,,,,,sunaqbmgkgqucajzrkp.jpg,,,,,,,,,,,
296,KirstenTest1,Memory,5,,,,,,,sunakwlvxjpddialozd.jpg,,,,,,,,,,,
297,KirstenTest1,Memory,5,,,,,,,sunaiwduelojtwaqeyh.jpg,,,,,,,,,,,
298,KirstenTest1,Memory,5,,,,,,,00986960627fa.jpg,,,,,,,,,,,
299,KirstenTest1,Memory,5,,,,,,,sunagwzdbtlixdhgolm.jpg,,,,,,,,,,,
300,KirstenTest1,Presentation,6,00098931230fa_sunaajpqmulidejvjsr.jpg,00505960627fa_sunabzuqsrgcsonqlkz.jpg,00098931230fa.jpg,sunaajpqmulidejvjsr.jpg,00505960627fa.jpg,sunabzuqsrgcsonqlkz.jpg,,,<,Face,,,,,0,,,
301,KirstenTest1,Presentation,6,00877960530fa_sunajxpkuhbizeveguy.jpg,00061931230fb_sunaaekxzjzrfgtkwjf.jpg,00877960530fa.jpg,sunajxpkuhbizeveguy.jpg,00061931230fb.jpg,sunaaekxzjzrfgtkwjf.jpg,,,<,Face,,,,,1,,,
302,KirstenTest1,Presentation,6,00125931230fa_sunaalltyvjhbzhkmvg.jpg,00979960627fa_sunbdycacjfaujxitbw.jpg,00125931230fa.jpg,sunaalltyvjhbzhkmvg.jpg,00979960627fa.jpg,sunbdycacjfaujxitbw.jpg,,,<,Face,,,,,0,,,
303,KirstenTest1,Presentation,6,00822940307fa_sunahqrxievfeusiqlt.jpg,00149931230fa_sunaauglwmctnkxyird.jpg,00822940307fa.jpg,sunahqrxievfeusiqlt.jpg,00149931230fa.jpg,sunaauglwmctnkxyird.jpg,,,<,Face,,,,,1,,,
304,KirstenTest1,Presentation,6,00498960627fa_sunabzjxlmkwnwzimua.jpg,00772941201fa_sunafpfpiiujzoesnqg.jpg,00498960627fa.jpg,sunabzjxlmkwnwzimua.jpg,00772941201fa.jpg,sunafpfpiiujzoesnqg.jpg,,,<,Face,,,,,1,,,
305,KirstenTest1,Presentation,6,00554940519fa_sunacfdkbsrughwqwtt.jpg,00750941201fa_sunaeuzwggvibufclwf.jpg,00554940519fa.jpg,sunacfdkbsrughwqwtt.jpg,00750941201fa.jpg,sunaeuzwggvibufclwf.jpg,,,<,Face,,,,,1,,,
306,KirstenTest1,Presentation,6,00889960530fa_sunaletopenvvozhpxc.jpg,00263940128fb_sunabjuovqvyfuzvqwt.jpg,00889960530fa.jpg,sunaletopenvvozhpxc.jpg,00263940128fb.jpg,sunabjuovqvyfuzvqwt.jpg,,,<,Face,,,,,0,,,
307,KirstenTest1,Presentation,6,00676941121fa_sunadpnqovzckyikrjo.jpg,00063931230fa_sunaaelyvurpntclgau.jpg,00676941121fa.jpg,sunadpnqovzckyikrjo.jpg,00063931230fa.jpg,sunaaelyvurpntclgau.jpg,,,<,Face,,,,,1,,,
308,KirstenTest1,Presentation,6,00208940128fa_sunaazzyhbvqjpmazjq.jpg,00730960620fa_sunaekgzpfilgjxpeyq.jpg,00208940128fa.jpg,sunaazzyhbvqjpmazjq.jpg,00730960620fa.jpg,sunaekgzpfilgjxpeyq.jpg,,,<,Face,,,,,1,,,
309,KirstenTest1,Presentation,6,00239940128fa_sunabctlikybqabezjv.jpg,00775941205fa_sunafvwfsmqkjrutjta.jpg,00239940128fa.jpg,sunabctlikybqabezjv.jpg,00775941205fa.jpg,sunafvwfsmqkjrutjta.jpg,,,<,Face,,,,,1,,,
310,KirstenTest1,Memory,6,,,,,,,00841940307fa.jpg,,,,,,,,,,,
311,KirstenTest1,Memory,6,,,,,,,sunacfdkbsrughwqwtt.jpg,,,,,,,,,,,
312,KirstenTest1,Memory,6,,,,,,,00263940128fb.jpg,,,,,,,,,,,
313,KirstenTest1,Memory,6,,,,,,,sunaisiwfgppimtnmxl.jpg,,,,,,,,,,,
314,KirstenTest1,Memory,6,,,,,,,sunaazezcsunmhttzxz.jpg,,,,,,,,,,,
315,KirstenTest1,Memory,6,,,,,,,sunahuynahneraqftyz.jpg,,,,,,,,,,,
316,KirstenTest1,Memory,6,,,,,,,sunaaelyvurpntclgau.jpg,,,,,,,,,,,
317,KirstenTest1,Memory,6,,,,,,,00125931230fa.jpg,,,,,,,,,,,
318,KirstenTest1,Memory,6,,,,,,,00554940519fa.jpg,,,,,,,,,,,
319,KirstenTest1,Memory,6,,,,,,,00208940128fa.jpg,,,,,,,,,,,
320,KirstenTest1,Memory,6,,,,,,,sunafvwfsmqkjrutjta.jpg,,,,,,,,,,,
321,KirstenTest1,Memory,6,,,,,,,sunapqwnqzxlsfvgsjm.jpg,,,,,,,,,,,
322,KirstenTest1,Memory,6,,,,,,,00775941205fa.jpg,,,,,,,,,,,
323,KirstenTest1,Memory,6,,,,,,,00630940928fa.jpg,,,,,,,,,,,
324,KirstenTest1,Memory,6,,,,,,,00063931230fa.jpg,,,,,,,,,,,
325,KirstenTest1,Memory,6,,,,,,,sunaazzyhbvqjpmazjq.jpg,,,,,,,,,,,
326,KirstenTest1,Memory,6,,,,,,,sunajxpkuhbizeveguy.jpg,,,,,,,,,,,
327,KirstenTest1,Memory,6,,,,,,,00925960627fa.jpg,,,,,,,,,,,
328,KirstenTest1,Memory,6,,,,,,,sunabzuqsrgcsonqlkz.jpg,,,,,,,,,,,
329,KirstenTest1,Memory,6,,,,,,,00773941201fa.jpg,,,,,,,,,,,
330,KirstenTest1,Memory,6,,,,,,,00663941121fa.jpg,,,,,,,,,,,
331,KirstenTest1,Memory,6,,,,,,,sunaaekxzjzrfgtkwjf.jpg,,,,,,,,,,,
332,KirstenTest1,Memory,6,,,,,,,00828940307fa.jpg,,,,,,,,,,,
333,KirstenTest1,Memory,6,,,,,,,00676941121fa.jpg,,,,,,,,,,,
334,KirstenTest1,Memory,6,,,,,,,sunacvzhvcksnwqcqbw.jpg,,,,,,,,,,,
335,KirstenTest1,Memory,6,,,,,,,sunabjuovqvyfuzvqwt.jpg,,,,,,,,,,,
336,KirstenTest1,Memory,6,,,,,,,sunacxeheuiigkcgquf.jpg,,,,,,,,,,,
337,KirstenTest1,Memory,6,,,,,,,00581940928fa.jpg,,,,,,,,,,,
338,KirstenTest1,Memory,6,,,,,,,00061931230fb.jpg,,,,,,,,,,,
339,KirstenTest1,Memory,6,,,,,,,00198940128fb.jpg,,,,,,,,,,,
340,KirstenTest1,Memory,6,,,,,,,sunaczwgyukesaajxnx.jpg,,,,,,,,,,,
341,KirstenTest1,Memory,6,,,,,,,00505960627fa.jpg,,,,,,,,,,,
342,KirstenTest1,Memory,6,,,,,,,00598940928fa.jpg,,,,,,,,,,,
343,KirstenTest1,Memory,6,,,,,,,sunadpnqovzckyikrjo.jpg,,,,,,,,,,,
344,KirstenTest1,Memory,6,,,,,,,00111931230fb.jpg,,,,,,,,,,,
345,KirstenTest1,Memory,6,,,,,,,sunafvcflzhlqloapyo.jpg,,,,,,,,,,,
346,KirstenTest1,Memory,6,,,,,,,sunaalltyvjhbzhkmvg.jpg,,,,,,,,,,,
347,KirstenTest1,Memory,6,,,,,,,00877960530fa.jpg,,,,,,,,,,,
348,KirstenTest1,Memory,6,,,,,,,sunaakgekhjklxmvulj.jpg,,,,,,,,,,,
349,KirstenTest1,Memory,6,,,,,,,sunadnjjzohjhbohlwq.jpg,,,,,,,,,,,
350,KirstenTest1,Presentation,7,00751960620fa_sunaezuszgtxnmsxdbk.jpg,00902960530fa_sunanaacmmosxrfwmvl.jpg,00751960620fa.jpg,sunaezuszgtxnmsxdbk.jpg,00902960530fa.jpg,sunanaacmmosxrfwmvl.jpg,,,<,Place,,,,,1,,,
351,KirstenTest1,Presentation,7,00871940307_sunajrujcsdxmfbssmc.jpg,00635941031fa_sunaddsaeicthrfbkhe.jpg,00871940307.jpg,sunajrujcsdxmfbssmc.jpg,00635941031fa.jpg,sunaddsaeicthrfbkhe.jpg,,,<,Place,,,,,1,,,
352,KirstenTest1,Presentation,7,00943960627fa_sunarpsxqkduedrrzyi.jpg,00746941201fa_sunaetydippjxikifsb.jpg,00943960627fa.jpg,sunarpsxqkduedrrzyi.jpg,00746941201fa.jpg,sunaetydippjxikifsb.jpg,,,<,Place,,,,,0,,,
353,KirstenTest1,Presentation,7,00926960627Fa_sunapqwoeotxshkukbh.jpg,00959960627fa_sunavxokzybtomhbmvm.jpg,00926960627Fa.jpg,sunapqwoeotxshkukbh.jpg,00959960627fa.jpg,sunavxokzybtomhbmvm.jpg,,,<,Place,,,,,1,,,
354,KirstenTest1,Presentation,7,00973960627fa_sunbbgtoeuzierkkajt.jpg,00723941201fa_sunaedtgwjvvziytspa.jpg,00973960627fa.jpg,sunbbgtoeuzierkkajt.jpg,00723941201fa.jpg,sunaedtgwjvvziytspa.jpg,,,<,Place,,,,,1,,,
355,KirstenTest1,Presentation,7,00543940519fa_sunacepzfrmtkiqonpy.jpg,00302940422fa_sunabtlfmiwtljmoues.jpg,00543940519fa.jpg,sunacepzfrmtkiqonpy.jpg,00302940422fa.jpg,sunabtlfmiwtljmoues.jpg,,,<,Place,,,,,1,,,
356,KirstenTest1,Presentation,7,00876960620fa_sunajwqkfsykceonyig.jpg,00112931230fa_sunaakjaacuzulqckgl.jpg,00876960620fa.jpg,sunajwqkfsykceonyig.jpg,00112931230fa.jpg,sunaakjaacuzulqckgl.jpg,,,<,Place,,,,,1,,,
357,KirstenTest1,Presentation,7,00791941205fa_sunagrmyoovzukhxmlo.jpg,00966960627fa_sunaygrtwrwfezqjizr.jpg,00791941205fa.jpg,sunagrmyoovzukhxmlo.jpg,00966960627fa.jpg,sunaygrtwrwfezqjizr.jpg,,,<,Place,,,,,1,,,
358,KirstenTest1,Presentation,7,00970960627fa_sunbasypfgzjtomktmu.jpg,00882960530fa_sunaknlirqjqiwbbeeg.jpg,00970960627fa.jpg,sunbasypfgzjtomktmu.jpg,00882960530fa.jpg,sunaknlirqjqiwbbeeg.jpg,,,<,Place,,,,,1,,,
359,KirstenTest1,Presentation,7,00122931230fa_sunaakxjfbrrequcjmx.jpg,00529940519fa_sunacbeefkxpymwevpk.jpg,00122931230fa.jpg,sunaakxjfbrrequcjmx.jpg,00529940519fa.jpg,sunacbeefkxpymwevpk.jpg,,,<,Place,,,,,1,,,
360,KirstenTest1,Memory,7,,,,,,,00308940422fb.jpg,,,,,,,,,,,
361,KirstenTest1,Memory,7,,,,,,,sunapqwoeotxshkukbh.jpg,,,,,,,,,,,
362,KirstenTest1,Memory,7,,,,,,,sunajrujcsdxmfbssmc.jpg,,,,,,,,,,,
363,KirstenTest1,Memory,7,,,,,,,00529940519fa.jpg,,,,,,,,,,,
364,KirstenTest1,Memory,7,,,,,,,sunbbgtoeuzierkkajt.jpg,,,,,,,,,,,
365,KirstenTest1,Memory,7,,,,,,,00966960627fa.jpg,,,,,,,,,,,
366,KirstenTest1,Memory,7,,,,,,,00871940307.jpg,,,,,,,,,,,
367,KirstenTest1,Memory,7,,,,,,,00973960627fa.jpg,,,,,,,,,,,
368,KirstenTest1,Memory,7,,,,,,,sunaetydippjxikifsb.jpg,,,,,,,,,,,
369,KirstenTest1,Memory,7,,,,,,,00305940422fa.jpg,,,,,,,,,,,
370,KirstenTest1,Memory,7,,,,,,,00136931230fb.jpg,,,,,,,,,,,
371,KirstenTest1,Memory,7,,,,,,,00926960627Fa.jpg,,,,,,,,,,,
372,KirstenTest1,Memory,7,,,,,,,00147931230fb.jpg,,,,,,,,,,,
373,KirstenTest1,Memory,7,,,,,,,00774941201fa.jpg,,,,,,,,,,,
374,KirstenTest1,Memory,7,,,,,,,sunafvtpfczkzopbgue.jpg,,,,,,,,,,,
375,KirstenTest1,Memory,7,,,,,,,00921960627fa.jpg,,,,,,,,,,,
376,KirstenTest1,Memory,7,,,,,,,sunabwfvcqqidycwypa.jpg,,,,,,,,,,,
377,KirstenTest1,Memory,7,,,,,,,sunaddsaeicthrfbkhe.jpg,,,,,,,,,,,
378,KirstenTest1,Memory,7,,,,,,,00122931230fa.jpg,,,,,,,,,,,
379,KirstenTest1,Memory,7,,,,,,,sunabtrnbvpppgczjim.jpg,,,,,,,,,,,
380,KirstenTest1,Memory,7,,,,,,,00976960627fa.jpg,,,,,,,,,,,
381,KirstenTest1,Memory,7,,,,,,,sunbbhqyyzmsxhsbjmp.jpg,,,,,,,,,,,
382,KirstenTest1,Memory,7,,,,,,,sunacvbrcejzwmcgnoq.jpg,,,,,,,,,,,
383,KirstenTest1,Memory,7,,,,,,,00876960620fa.jpg,,,,,,,,,,,
384,KirstenTest1,Memory,7,,,,,,,sunaakjaacuzulqckgl.jpg,,,,,,,,,,,
385,KirstenTest1,Memory,7,,,,,,,00574940928fa.jpg,,,,,,,,,,,
386,KirstenTest1,Memory,7,,,,,,,sunaaexqbtdswxrqjvz.jpg,,,,,,,,,,,
387,KirstenTest1,Memory,7,,,,,,,sunaygrtwrwfezqjizr.jpg,,,,,,,,,,,
388,KirstenTest1,Memory,7,,,,,,,00071941031fa.jpg,,,,,,,,,,,
389,KirstenTest1,Memory,7,,,,,,,00635941031fa.jpg,,,,,,,,,,,
390,KirstenTest1,Memory,7,,,,,,,sunaamvxnvouicstkjb.jpg,,,,,,,,,,,
391,KirstenTest1,Memory,7,,,,,,,sunajwqkfsykceonyig.jpg,,,,,,,,,,,
392,KirstenTest1,Memory,7,,,,,,,sunapqkpqdfvxlbqwyo.jpg,,,,,,,,,,,
393,KirstenTest1,Memory,7,,,,,,,sunaanptmsknhirrzed.jpg,,,,,,,,,,,
394,KirstenTest1,Memory,7,,,,,,,sunaakxjfbrrequcjmx.jpg,,,,,,,,,,,
395,KirstenTest1,Memory,7,,,,,,,00746941201fa.jpg,,,,,,,,,,,
396,KirstenTest1,Memory,7,,,,,,,sunacbeefkxpymwevpk.jpg,,,,,,,,,,,
397,KirstenTest1,Memory,7,,,,,,,00112931230fa.jpg,,,,,,,,,,,
398,KirstenTest1,Memory,7,,,,,,,sunaatpkocdkocwxpkb.jpg,,,,,,,,,,,
399,KirstenTest1,Memory,7,,,,,,,00130931230fa.jpg,,,,,,,,,,,
