,Subject,Trial Type,Run,Cued Composite,Uncued Composite,Cued Face,Cued Place,Uncued Face,Uncued Place,Memory Image,Category,Cued Side,Cued Category,Attention Reaction Time (s),Familiarity Reaction Time (s),Familiarity Rating,Attention Level,Cue Validity,Post Invalid Cue,Pre Invalid Cue,Attention Button,Rating History,Stimulus Onset,Stimulus End,Attention Probe
10,9,Memory,0,,,,,,,sunaffgsyyvoqdlkmnk.jpg,,,,,2.553,4,,,,,,,1538580857.327093,1538580859.943912,
11,9,Memory,0,,,,,,,sunabeyhmxodahoieyk.jpg,,,,,1.835,2,,,,,,,1538580861.37833,1538580863.813039,
12,9,Memory,0,,,,,,,00564941031fa.jpg,,,,,1.689,2,,,,,,,1538580865.245376,1538580867.614402,
13,9,Memory,0,,,,,,,sunaajpqmulidejvjsr.jpg,,,,,2.021,3,,,,,,,1538580869.01372,1538580871.331571,
14,9,Memory,0,,,,,,,sunacsaovnjezqwbykf.jpg,,,,,1.752,1,,,,,,,1538580872.732664,1538580875.198734,
15,9,Memory,0,,,,,,,00847940307fa.jpg,,,,,1.804,1,,,,,,,1538580876.684943,1538580879.150918,
16,9,Memory,0,,,,,,,sunaawqdbpihmlbwyyn.jpg,,,,,1.352,1,,,,,,,1538580880.551491,1538580882.968445,
17,9,Memory,0,,,,,,,00073931230fa.jpg,,,,,1.054,2,,,,,,,1538580884.435454,1538580886.852761,
18,9,Memory,0,,,,,,,sunasnqkkyhilqkxiqm.jpg,,,,,1.97,2,,,,,,,1538580888.319887,1538580890.787929,
19,9,Memory,0,,,,,,,00062931230fb.jpg,,,,,0.985,1,,,,,,,1538580892.204816,1538580894.622893,
20,9,Memory,0,,,,,,,00949960627fb.jpg,,,,,1.069,2,,,,,,,1538580895.990138,1538580898.441352,
21,9,Memory,0,,,,,,,00968960627fa.jpg,,,,,1.037,2,,,,,,,1538580899.874174,1538580902.375042,
22,9,Memory,0,,,,,,,00574940928fa.jpg,,,,,1.42,2,,,,,,,1538580903.808379,1538580906.192604,
23,9,Memory,0,,,,,,,00185940422fb.jpg,,,,,0.918,1,,,,,,,1538580907.542601,1538580909.893404,
24,9,Memory,0,,,,,,,00564940928fa.jpg,,,,,0.0,,,,,,,,1538580911.311688,1538580913.927991,
25,9,Memory,0,,,,,,,sunacmpqqfbsvlzinzl.jpg,,,,,1.354,2,,,,,,,1538580915.362433,1538580917.663002,
26,9,Memory,0,,,,,,,00098931230fa.jpg,,,,,2.038,1,,,,,,,1538580919.096629,1538580921.448207,
27,9,Memory,0,,,,,,,00925960627fa.jpg,,,,,1.151,1,,,,,,,1538580922.848514,1538580925.298726,
28,9,Memory,0,,,,,,,sunbvzmgrdvaakxusbu.jpg,,,,,1.402,1,,,,,,,1538580926.650326,1538580929.116687,
29,9,Memory,0,,,,,,,sunapqwnqzxlsfvgsjm.jpg,,,,,0.0,,,,,,,,1538580930.517752,1538580933.018695,
30,9,Memory,0,,,,,,,01000960627fa.jpg,,,,,1.354,2,,,,,,,1538580934.534834,1538580936.919537,
31,9,Memory,0,,,,,,,sunagjeesomrwjsfqie.jpg,,,,,1.752,4,,,,,,,1538580938.286395,1538580940.67141,
32,9,Memory,0,,,,,,,sunaaelotvjgibjtjhs.jpg,,,,,1.403,2,,,,,,,1538580942.12155,1538580944.554643,
33,9,Memory,0,,,,,,,sunaahedjlmtqekgyvj.jpg,,,,,1.304,1,,,,,,,1538580945.973195,1538580948.4227,
34,9,Memory,0,,,,,,,sunajwqkfsykceonyig.jpg,,,,,1.604,2,,,,,,,1538580949.822816,1538580952.240807,
35,9,Memory,0,,,,,,,sunaafbmtoniaasysgu.jpg,,,,,1.468,1,,,,,,,1538580953.640978,1538580955.95902,
36,9,Memory,0,,,,,,,00245940128fa.jpg,,,,,1.321,4,,,,,,,1538580957.460175,1538580959.927238,
37,9,Memory,0,,,,,,,sunaathajvxrgptwhoj.jpg,,,,,1.536,1,,,,,,,1538580961.327538,1538580963.710689,
38,9,Memory,0,,,,,,,00218940128fa.jpg,,,,,1.087,2,,,,,,,1538580965.111533,1538580967.429597,
39,9,Memory,0,,,,,,,sunacvbrcejzwmcgnoq.jpg,,,,,2.203,3,,,,,,,1538580968.796491,1538580971.247681,
40,9,Memory,0,,,,,,,00144931230fb.jpg,,,,,1.37,3,,,,,,,1538580972.648017,1538580975.097403,
41,9,Memory,0,,,,,,,sunaivdjruhkrfywfed.jpg,,,,,1.236,1,,,,,,,1538580976.465638,1538580978.865544,
42,9,Memory,0,,,,,,,sunbagfpovqwbuexqdn.jpg,,,,,1.621,4,,,,,,,1538580980.198509,1538580982.667145,
43,9,Memory,0,,,,,,,sunaiozxhxgtfrmoagh.jpg,,,,,1.652,3,,,,,,,1538580984.018372,1538580986.418877,
44,9,Memory,0,,,,,,,00838940307fa.jpg,,,,,1.137,2,,,,,,,1538580987.852486,1538580990.27083,
45,9,Memory,0,,,,,,,sunabbwggenhfbftyvi.jpg,,,,,2.153,2,,,,,,,1538580991.771204,1538580994.221049,
46,9,Memory,0,,,,,,,00783941205fa.jpg,,,,,1.367,2,,,,,,,1538580995.655365,1538580998.12215,
47,9,Memory,0,,,,,,,00090931230fa.jpg,,,,,2.037,1,,,,,,,1538580999.58974,1538581001.991316,
48,9,Memory,0,,,,,,,00876960620fa.jpg,,,,,1.703,1,,,,,,,1538581003.391209,1538581005.792377,
49,9,Memory,0,,,,,,,00754941201fa.jpg,,,,,1.055,1,,,,,,,1538581007.225872,1538581009.608903,
