,Subject,Trial Type,Run,Cued Composite,Uncued Composite,Cued Face,Cued Place,Uncued Face,Uncued Place,Memory Image,Category,Cued Side,Cued Category,Attention Reaction Time (s),Familiarity Reaction Time (s),Familiarity Rating,Attention Level,Cue Validity,Post Invalid Cue,Pre Invalid Cue,Attention Button,Rating History,Stimulus Onset,Stimulus End,Attention Probe
0,12,Presentation,0,00770941201fa_sunaflojskatpeqyzqp.jpg,00730960620fa_sunaekgzpfilgjxpeyq.jpg,00770941201fa.jpg,sunaflojskatpeqyzqp.jpg,00730960620fa.jpg,sunaekgzpfilgjxpeyq.jpg,,,<,Place,,,,,1,,,,,,,x
1,12,Presentation,0,00270940422fb_sunabllobxadqcyttej.jpg,00999960627fa_sunbvbrvgbpanfrawft.jpg,00270940422fb.jpg,sunabllobxadqcyttej.jpg,00999960627fa.jpg,sunbvbrvgbpanfrawft.jpg,,,<,Face,,,,,1,,,,,,,o
2,12,Presentation,0,00108960530fa_sunaajtnvzzpsjdzres.jpg,00908960530fa_sunanwjjyqqwzqrqagd.jpg,00108960530fa.jpg,sunaajtnvzzpsjdzres.jpg,00908960530fa.jpg,sunanwjjyqqwzqrqagd.jpg,,,>,Face,,,,,1,,,,,,,x
3,12,Presentation,0,00294940422fb_sunabrlndkruqokhury.jpg,00885960530fa_sunakwlvxjpddialozd.jpg,00294940422fb.jpg,sunabrlndkruqokhury.jpg,00885960530fa.jpg,sunakwlvxjpddialozd.jpg,,,>,Face,,,,,1,,,,,,,o
4,12,Presentation,0,00836940307fa_sunainqelldeebvxtcz.jpg,00663941121fa_sunadnjjzohjhbohlwq.jpg,00836940307fa.jpg,sunainqelldeebvxtcz.jpg,00663941121fa.jpg,sunadnjjzohjhbohlwq.jpg,,,<,Place,,,,,1,,,,,,,o
5,12,Presentation,0,00909960530_sunaobtizabegtwfwul.jpg,00828940307fa_sunahuynahneraqftyz.jpg,00909960530.jpg,sunaobtizabegtwfwul.jpg,00828940307fa.jpg,sunahuynahneraqftyz.jpg,,,<,Place,,,,,1,,,,,,,o
6,12,Presentation,0,00892960530fa_sunalntxqqadigcletd.jpg,00554940519fa_sunacfdkbsrughwqwtt.jpg,00892960530fa.jpg,sunalntxqqadigcletd.jpg,00554940519fa.jpg,sunacfdkbsrughwqwtt.jpg,,,>,Face,,,,,1,,,,,,,o
7,12,Presentation,0,00557940519fa_sunachtuarilwyqnvjx.jpg,00218940128fa_sunabbwggenhfbftyvi.jpg,00557940519fa.jpg,sunachtuarilwyqnvjx.jpg,00218940128fa.jpg,sunabbwggenhfbftyvi.jpg,,,>,Place,,,,,1,,,,,,,o
8,12,Presentation,0,00961960627fa_sunawotxrevnqvamsfp.jpg,00073931230fa_sunaafbmtoniaasysgu.jpg,00961960627fa.jpg,sunawotxrevnqvamsfp.jpg,00073931230fa.jpg,sunaafbmtoniaasysgu.jpg,,,<,Face,,,,,1,,,,,,,o
9,12,Presentation,0,00239940128fa_sunabctlikybqabezjv.jpg,00197940128fa_sunaaylzyqlqrsmfwif.jpg,00239940128fa.jpg,sunabctlikybqabezjv.jpg,00197940128fa.jpg,sunaaylzyqlqrsmfwif.jpg,,,>,Place,,,,,1,,,,,,,x
10,12,Memory,0,,,,,,,sunabaergayifsgacxt.jpg,,,,,,,,,,,,,,,
11,12,Memory,0,,,,,,,00270940422fb.jpg,,,,,,,,,,,,,,,
12,12,Memory,0,,,,,,,00663941121fa.jpg,,,,,,,,,,,,,,,
13,12,Memory,0,,,,,,,sunabllobxadqcyttej.jpg,,,,,,,,,,,,,,,
14,12,Memory,0,,,,,,,sundbixjudsgeuuehrn.jpg,,,,,,,,,,,,,,,
15,12,Memory,0,,,,,,,sunaaexqbtdswxrqjvz.jpg,,,,,,,,,,,,,,,
16,12,Memory,0,,,,,,,sunahuynahneraqftyz.jpg,,,,,,,,,,,,,,,
17,12,Memory,0,,,,,,,00773960620fa.jpg,,,,,,,,,,,,,,,
18,12,Memory,0,,,,,,,sunaaylzyqlqrsmfwif.jpg,,,,,,,,,,,,,,,
19,12,Memory,0,,,,,,,01207940128fa.jpg,,,,,,,,,,,,,,,
20,12,Memory,0,,,,,,,00828940307fa.jpg,,,,,,,,,,,,,,,
21,12,Memory,0,,,,,,,00197940128fa.jpg,,,,,,,,,,,,,,,
22,12,Memory,0,,,,,,,sunaddtdkycxbqlpfqa.jpg,,,,,,,,,,,,,,,
23,12,Memory,0,,,,,,,00725941201fa.jpg,,,,,,,,,,,,,,,
24,12,Memory,0,,,,,,,00636941031fa.jpg,,,,,,,,,,,,,,,
25,12,Memory,0,,,,,,,sunaauhozyxzeeqstxi.jpg,,,,,,,,,,,,,,,
26,12,Memory,0,,,,,,,01009960627fa.jpg,,,,,,,,,,,,,,,
27,12,Memory,0,,,,,,,00294940422fb.jpg,,,,,,,,,,,,,,,
28,12,Memory,0,,,,,,,sunanwjjyqqwzqrqagd.jpg,,,,,,,,,,,,,,,
29,12,Memory,0,,,,,,,00836940307fa.jpg,,,,,,,,,,,,,,,
30,12,Memory,0,,,,,,,sunaajtnvzzpsjdzres.jpg,,,,,,,,,,,,,,,
31,12,Memory,0,,,,,,,sunadnjjzohjhbohlwq.jpg,,,,,,,,,,,,,,,
32,12,Memory,0,,,,,,,sunaekgzpfilgjxpeyq.jpg,,,,,,,,,,,,,,,
33,12,Memory,0,,,,,,,00209940128fb.jpg,,,,,,,,,,,,,,,
34,12,Memory,0,,,,,,,00770941201fa.jpg,,,,,,,,,,,,,,,
35,12,Memory,0,,,,,,,sunaefgzwiramypjvtd.jpg,,,,,,,,,,,,,,,
36,12,Memory,0,,,,,,,sunbxzweleltykebgan.jpg,,,,,,,,,,,,,,,
37,12,Memory,0,,,,,,,00153931230fa.jpg,,,,,,,,,,,,,,,
38,12,Memory,0,,,,,,,00108960530fa.jpg,,,,,,,,,,,,,,,
39,12,Memory,0,,,,,,,sunadpnqovzckyikrjo.jpg,,,,,,,,,,,,,,,
40,12,Memory,0,,,,,,,sunaflojskatpeqyzqp.jpg,,,,,,,,,,,,,,,
41,12,Memory,0,,,,,,,sunaanptmsknhirrzed.jpg,,,,,,,,,,,,,,,
42,12,Memory,0,,,,,,,sunafvsxtzaizojicxx.jpg,,,,,,,,,,,,,,,
43,12,Memory,0,,,,,,,00908960530fa.jpg,,,,,,,,,,,,,,,
44,12,Memory,0,,,,,,,sunabrlndkruqokhury.jpg,,,,,,,,,,,,,,,
45,12,Memory,0,,,,,,,00136931230fb.jpg,,,,,,,,,,,,,,,
46,12,Memory,0,,,,,,,sunainqelldeebvxtcz.jpg,,,,,,,,,,,,,,,
47,12,Memory,0,,,,,,,00071941031fa.jpg,,,,,,,,,,,,,,,
48,12,Memory,0,,,,,,,00730960620fa.jpg,,,,,,,,,,,,,,,
49,12,Memory,0,,,,,,,00676941121fa.jpg,,,,,,,,,,,,,,,
50,12,Presentation,1,00280940422fb_sunabohxbskznglnrhv.jpg,00860940307fa_sunaizeyhvjzknwjudw.jpg,00280940422fb.jpg,sunabohxbskznglnrhv.jpg,00860940307fa.jpg,sunaizeyhvjzknwjudw.jpg,,,<,Place,,,,,1,,,,,,,x
51,12,Presentation,1,00800941205fb_sunagvjurcwdbixvnyi.jpg,00789960620fa_sunagpancjmxqfazssf.jpg,00800941205fb.jpg,sunagvjurcwdbixvnyi.jpg,00789960620fa.jpg,sunagpancjmxqfazssf.jpg,,,>,Place,,,,,1,,,,,,,x
52,12,Presentation,1,00115931230fa_sunaakmxzhuceuiryah.jpg,00564941031fa_sunacsaovnjezqwbykf.jpg,00115931230fa.jpg,sunaakmxzhuceuiryah.jpg,00564941031fa.jpg,sunacsaovnjezqwbykf.jpg,,,>,Face,,,,,1,,,,,,,x
53,12,Presentation,1,00154931230fa_sunaauueuhhvklldjik.jpg,00650941031fa_sunadikxpvqeabxrvvc.jpg,00154931230fa.jpg,sunaauueuhhvklldjik.jpg,00650941031fa.jpg,sunadikxpvqeabxrvvc.jpg,,,>,Face,,,,,1,,,,,,,x
54,12,Presentation,1,00129931230fb_sunaamsdyakblkfoydx.jpg,00807941205fa_sunahawfngukizslzsd.jpg,00129931230fb.jpg,sunaamsdyakblkfoydx.jpg,00807941205fa.jpg,sunahawfngukizslzsd.jpg,,,<,Face,,,,,1,,,,,,,x
55,12,Presentation,1,00839940307fa_sunaipyohrqlwngaqif.jpg,00804960530fa_sunagwswhkvnsmuszlz.jpg,00839940307fa.jpg,sunaipyohrqlwngaqif.jpg,00804960530fa.jpg,sunagwswhkvnsmuszlz.jpg,,,<,Face,,,,,1,,,,,,,x
56,12,Presentation,1,00929960627fa_sunaprnrbmgkomdbchr.jpg,00705941205fa_sunadtlxenqqxsyjvix.jpg,00929960627fa.jpg,sunaprnrbmgkomdbchr.jpg,00705941205fa.jpg,sunadtlxenqqxsyjvix.jpg,,,>,Place,,,,,1,,,,,,,x
57,12,Presentation,1,00260940128fa_sunabgfhvifeijihhjw.jpg,00987960627fa_sunbloeoiozwjjsiamp.jpg,00260940128fa.jpg,sunabgfhvifeijihhjw.jpg,00987960627fa.jpg,sunbloeoiozwjjsiamp.jpg,,,<,Place,,,,,1,,,,,,,o
58,12,Presentation,1,00989960627fa_sunbondbduabvijnmch.jpg,00130931230fa_sunaamvxnvouicstkjb.jpg,00989960627fa.jpg,sunbondbduabvijnmch.jpg,00130931230fa.jpg,sunaamvxnvouicstkjb.jpg,,,>,Place,,,,,1,,,,,,,o
59,12,Presentation,1,00955960627fb_sunauburywlkjszngcq.jpg,00062931230fb_sunaaelotvjgibjtjhs.jpg,00955960627fb.jpg,sunauburywlkjszngcq.jpg,00062931230fb.jpg,sunaaelotvjgibjtjhs.jpg,,,<,Face,,,,,1,,,,,,,o
60,12,Memory,1,,,,,,,00987960627fa.jpg,,,,,,,,,,,,,,,
61,12,Memory,1,,,,,,,00705960530fa.jpg,,,,,,,,,,,,,,,
62,12,Memory,1,,,,,,,00245940128fa.jpg,,,,,,,,,,,,,,,
63,12,Memory,1,,,,,,,00142931230fb.jpg,,,,,,,,,,,,,,,
64,12,Memory,1,,,,,,,sunaakmxzhuceuiryah.jpg,,,,,,,,,,,,,,,
65,12,Memory,1,,,,,,,sunaajpqmulidejvjsr.jpg,,,,,,,,,,,,,,,
66,12,Memory,1,,,,,,,00280940422fb.jpg,,,,,,,,,,,,,,,
67,12,Memory,1,,,,,,,sunaapxkpvrhpjplsok.jpg,,,,,,,,,,,,,,,
68,12,Memory,1,,,,,,,00564941031fa.jpg,,,,,,,,,,,,,,,
69,12,Memory,1,,,,,,,sunabeyhmxodahoieyk.jpg,,,,,,,,,,,,,,,
70,12,Memory,1,,,,,,,sunagpancjmxqfazssf.jpg,,,,,,,,,,,,,,,
71,12,Memory,1,,,,,,,sunaaemixhfquhnxxlm.jpg,,,,,,,,,,,,,,,
72,12,Memory,1,,,,,,,sunaauueuhhvklldjik.jpg,,,,,,,,,,,,,,,
73,12,Memory,1,,,,,,,sunabohxbskznglnrhv.jpg,,,,,,,,,,,,,,,
74,12,Memory,1,,,,,,,sunaduslxfzlbxlllnz.jpg,,,,,,,,,,,,,,,
75,12,Memory,1,,,,,,,00955960627fb.jpg,,,,,,,,,,,,,,,
76,12,Memory,1,,,,,,,00993960627fa.jpg,,,,,,,,,,,,,,,
77,12,Memory,1,,,,,,,sunbloeoiozwjjsiamp.jpg,,,,,,,,,,,,,,,
78,12,Memory,1,,,,,,,sunauburywlkjszngcq.jpg,,,,,,,,,,,,,,,
79,12,Memory,1,,,,,,,00858940307fa.jpg,,,,,,,,,,,,,,,
80,12,Memory,1,,,,,,,00789960620fa.jpg,,,,,,,,,,,,,,,
81,12,Memory,1,,,,,,,sunaibnpvhkdpdnzcnz.jpg,,,,,,,,,,,,,,,
82,12,Memory,1,,,,,,,sunbaoizrfijvhpnnjn.jpg,,,,,,,,,,,,,,,
83,12,Memory,1,,,,,,,00989960627fa.jpg,,,,,,,,,,,,,,,
84,12,Memory,1,,,,,,,sunbprywzqxjcezkbch.jpg,,,,,,,,,,,,,,,
85,12,Memory,1,,,,,,,sunacsaovnjezqwbykf.jpg,,,,,,,,,,,,,,,
86,12,Memory,1,,,,,,,00650941031fa.jpg,,,,,,,,,,,,,,,
87,12,Memory,1,,,,,,,sunaloffvbvysigxent.jpg,,,,,,,,,,,,,,,
88,12,Memory,1,,,,,,,00115931230fa.jpg,,,,,,,,,,,,,,,
89,12,Memory,1,,,,,,,sunaaelotvjgibjtjhs.jpg,,,,,,,,,,,,,,,
90,12,Memory,1,,,,,,,00893960530Fa.jpg,,,,,,,,,,,,,,,
91,12,Memory,1,,,,,,,sunadikxpvqeabxrvvc.jpg,,,,,,,,,,,,,,,
92,12,Memory,1,,,,,,,00834940307fa.jpg,,,,,,,,,,,,,,,
93,12,Memory,1,,,,,,,00062931230fb.jpg,,,,,,,,,,,,,,,
94,12,Memory,1,,,,,,,00969960627fa.jpg,,,,,,,,,,,,,,,
95,12,Memory,1,,,,,,,sunbondbduabvijnmch.jpg,,,,,,,,,,,,,,,
96,12,Memory,1,,,,,,,00154931230fa.jpg,,,,,,,,,,,,,,,
97,12,Memory,1,,,,,,,sunaixpqndlwhwjtjek.jpg,,,,,,,,,,,,,,,
98,12,Memory,1,,,,,,,00065931230fb.jpg,,,,,,,,,,,,,,,
99,12,Memory,1,,,,,,,00098931230fa.jpg,,,,,,,,,,,,,,,
100,12,Presentation,2,00749941201fa_sunaeuvjbmdpknaqqaj.jpg,00630941031fa_sunadakkdovnuzlycvp.jpg,00749941201fa.jpg,sunaeuvjbmdpknaqqaj.jpg,00630941031fa.jpg,sunadakkdovnuzlycvp.jpg,,,>,Place,,,,,1,,,,,,,x
101,12,Presentation,2,00305940422fa_sunabtrnbvpppgczjim.jpg,00081941031fa_sunaaftlyfudyzuhqzf.jpg,00305940422fa.jpg,sunabtrnbvpppgczjim.jpg,00081941031fa.jpg,sunaaftlyfudyzuhqzf.jpg,,,>,Place,,,,,1,,,,,,,o
102,12,Presentation,2,00149931230fa_sunaauglwmctnkxyird.jpg,00864940307fa_sunajawzbrlrwafowen.jpg,00149931230fa.jpg,sunaauglwmctnkxyird.jpg,00864940307fa.jpg,sunajawzbrlrwafowen.jpg,,,<,Place,,,,,1,,,,,,,o
103,12,Presentation,2,00778941205fa_sunagcthdfirrcawoic.jpg,00609940928fa_sunacycdoztxoluxjyk.jpg,00778941205fa.jpg,sunagcthdfirrcawoic.jpg,00609940928fa.jpg,sunacycdoztxoluxjyk.jpg,,,<,Face,,,,,1,,,,,,,x
104,12,Presentation,2,00288940422fa_sunabppokiyglaxpcha.jpg,00952960627fa_sunathzzbcwjykldrem.jpg,00288940422fa.jpg,sunabppokiyglaxpcha.jpg,00952960627fa.jpg,sunathzzbcwjykldrem.jpg,,,>,Face,,,,,0,,,,,,,o
105,12,Presentation,2,00507940519fa_sunacacflqoyxhsqzhe.jpg,00944960627fa_sunasbbntuiheekqyaq.jpg,00507940519fa.jpg,sunacacflqoyxhsqzhe.jpg,00944960627fa.jpg,sunasbbntuiheekqyaq.jpg,,,>,Place,,,,,1,,,,,,,x
106,12,Presentation,2,00960960627fa_sunawksfbacycuhbrsc.jpg,00793941205fa_sunagtjwilqjvxohypn.jpg,00960960627fa.jpg,sunawksfbacycuhbrsc.jpg,00793941205fa.jpg,sunagtjwilqjvxohypn.jpg,,,>,Face,,,,,1,,,,,,,o
107,12,Presentation,2,00126931230fb_sunaamdjwemxpmmtypi.jpg,00723941201fa_sunaedtgwjvvziytspa.jpg,00126931230fb.jpg,sunaamdjwemxpmmtypi.jpg,00723941201fa.jpg,sunaedtgwjvvziytspa.jpg,,,<,Face,,,,,1,,,,,,,x
108,12,Presentation,2,00869940307fa_sunajoveqhiprwqgoco.jpg,00111931230fb_sunaakgekhjklxmvulj.jpg,00869940307fa.jpg,sunajoveqhiprwqgoco.jpg,00111931230fb.jpg,sunaakgekhjklxmvulj.jpg,,,<,Place,,,,,1,,,,,,,x
109,12,Presentation,2,00772941201fa_sunafpfpiiujzoesnqg.jpg,00776941205fa_sunafxokyavhgptyfye.jpg,00772941201fa.jpg,sunafpfpiiujzoesnqg.jpg,00776941205fa.jpg,sunafxokyavhgptyfye.jpg,,,<,Face,,,,,1,,,,,,,x
110,12,Memory,2,,,,,,,00609940928fa.jpg,,,,,,,,,,,,,,,
111,12,Memory,2,,,,,,,00126931230fb.jpg,,,,,,,,,,,,,,,
112,12,Memory,2,,,,,,,sunafowswglhxcsufpo.jpg,,,,,,,,,,,,,,,
113,12,Memory,2,,,,,,,sunacycdoztxoluxjyk.jpg,,,,,,,,,,,,,,,
114,12,Memory,2,,,,,,,00771941205fa.jpg,,,,,,,,,,,,,,,
115,12,Memory,2,,,,,,,00633940928fa.jpg,,,,,,,,,,,,,,,
116,12,Memory,2,,,,,,,00793941205fa.jpg,,,,,,,,,,,,,,,
117,12,Memory,2,,,,,,,sunafxokyavhgptyfye.jpg,,,,,,,,,,,,,,,
118,12,Memory,2,,,,,,,sunafpfpiiujzoesnqg.jpg,,,,,,,,,,,,,,,
119,12,Memory,2,,,,,,,sunagtjwilqjvxohypn.jpg,,,,,,,,,,,,,,,
120,12,Memory,2,,,,,,,00745941205fa.jpg,,,,,,,,,,,,,,,
121,12,Memory,2,,,,,,,sunacsdhbbsybcyxnel.jpg,,,,,,,,,,,,,,,
122,12,Memory,2,,,,,,,00803941205fa.jpg,,,,,,,,,,,,,,,
123,12,Memory,2,,,,,,,00776941205fa.jpg,,,,,,,,,,,,,,,
124,12,Memory,2,,,,,,,00263940128fb.jpg,,,,,,,,,,,,,,,
125,12,Memory,2,,,,,,,00568940928fa.jpg,,,,,,,,,,,,,,,
126,12,Memory,2,,,,,,,sunasbbntuiheekqyaq.jpg,,,,,,,,,,,,,,,
127,12,Memory,2,,,,,,,sunabasphceswhwwqvv.jpg,,,,,,,,,,,,,,,
128,12,Memory,2,,,,,,,sunaeuvjbmdpknaqqaj.jpg,,,,,,,,,,,,,,,
129,12,Memory,2,,,,,,,00112931230fa.jpg,,,,,,,,,,,,,,,
130,12,Memory,2,,,,,,,00772941201fa.jpg,,,,,,,,,,,,,,,
131,12,Memory,2,,,,,,,00749941201fa.jpg,,,,,,,,,,,,,,,
132,12,Memory,2,,,,,,,00630941031fa.jpg,,,,,,,,,,,,,,,
133,12,Memory,2,,,,,,,00778941205fa.jpg,,,,,,,,,,,,,,,
134,12,Memory,2,,,,,,,00960960627fa.jpg,,,,,,,,,,,,,,,
135,12,Memory,2,,,,,,,sunaamdjwemxpmmtypi.jpg,,,,,,,,,,,,,,,
136,12,Memory,2,,,,,,,sunagvxkjokqimstxpe.jpg,,,,,,,,,,,,,,,
137,12,Memory,2,,,,,,,sunagcthdfirrcawoic.jpg,,,,,,,,,,,,,,,
138,12,Memory,2,,,,,,,00937960627fa.jpg,,,,,,,,,,,,,,,
139,12,Memory,2,,,,,,,sunaqsolmfydodnakub.jpg,,,,,,,,,,,,,,,
140,12,Memory,2,,,,,,,sunadbhmrgrrpyzglxs.jpg,,,,,,,,,,,,,,,
141,12,Memory,2,,,,,,,sunawksfbacycuhbrsc.jpg,,,,,,,,,,,,,,,
142,12,Memory,2,,,,,,,00944960627fa.jpg,,,,,,,,,,,,,,,
143,12,Memory,2,,,,,,,sunaeouogqolxvggaoq.jpg,,,,,,,,,,,,,,,
144,12,Memory,2,,,,,,,00985960627fa.jpg,,,,,,,,,,,,,,,
145,12,Memory,2,,,,,,,sunadakkdovnuzlycvp.jpg,,,,,,,,,,,,,,,
146,12,Memory,2,,,,,,,sunabjuovqvyfuzvqwt.jpg,,,,,,,,,,,,,,,
147,12,Memory,2,,,,,,,sunaakjaacuzulqckgl.jpg,,,,,,,,,,,,,,,
148,12,Memory,2,,,,,,,sunbgklxeqjhdbyfhhy.jpg,,,,,,,,,,,,,,,
149,12,Memory,2,,,,,,,00211940128fa.jpg,,,,,,,,,,,,,,,
150,12,Presentation,3,00751960620fa_sunaezuszgtxnmsxdbk.jpg,00792941205fa_sunagsiwrmuixqgdimb.jpg,00751960620fa.jpg,sunaezuszgtxnmsxdbk.jpg,00792941205fa.jpg,sunagsiwrmuixqgdimb.jpg,,,>,Place,,,,,1,,,,,,,x
151,12,Presentation,3,01003960627fb_sunbwdrdvsweerwsdrj.jpg,00750941201fa_sunaeuzwggvibufclwf.jpg,01003960627fb.jpg,sunbwdrdvsweerwsdrj.jpg,00750941201fa.jpg,sunaeuzwggvibufclwf.jpg,,,>,Face,,,,,1,,,,,,,o
152,12,Presentation,3,00790941205fa_sunagpjzsbltchlwvou.jpg,00069931230fb_sunaaeowapdkwzqpgqr.jpg,00790941205fa.jpg,sunagpjzsbltchlwvou.jpg,00069931230fb.jpg,sunaaeowapdkwzqpgqr.jpg,,,<,Place,,,,,1,,,,,,,x
153,12,Presentation,3,00963960627fa_sunayaepykrqvenaqqy.jpg,00959960627fa_sunavxokzybtomhbmvm.jpg,00963960627fa.jpg,sunayaepykrqvenaqqy.jpg,00959960627fa.jpg,sunavxokzybtomhbmvm.jpg,,,>,Face,,,,,1,,,,,,,x
154,12,Presentation,3,00983960627fa_sunbfyvfqiimvdaxlqn.jpg,00988960627fa_sunbmaiocftdtvnzgap.jpg,00983960627fa.jpg,sunbfyvfqiimvdaxlqn.jpg,00988960627fa.jpg,sunbmaiocftdtvnzgap.jpg,,,<,Face,,,,,1,,,,,,,o
155,12,Presentation,3,00119931230fb_sunaakvmbftkrgqhjun.jpg,00208940128fa_sunaazzyhbvqjpmazjq.jpg,00119931230fb.jpg,sunaakvmbftkrgqhjun.jpg,00208940128fa.jpg,sunaazzyhbvqjpmazjq.jpg,,,<,Place,,,,,1,,,,,,,x
156,12,Presentation,3,00158931230fb_sunaavchcbptaerhcfy.jpg,00819940307fa_sunahqldjibofgsfdgb.jpg,00158931230fb.jpg,sunaavchcbptaerhcfy.jpg,00819940307fa.jpg,sunahqldjibofgsfdgb.jpg,,,>,Place,,,,,1,,,,,,,x
157,12,Presentation,3,01005960627fa_sunbwyuesflwdpqtgoy.jpg,00791941205fa_sunagrmyoovzukhxmlo.jpg,01005960627fa.jpg,sunbwyuesflwdpqtgoy.jpg,00791941205fa.jpg,sunagrmyoovzukhxmlo.jpg,,,<,Place,,,,,1,,,,,,,o
158,12,Presentation,3,00898960530fa_sunamkmeblgteyggink.jpg,00877960530fa_sunajxpkuhbizeveguy.jpg,00898960530fa.jpg,sunamkmeblgteyggink.jpg,00877960530fa.jpg,sunajxpkuhbizeveguy.jpg,,,>,Face,,,,,1,,,,,,,x
159,12,Presentation,3,00082931230fa_sunaafvitpexrpvumsa.jpg,00901960530fa_sunammbnoambmhdxdwd.jpg,00082931230fa.jpg,sunaafvitpexrpvumsa.jpg,00901960530fa.jpg,sunammbnoambmhdxdwd.jpg,,,<,Face,,,,,1,,,,,,,x
160,12,Memory,3,,,,,,,00792941205fa.jpg,,,,,,,,,,,,,,,
161,12,Memory,3,,,,,,,00790941205fa.jpg,,,,,,,,,,,,,,,
162,12,Memory,3,,,,,,,sunaecpkgfewqqreqwe.jpg,,,,,,,,,,,,,,,
163,12,Memory,3,,,,,,,sunahqldjibofgsfdgb.jpg,,,,,,,,,,,,,,,
164,12,Memory,3,,,,,,,sunacxtcahkymosigud.jpg,,,,,,,,,,,,,,,
165,12,Memory,3,,,,,,,sunalkiibhqpxfamlll.jpg,,,,,,,,,,,,,,,
166,12,Memory,3,,,,,,,00819940307fa.jpg,,,,,,,,,,,,,,,
167,12,Memory,3,,,,,,,00959960627fa.jpg,,,,,,,,,,,,,,,
168,12,Memory,3,,,,,,,sunadrmfzmstgdjdcod.jpg,,,,,,,,,,,,,,,
169,12,Memory,3,,,,,,,sunbmaiocftdtvnzgap.jpg,,,,,,,,,,,,,,,
170,12,Memory,3,,,,,,,00598941031fa.jpg,,,,,,,,,,,,,,,
171,12,Memory,3,,,,,,,sunagdzlvkqtpnfxfcg.jpg,,,,,,,,,,,,,,,
172,12,Memory,3,,,,,,,00880960530fa.jpg,,,,,,,,,,,,,,,
173,12,Memory,3,,,,,,,sunagsiwrmuixqgdimb.jpg,,,,,,,,,,,,,,,
174,12,Memory,3,,,,,,,sunaampvucecsfbdafn.jpg,,,,,,,,,,,,,,,
175,12,Memory,3,,,,,,,sunbwdrdvsweerwsdrj.jpg,,,,,,,,,,,,,,,
176,12,Memory,3,,,,,,,00891960530fa.jpg,,,,,,,,,,,,,,,
177,12,Memory,3,,,,,,,00779941205fa.jpg,,,,,,,,,,,,,,,
178,12,Memory,3,,,,,,,sunaavchcbptaerhcfy.jpg,,,,,,,,,,,,,,,
179,12,Memory,3,,,,,,,sunavxokzybtomhbmvm.jpg,,,,,,,,,,,,,,,
180,12,Memory,3,,,,,,,00720960620fa.jpg,,,,,,,,,,,,,,,
181,12,Memory,3,,,,,,,sunagpjzsbltchlwvou.jpg,,,,,,,,,,,,,,,
182,12,Memory,3,,,,,,,sunakmnfgklupjijsgf.jpg,,,,,,,,,,,,,,,
183,12,Memory,3,,,,,,,sunajxpkuhbizeveguy.jpg,,,,,,,,,,,,,,,
184,12,Memory,3,,,,,,,00947960627fa.jpg,,,,,,,,,,,,,,,
185,12,Memory,3,,,,,,,00158931230fb.jpg,,,,,,,,,,,,,,,
186,12,Memory,3,,,,,,,00983960627fa.jpg,,,,,,,,,,,,,,,
187,12,Memory,3,,,,,,,sunamkmeblgteyggink.jpg,,,,,,,,,,,,,,,
188,12,Memory,3,,,,,,,01003960627fb.jpg,,,,,,,,,,,,,,,
189,12,Memory,3,,,,,,,00877960530fa.jpg,,,,,,,,,,,,,,,
190,12,Memory,3,,,,,,,sunasmmcxdddtmtazwx.jpg,,,,,,,,,,,,,,,
191,12,Memory,3,,,,,,,00898960530fa.jpg,,,,,,,,,,,,,,,
192,12,Memory,3,,,,,,,sunatstrpjxhvtbaczf.jpg,,,,,,,,,,,,,,,
193,12,Memory,3,,,,,,,sunbfyvfqiimvdaxlqn.jpg,,,,,,,,,,,,,,,
194,12,Memory,3,,,,,,,00988960627fa.jpg,,,,,,,,,,,,,,,
195,12,Memory,3,,,,,,,sunabckqabszusgcykj.jpg,,,,,,,,,,,,,,,
196,12,Memory,3,,,,,,,00227940128fa.jpg,,,,,,,,,,,,,,,
197,12,Memory,3,,,,,,,00127931230fa.jpg,,,,,,,,,,,,,,,
198,12,Memory,3,,,,,,,00953960627fa.jpg,,,,,,,,,,,,,,,
199,12,Memory,3,,,,,,,00694941121fa.jpg,,,,,,,,,,,,,,,
200,12,Presentation,4,00571940928fa_sunacuatpqpqhyjhjqk.jpg,00140931230fb_sunaapllqyqlykszopd.jpg,00571940928fa.jpg,sunacuatpqpqhyjhjqk.jpg,00140931230fb.jpg,sunaapllqyqlykszopd.jpg,,,>,Place,,,,,1,,,,,,,o
201,12,Presentation,4,00292940422fb_sunabrjdpmoedcdjbpo.jpg,00634940928fa_sunadcphrizvfpljiqt.jpg,00292940422fb.jpg,sunabrjdpmoedcdjbpo.jpg,00634940928fa.jpg,sunadcphrizvfpljiqt.jpg,,,<,Place,,,,,1,,,,,,,o
202,12,Presentation,4,00133931230fa_sunaanlwnpqndclffxt.jpg,00931960627fa_sunaptrqvaooxfvktvw.jpg,00133931230fa.jpg,sunaanlwnpqndclffxt.jpg,00931960627fa.jpg,sunaptrqvaooxfvktvw.jpg,,,>,Place,,,,,1,,,,,,,o
203,12,Presentation,4,00102931230fa_sunaajspcoepticvplv.jpg,01002960627fb_sunbwaafjdebjzttuvq.jpg,00102931230fa.jpg,sunaajspcoepticvplv.jpg,01002960627fb.jpg,sunbwaafjdebjzttuvq.jpg,,,<,Place,,,,,1,,,,,,,x
204,12,Presentation,4,00760960620fa_sunaffstbkappprzxnv.jpg,00631940928fa_sunadbdqzigzwipuipr.jpg,00760960620fa.jpg,sunaffstbkappprzxnv.jpg,00631940928fa.jpg,sunadbdqzigzwipuipr.jpg,,,<,Face,,,,,1,,,,,,,o
205,12,Presentation,4,00060931230fa_sunaaehaikpckyjsety.jpg,00973960627fa_sunbbgtoeuzierkkajt.jpg,00060931230fa.jpg,sunaaehaikpckyjsety.jpg,00973960627fa.jpg,sunbbgtoeuzierkkajt.jpg,,,<,Face,,,,,1,,,,,,,o
206,12,Presentation,4,00071940128fa_sunaaexpnawiehinlpy.jpg,00089931230fa_sunaagcpoejbuzyvddd.jpg,00071940128fa.jpg,sunaaexpnawiehinlpy.jpg,00089931230fa.jpg,sunaagcpoejbuzyvddd.jpg,,,>,Place,,,,,1,,,,,,,o
207,12,Presentation,4,00997960627fa_sunbtpilbhhbmhmeuzq.jpg,01007960627fa_sunbxarcshsnqsefemx.jpg,00997960627fa.jpg,sunbtpilbhhbmhmeuzq.jpg,01007960627fa.jpg,sunbxarcshsnqsefemx.jpg,,,>,Face,,,,,1,,,,,,,x
208,12,Presentation,4,00894960620fa_sunalqmfgeadpqsyzpd.jpg,00316940422fa_sunabxmguapjekttvwm.jpg,00894960620fa.jpg,sunalqmfgeadpqsyzpd.jpg,00316940422fa.jpg,sunabxmguapjekttvwm.jpg,,,>,Face,,,,,1,,,,,,,o
209,12,Presentation,4,00970960627fa_sunbasypfgzjtomktmu.jpg,00266940128fb_sunabkngeblodihjvbk.jpg,00970960627fa.jpg,sunbasypfgzjtomktmu.jpg,00266940128fb.jpg,sunabkngeblodihjvbk.jpg,,,<,Face,,,,,1,,,,,,,x
210,12,Memory,4,,,,,,,00306940422fa.jpg,,,,,,,,,,,,,,,
211,12,Memory,4,,,,,,,01007960627fa.jpg,,,,,,,,,,,,,,,
212,12,Memory,4,,,,,,,sunaajspcoepticvplv.jpg,,,,,,,,,,,,,,,
213,12,Memory,4,,,,,,,sunaaexpnawiehinlpy.jpg,,,,,,,,,,,,,,,
214,12,Memory,4,,,,,,,sunadfktsqjthoglcsm.jpg,,,,,,,,,,,,,,,
215,12,Memory,4,,,,,,,sunacuatpqpqhyjhjqk.jpg,,,,,,,,,,,,,,,
216,12,Memory,4,,,,,,,00102931230fa.jpg,,,,,,,,,,,,,,,
217,12,Memory,4,,,,,,,00089931230fa.jpg,,,,,,,,,,,,,,,
218,12,Memory,4,,,,,,,00145931230fb.jpg,,,,,,,,,,,,,,,
219,12,Memory,4,,,,,,,sunaaheqzstzxuadglu.jpg,,,,,,,,,,,,,,,
220,12,Memory,4,,,,,,,suncnkvbhypnivcohyx.jpg,,,,,,,,,,,,,,,
221,12,Memory,4,,,,,,,sunaatjesvdupctftmn.jpg,,,,,,,,,,,,,,,
222,12,Memory,4,,,,,,,sunaffstbkappprzxnv.jpg,,,,,,,,,,,,,,,
223,12,Memory,4,,,,,,,00638941031fa.jpg,,,,,,,,,,,,,,,
224,12,Memory,4,,,,,,,sunabxmguapjekttvwm.jpg,,,,,,,,,,,,,,,
225,12,Memory,4,,,,,,,00092931230fa.jpg,,,,,,,,,,,,,,,
226,12,Memory,4,,,,,,,sunbxarcshsnqsefemx.jpg,,,,,,,,,,,,,,,
227,12,Memory,4,,,,,,,sunaajqmsaavkmgbsth.jpg,,,,,,,,,,,,,,,
228,12,Memory,4,,,,,,,sunaagcpoejbuzyvddd.jpg,,,,,,,,,,,,,,,
229,12,Memory,4,,,,,,,00973960627fa.jpg,,,,,,,,,,,,,,,
230,12,Memory,4,,,,,,,00071940128fa.jpg,,,,,,,,,,,,,,,
231,12,Memory,4,,,,,,,00571940928fa.jpg,,,,,,,,,,,,,,,
232,12,Memory,4,,,,,,,sunbbgtoeuzierkkajt.jpg,,,,,,,,,,,,,,,
233,12,Memory,4,,,,,,,sunabjzyxcjnmztdonj.jpg,,,,,,,,,,,,,,,
234,12,Memory,4,,,,,,,00264940128fb.jpg,,,,,,,,,,,,,,,
235,12,Memory,4,,,,,,,sunabueyoajufbkraki.jpg,,,,,,,,,,,,,,,
236,12,Memory,4,,,,,,,00760960620fa.jpg,,,,,,,,,,,,,,,
237,12,Memory,4,,,,,,,00786941205fa.jpg,,,,,,,,,,,,,,,
238,12,Memory,4,,,,,,,sunaapllqyqlykszopd.jpg,,,,,,,,,,,,,,,
239,12,Memory,4,,,,,,,00140931230fb.jpg,,,,,,,,,,,,,,,
240,12,Memory,4,,,,,,,00101931230fb.jpg,,,,,,,,,,,,,,,
241,12,Memory,4,,,,,,,sunagmhildamktmqjss.jpg,,,,,,,,,,,,,,,
242,12,Memory,4,,,,,,,sunaalhlvzmjmitybdn.jpg,,,,,,,,,,,,,,,
243,12,Memory,4,,,,,,,00316940422fa.jpg,,,,,,,,,,,,,,,
244,12,Memory,4,,,,,,,01000960627fa.jpg,,,,,,,,,,,,,,,
245,12,Memory,4,,,,,,,sunbtpilbhhbmhmeuzq.jpg,,,,,,,,,,,,,,,
246,12,Memory,4,,,,,,,00997960627fa.jpg,,,,,,,,,,,,,,,
247,12,Memory,4,,,,,,,sunbvzmgrdvaakxusbu.jpg,,,,,,,,,,,,,,,
248,12,Memory,4,,,,,,,00124931230fa.jpg,,,,,,,,,,,,,,,
249,12,Memory,4,,,,,,,01010960627fa.jpg,,,,,,,,,,,,,,,
250,12,Presentation,5,00185940422fb_sunaawqdbpihmlbwyyn.jpg,00647941031fa_sunadflbrkckmepztql.jpg,00185940422fb.jpg,sunaawqdbpihmlbwyyn.jpg,00647941031fa.jpg,sunadflbrkckmepztql.jpg,,,>,Face,,,,,0,,,,,,,x
251,12,Presentation,5,00076931230fa_sunaafewhewbxmjiurz.jpg,00895960530fa_sunamczizlzavhzhpay.jpg,00076931230fa.jpg,sunaafewhewbxmjiurz.jpg,00895960530fa.jpg,sunamczizlzavhzhpay.jpg,,,>,Place,,,,,1,,,,,,,x
252,12,Presentation,5,00221940128fa_sunabcfpwlpolnutyju.jpg,00876960620fa_sunajwqkfsykceonyig.jpg,00221940128fa.jpg,sunabcfpwlpolnutyju.jpg,00876960620fa.jpg,sunajwqkfsykceonyig.jpg,,,>,Face,,,,,1,,,,,,,x
253,12,Presentation,5,00848940307fa_sunaivdylrawbmhryfp.jpg,00827940307fa_sunahtfxgsrmkiulnwk.jpg,00848940307fa.jpg,sunaivdylrawbmhryfp.jpg,00827940307fa.jpg,sunahtfxgsrmkiulnwk.jpg,,,<,Place,,,,,1,,,,,,,o
254,12,Presentation,5,00795941205fa_sunagtumacdlmciqamz.jpg,00095931230fa_sunaahzooisqkwlxwoz.jpg,00795941205fa.jpg,sunagtumacdlmciqamz.jpg,00095931230fa.jpg,sunaahzooisqkwlxwoz.jpg,,,<,Face,,,,,1,,,,,,,x
255,12,Presentation,5,00866940307fa_sunajbwkywmsqkldfml.jpg,00543940519fa_sunacepzfrmtkiqonpy.jpg,00866940307fa.jpg,sunajbwkywmsqkldfml.jpg,00543940519fa.jpg,sunacepzfrmtkiqonpy.jpg,,,>,Face,,,,,1,,,,,,,o
256,12,Presentation,5,00753941201fa_sunafcofuuzebuadceo.jpg,00242940128fa_sunabcuurugvxwparpk.jpg,00753941201fa.jpg,sunafcofuuzebuadceo.jpg,00242940128fa.jpg,sunabcuurugvxwparpk.jpg,,,<,Place,,,,,1,,,,,,,o
257,12,Presentation,5,00620940928fa_sunacypmnujalygkunp.jpg,00093931230fa_sunaahwnmtqsrhocysw.jpg,00620940928fa.jpg,sunacypmnujalygkunp.jpg,00093931230fa.jpg,sunaahwnmtqsrhocysw.jpg,,,<,Face,,,,,0,,,,,,,x
258,12,Presentation,5,00925960627fa_sunapqwnqzxlsfvgsjm.jpg,00296940422fa_sunabrwnslxalcohfre.jpg,00925960627fa.jpg,sunapqwnqzxlsfvgsjm.jpg,00296940422fa.jpg,sunabrwnslxalcohfre.jpg,,,<,Place,,,,,1,,,,,,,x
259,12,Presentation,5,00090931230fa_sunaahedjlmtqekgyvj.jpg,00302940422fa_sunabtlfmiwtljmoues.jpg,00090931230fa.jpg,sunaahedjlmtqekgyvj.jpg,00302940422fa.jpg,sunabtlfmiwtljmoues.jpg,,,>,Place,,,,,1,,,,,,,x
260,12,Memory,5,,,,,,,sunabxsbfwjccqxxzxq.jpg,,,,,,,,,,,,,,,
261,12,Memory,5,,,,,,,sunabcfpwlpolnutyju.jpg,,,,,,,,,,,,,,,
262,12,Memory,5,,,,,,,sunaawqdbpihmlbwyyn.jpg,,,,,,,,,,,,,,,
263,12,Memory,5,,,,,,,00479940519fa.jpg,,,,,,,,,,,,,,,
264,12,Memory,5,,,,,,,sunadzuvtmtmgupotmf.jpg,,,,,,,,,,,,,,,
265,12,Memory,5,,,,,,,sunaahwnmtqsrhocysw.jpg,,,,,,,,,,,,,,,
266,12,Memory,5,,,,,,,00967960627fa.jpg,,,,,,,,,,,,,,,
267,12,Memory,5,,,,,,,sunabtlfmiwtljmoues.jpg,,,,,,,,,,,,,,,
268,12,Memory,5,,,,,,,00848940307fa.jpg,,,,,,,,,,,,,,,
269,12,Memory,5,,,,,,,sunadflbrkckmepztql.jpg,,,,,,,,,,,,,,,
270,12,Memory,5,,,,,,,sunbaejotfklekvpxcz.jpg,,,,,,,,,,,,,,,
271,12,Memory,5,,,,,,,00795941205fa.jpg,,,,,,,,,,,,,,,
272,12,Memory,5,,,,,,,sunapqwnqzxlsfvgsjm.jpg,,,,,,,,,,,,,,,
273,12,Memory,5,,,,,,,00647941031fa.jpg,,,,,,,,,,,,,,,
274,12,Memory,5,,,,,,,00787960620fa.jpg,,,,,,,,,,,,,,,
275,12,Memory,5,,,,,,,sunagoufulkpsxrmklt.jpg,,,,,,,,,,,,,,,
276,12,Memory,5,,,,,,,sunabmbnddafmywtjjj.jpg,,,,,,,,,,,,,,,
277,12,Memory,5,,,,,,,00221940128fa.jpg,,,,,,,,,,,,,,,
278,12,Memory,5,,,,,,,sunacepzfrmtkiqonpy.jpg,,,,,,,,,,,,,,,
279,12,Memory,5,,,,,,,00529940519fa.jpg,,,,,,,,,,,,,,,
280,12,Memory,5,,,,,,,sunacbeefkxpymwevpk.jpg,,,,,,,,,,,,,,,
281,12,Memory,5,,,,,,,00302940422fa.jpg,,,,,,,,,,,,,,,
282,12,Memory,5,,,,,,,00876960620fa.jpg,,,,,,,,,,,,,,,
283,12,Memory,5,,,,,,,00925960627fa.jpg,,,,,,,,,,,,,,,
284,12,Memory,5,,,,,,,00841940307fa.jpg,,,,,,,,,,,,,,,
285,12,Memory,5,,,,,,,00198940128fb.jpg,,,,,,,,,,,,,,,
286,12,Memory,5,,,,,,,00979960627fa.jpg,,,,,,,,,,,,,,,
287,12,Memory,5,,,,,,,sunaavtbadenwnzeutj.jpg,,,,,,,,,,,,,,,
288,12,Memory,5,,,,,,,00185940422fb.jpg,,,,,,,,,,,,,,,
289,12,Memory,5,,,,,,,sunaivdylrawbmhryfp.jpg,,,,,,,,,,,,,,,
290,12,Memory,5,,,,,,,sunaazezcsunmhttzxz.jpg,,,,,,,,,,,,,,,
291,12,Memory,5,,,,,,,sunajwqkfsykceonyig.jpg,,,,,,,,,,,,,,,
292,12,Memory,5,,,,,,,sunbdycacjfaujxitbw.jpg,,,,,,,,,,,,,,,
293,12,Memory,5,,,,,,,00093931230fa.jpg,,,,,,,,,,,,,,,
294,12,Memory,5,,,,,,,sunagtumacdlmciqamz.jpg,,,,,,,,,,,,,,,
295,12,Memory,5,,,,,,,00271940422fa.jpg,,,,,,,,,,,,,,,
296,12,Memory,5,,,,,,,00719960620fa.jpg,,,,,,,,,,,,,,,
297,12,Memory,5,,,,,,,00543940519fa.jpg,,,,,,,,,,,,,,,
298,12,Memory,5,,,,,,,00184940128fa.jpg,,,,,,,,,,,,,,,
299,12,Memory,5,,,,,,,sunaisiwfgppimtnmxl.jpg,,,,,,,,,,,,,,,
300,12,Presentation,6,00965960627fa_sunaydywdmvlfddbxbk.jpg,00482940519fa_sunabyfxcxhdebvdyfd.jpg,00965960627fa.jpg,sunaydywdmvlfddbxbk.jpg,00482940519fa.jpg,sunabyfxcxhdebvdyfd.jpg,,,<,Face,,,,,0,,,,,,,o
301,12,Presentation,6,00648941031fa_sunadfndyrtqqiasoig.jpg,00576941031fa_sunacvjlsylseoghjup.jpg,00648941031fa.jpg,sunadfndyrtqqiasoig.jpg,00576941031fa.jpg,sunacvjlsylseoghjup.jpg,,,>,Place,,,,,1,,,,,,,o
302,12,Presentation,6,00903960620fa_sunanainkqdvktzoxyl.jpg,00874940307fa_sunajtrfunvzdfticna.jpg,00903960620fa.jpg,sunanainkqdvktzoxyl.jpg,00874940307fa.jpg,sunajtrfunvzdfticna.jpg,,,>,Place,,,,,1,,,,,,,o
303,12,Presentation,6,00116931230fa_sunaakqepfoeqomfgxf.jpg,00146960620fb_sunaatpeezlljqaxlhj.jpg,00116931230fa.jpg,sunaakqepfoeqomfgxf.jpg,00146960620fb.jpg,sunaatpeezlljqaxlhj.jpg,,,>,Face,,,,,1,,,,,,,o
304,12,Presentation,6,00812941205fa_sunahgtbwgsmtqeodwh.jpg,00077931230fb_sunaafgqutfaishsxyu.jpg,00812941205fa.jpg,sunahgtbwgsmtqeodwh.jpg,00077931230fb.jpg,sunaafgqutfaishsxyu.jpg,,,>,Face,,,,,1,,,,,,,x
305,12,Presentation,6,00799941205fa_sunagutjvdvnhxejerz.jpg,00938960627fa_sunaqyylsngywqzwfmx.jpg,00799941205fa.jpg,sunagutjvdvnhxejerz.jpg,00938960627fa.jpg,sunaqyylsngywqzwfmx.jpg,,,>,Face,,,,,1,,,,,,,o
306,12,Presentation,6,01004960627fa_sunbwtlihsuptkrckid.jpg,00774941201fa_sunafvtpfczkzopbgue.jpg,01004960627fa.jpg,sunbwtlihsuptkrckid.jpg,00774941201fa.jpg,sunafvtpfczkzopbgue.jpg,,,<,Place,,,,,0,,,,,,,o
307,12,Presentation,6,00796941205fa_sunaguchqqnrtodtezq.jpg,00540940519fa_sunacdnquypmsshhsbk.jpg,00796941205fa.jpg,sunaguchqqnrtodtezq.jpg,00540940519fa.jpg,sunacdnquypmsshhsbk.jpg,,,<,Face,,,,,0,,,,,,,x
308,12,Presentation,6,00825940307fa_sunahrltmuwbiehihpe.jpg,00977960627fa_sunbbxkanhzjgbwyxqs.jpg,00825940307fa.jpg,sunahrltmuwbiehihpe.jpg,00977960627fa.jpg,sunbbxkanhzjgbwyxqs.jpg,,,<,Place,,,,,1,,,,,,,o
309,12,Presentation,6,00562941031fa_sunacjnahdmqfnjfwqx.jpg,00775941205fa_sunafvwfsmqkjrutjta.jpg,00562941031fa.jpg,sunacjnahdmqfnjfwqx.jpg,00775941205fa.jpg,sunafvwfsmqkjrutjta.jpg,,,<,Place,,,,,1,,,,,,,x
310,12,Memory,6,,,,,,,sunabanoxjtqxamkucc.jpg,,,,,,,,,,,,,,,
311,12,Memory,6,,,,,,,sunaqyylsngywqzwfmx.jpg,,,,,,,,,,,,,,,
312,12,Memory,6,,,,,,,00775941205fa.jpg,,,,,,,,,,,,,,,
313,12,Memory,6,,,,,,,sunadfndyrtqqiasoig.jpg,,,,,,,,,,,,,,,
314,12,Memory,6,,,,,,,00116931230fa.jpg,,,,,,,,,,,,,,,
315,12,Memory,6,,,,,,,00681941121fa.jpg,,,,,,,,,,,,,,,
316,12,Memory,6,,,,,,,00977960627fa.jpg,,,,,,,,,,,,,,,
317,12,Memory,6,,,,,,,sunadoxcchtmsxewsau.jpg,,,,,,,,,,,,,,,
318,12,Memory,6,,,,,,,00313940422fa.jpg,,,,,,,,,,,,,,,
319,12,Memory,6,,,,,,,00938960627fa.jpg,,,,,,,,,,,,,,,
320,12,Memory,6,,,,,,,sunaakqepfoeqomfgxf.jpg,,,,,,,,,,,,,,,
321,12,Memory,6,,,,,,,00787941205fa.jpg,,,,,,,,,,,,,,,
322,12,Memory,6,,,,,,,00146960620fb.jpg,,,,,,,,,,,,,,,
323,12,Memory,6,,,,,,,sunablfqiwfqomjarht.jpg,,,,,,,,,,,,,,,
324,12,Memory,6,,,,,,,00818940307fa.jpg,,,,,,,,,,,,,,,
325,12,Memory,6,,,,,,,00267940128fb.jpg,,,,,,,,,,,,,,,
326,12,Memory,6,,,,,,,sunbgzjryivyczuvkvm.jpg,,,,,,,,,,,,,,,
327,12,Memory,6,,,,,,,00903960620fa.jpg,,,,,,,,,,,,,,,
328,12,Memory,6,,,,,,,00799941205fa.jpg,,,,,,,,,,,,,,,
329,12,Memory,6,,,,,,,00854940307fa.jpg,,,,,,,,,,,,,,,
330,12,Memory,6,,,,,,,sunacjnahdmqfnjfwqx.jpg,,,,,,,,,,,,,,,
331,12,Memory,6,,,,,,,sunabwjvmoaddlyxfjr.jpg,,,,,,,,,,,,,,,
332,12,Memory,6,,,,,,,00774941201fa.jpg,,,,,,,,,,,,,,,
333,12,Memory,6,,,,,,,sunaatpeezlljqaxlhj.jpg,,,,,,,,,,,,,,,
334,12,Memory,6,,,,,,,sunahpblecxtmuzkmxb.jpg,,,,,,,,,,,,,,,
335,12,Memory,6,,,,,,,00648941031fa.jpg,,,,,,,,,,,,,,,
336,12,Memory,6,,,,,,,00675941121fa.jpg,,,,,,,,,,,,,,,
337,12,Memory,6,,,,,,,sunagmwxxwymwojbvgi.jpg,,,,,,,,,,,,,,,
338,12,Memory,6,,,,,,,sunadqmjrhfjyuzyvdd.jpg,,,,,,,,,,,,,,,
339,12,Memory,6,,,,,,,sunanainkqdvktzoxyl.jpg,,,,,,,,,,,,,,,
340,12,Memory,6,,,,,,,sunafvtpfczkzopbgue.jpg,,,,,,,,,,,,,,,
341,12,Memory,6,,,,,,,00210940128fb.jpg,,,,,,,,,,,,,,,
342,12,Memory,6,,,,,,,sunbbxkanhzjgbwyxqs.jpg,,,,,,,,,,,,,,,
343,12,Memory,6,,,,,,,sunagutjvdvnhxejerz.jpg,,,,,,,,,,,,,,,
344,12,Memory,6,,,,,,,00882960530fa.jpg,,,,,,,,,,,,,,,
345,12,Memory,6,,,,,,,sunaknlirqjqiwbbeeg.jpg,,,,,,,,,,,,,,,
346,12,Memory,6,,,,,,,00562941031fa.jpg,,,,,,,,,,,,,,,
347,12,Memory,6,,,,,,,sunafvwfsmqkjrutjta.jpg,,,,,,,,,,,,,,,
348,12,Memory,6,,,,,,,sunaiwduelojtwaqeyh.jpg,,,,,,,,,,,,,,,
349,12,Memory,6,,,,,,,00986960627fa.jpg,,,,,,,,,,,,,,,
350,12,Presentation,7,00742941201fa_sunaenwuebvlpdmntju.jpg,00762941201fa_sunafgzgbisbopcyslr.jpg,00742941201fa.jpg,sunaenwuebvlpdmntju.jpg,00762941201fa.jpg,sunafgzgbisbopcyslr.jpg,,,<,Face,,,,,1,,,,,,,x
351,12,Presentation,7,00797960620fa_sunagufzbeteqdjxais.jpg,00505960627fa_sunabzuqsrgcsonqlkz.jpg,00797960620fa.jpg,sunagufzbeteqdjxais.jpg,00505960627fa.jpg,sunabzuqsrgcsonqlkz.jpg,,,>,Face,,,,,1,,,,,,,o
352,12,Presentation,7,00950960627fa_sunasrjlmglmjzbmqxb.jpg,00163931230fb_sunaavodbcpygkggnfp.jpg,00950960627fa.jpg,sunasrjlmglmjzbmqxb.jpg,00163931230fb.jpg,sunaavodbcpygkggnfp.jpg,,,>,Place,,,,,1,,,,,,,o
353,12,Presentation,7,00835940307fa_sunaijsqpvodplbwxkf.jpg,00785941205fa_sunaglqunwuycxydmyu.jpg,00835940307fa.jpg,sunaijsqpvodplbwxkf.jpg,00785941205fa.jpg,sunaglqunwuycxydmyu.jpg,,,>,Face,,,,,1,,,,,,,x
354,12,Presentation,7,00915960620fa_sunapileznnbbmrwoei.jpg,00276940422fa_sunabmytpyhsgigllxu.jpg,00915960620fa.jpg,sunapileznnbbmrwoei.jpg,00276940422fa.jpg,sunabmytpyhsgigllxu.jpg,,,<,Place,,,,,0,,,,,,,x
355,12,Presentation,7,00905960530fa_sunanmoqeyprjjjfxjt.jpg,00700941121fa_sunadsgmtznewzyasnk.jpg,00905960530fa.jpg,sunanmoqeyprjjjfxjt.jpg,00700941121fa.jpg,sunadsgmtznewzyasnk.jpg,,,>,Face,,,,,0,,,,,,,o
356,12,Presentation,7,00966960627fa_sunaygrtwrwfezqjizr.jpg,00811960530fa_sunahedfrhtcwpneund.jpg,00966960627fa.jpg,sunaygrtwrwfezqjizr.jpg,00811960530fa.jpg,sunahedfrhtcwpneund.jpg,,,<,Place,,,,,1,,,,,,,o
357,12,Presentation,7,00878960530fa_sunakgbnzxmfohgehnu.jpg,00214940128fa_sunabbafjowbzcvbucc.jpg,00878960530fa.jpg,sunakgbnzxmfohgehnu.jpg,00214940128fa.jpg,sunabbafjowbzcvbucc.jpg,,,>,Place,,,,,1,,,,,,,x
358,12,Presentation,7,00958960627fa_sunavspxmxubqaeidjt.jpg,00193940928fa_sunaaxjpzcnxligjtjq.jpg,00958960627fa.jpg,sunavspxmxubqaeidjt.jpg,00193940928fa.jpg,sunaaxjpzcnxligjtjq.jpg,,,<,Face,,,,,1,,,,,,,o
359,12,Presentation,7,00857940307fa_sunaiwfobocrruqznsv.jpg,00120931230fa_sunaakxgygjfqrzpyoz.jpg,00857940307fa.jpg,sunaiwfobocrruqznsv.jpg,00120931230fa.jpg,sunaakxgygjfqrzpyoz.jpg,,,<,Place,,,,,1,,,,,,,o
360,12,Memory,7,,,,,,,sunafgzgbisbopcyslr.jpg,,,,,,,,,,,,,,,
361,12,Memory,7,,,,,,,00801941205fa.jpg,,,,,,,,,,,,,,,
362,12,Memory,7,,,,,,,sunafvcflzhlqloapyo.jpg,,,,,,,,,,,,,,,
363,12,Memory,7,,,,,,,00922960627fa.jpg,,,,,,,,,,,,,,,
364,12,Memory,7,,,,,,,sunapqkyghktgtosuuk.jpg,,,,,,,,,,,,,,,
365,12,Memory,7,,,,,,,sunahedfrhtcwpneund.jpg,,,,,,,,,,,,,,,
366,12,Memory,7,,,,,,,sunaavodbcpygkggnfp.jpg,,,,,,,,,,,,,,,
367,12,Memory,7,,,,,,,sunanaacmmosxrfwmvl.jpg,,,,,,,,,,,,,,,
368,12,Memory,7,,,,,,,00902960530fa.jpg,,,,,,,,,,,,,,,
369,12,Memory,7,,,,,,,00984960627fa.jpg,,,,,,,,,,,,,,,
370,12,Memory,7,,,,,,,00811960530fa.jpg,,,,,,,,,,,,,,,
371,12,Memory,7,,,,,,,00785941205fa.jpg,,,,,,,,,,,,,,,
372,12,Memory,7,,,,,,,sunahqrxievfeusiqlt.jpg,,,,,,,,,,,,,,,
373,12,Memory,7,,,,,,,sunbfzchmomnvzhbxdg.jpg,,,,,,,,,,,,,,,
374,12,Memory,7,,,,,,,00857940307fa.jpg,,,,,,,,,,,,,,,
375,12,Memory,7,,,,,,,00915960620fa.jpg,,,,,,,,,,,,,,,
376,12,Memory,7,,,,,,,00214940128fa.jpg,,,,,,,,,,,,,,,
377,12,Memory,7,,,,,,,00773941201fa.jpg,,,,,,,,,,,,,,,
378,12,Memory,7,,,,,,,00742941201fa.jpg,,,,,,,,,,,,,,,
379,12,Memory,7,,,,,,,sunajjxttslobudoqbv.jpg,,,,,,,,,,,,,,,
380,12,Memory,7,,,,,,,sunacvbrcejzwmcgnoq.jpg,,,,,,,,,,,,,,,
381,12,Memory,7,,,,,,,00868960307fa.jpg,,,,,,,,,,,,,,,
382,12,Memory,7,,,,,,,sunaenwuebvlpdmntju.jpg,,,,,,,,,,,,,,,
383,12,Memory,7,,,,,,,00635941031fa.jpg,,,,,,,,,,,,,,,
384,12,Memory,7,,,,,,,00950960627fa.jpg,,,,,,,,,,,,,,,
385,12,Memory,7,,,,,,,00966960627fa.jpg,,,,,,,,,,,,,,,
386,12,Memory,7,,,,,,,00574940928fa.jpg,,,,,,,,,,,,,,,
387,12,Memory,7,,,,,,,sunaygrtwrwfezqjizr.jpg,,,,,,,,,,,,,,,
388,12,Memory,7,,,,,,,sunasrjlmglmjzbmqxb.jpg,,,,,,,,,,,,,,,
389,12,Memory,7,,,,,,,sunapileznnbbmrwoei.jpg,,,,,,,,,,,,,,,
390,12,Memory,7,,,,,,,00163931230fb.jpg,,,,,,,,,,,,,,,
391,12,Memory,7,,,,,,,sunaglqunwuycxydmyu.jpg,,,,,,,,,,,,,,,
392,12,Memory,7,,,,,,,00942960627fa.jpg,,,,,,,,,,,,,,,
393,12,Memory,7,,,,,,,sunaddsaeicthrfbkhe.jpg,,,,,,,,,,,,,,,
394,12,Memory,7,,,,,,,00762941201fa.jpg,,,,,,,,,,,,,,,
395,12,Memory,7,,,,,,,sunagvprlbprarvgdvj.jpg,,,,,,,,,,,,,,,
396,12,Memory,7,,,,,,,sunabbafjowbzcvbucc.jpg,,,,,,,,,,,,,,,
397,12,Memory,7,,,,,,,sunaiwfobocrruqznsv.jpg,,,,,,,,,,,,,,,
398,12,Memory,7,,,,,,,00822940307fa.jpg,,,,,,,,,,,,,,,
399,12,Memory,7,,,,,,,sunarfdklgdnjgeqfjg.jpg,,,,,,,,,,,,,,,
