,Subject,Trial Type,Run,Cued Composite,Uncued Composite,Cued Face,Cued Place,Uncued Face,Uncued Place,Memory Image,Category,Cued Side,Cued Category,Attention Reaction Time (s),Familiarity Reaction Time (s),Familiarity Rating,Attention Level,Cue Validity,Post Invalid Cue,Pre Invalid Cue,Attention Button,Rating History,Stimulus Onset,Stimulus End,Attention Probe
110,10,Memory,2,,,,,,,01002960627fb.jpg,,,,,1.592,1.0,,,,,,,1553710868.308724,1553710870.495072,
111,10,Memory,2,,,,,,,00960960627fa.jpg,,,,,1.022,1.0,,,,,,,1553710871.742117,1553710873.839351,
112,10,Memory,2,,,,,,,sunaaexpnawiehinlpy.jpg,,,,,1.309,1.0,,,,,,,1553710875.077175,1553710877.430949,
113,10,Memory,2,,,,,,,sunadikxpvqeabxrvvc.jpg,,,,,1.506,3.0,,,,,,,1553710878.695437,1553710880.997625,
114,10,Memory,2,,,,,,,sunaajpqmulidejvjsr.jpg,,,,,1.172,3.0,,,,,,,1553710882.262265,1553710884.463194,
115,10,Memory,2,,,,,,,sunbwaafjdebjzttuvq.jpg,,,,,1.015,1.0,,,,,,,1553710885.713784,1553710887.711526,
116,10,Memory,2,,,,,,,00720960620fa.jpg,,,,,0.972,1.0,,,,,,,1553710889.0943,1553710891.011315,
117,10,Memory,2,,,,,,,sunawksfbacycuhbrsc.jpg,,,,,0.825,1.0,,,,,,,1553710892.266105,1553710894.298807,
118,10,Memory,2,,,,,,,00498960627fa.jpg,,,,,1.608,2.0,,,,,,,1553710895.550469,1553710897.905152,
119,10,Memory,2,,,,,,,00505960627fa.jpg,,,,,1.753,1.0,,,,,,,1553710899.152302,1553710901.147046,
120,10,Memory,2,,,,,,,sunaqbmgkgqucajzrkp.jpg,,,,,1.243,1.0,,,,,,,1553710902.386347,1553710904.705992,
121,10,Memory,2,,,,,,,sunafvwfsmqkjrutjta.jpg,,,,,1.342,2.0,,,,,,,1553710906.070789,1553710908.621509,
122,10,Memory,2,,,,,,,00208940128fa.jpg,,,,,1.192,1.0,,,,,,,1553710909.854902,1553710911.921278,
123,10,Memory,2,,,,,,,00828940307fa.jpg,,,,,1.715,4.0,,,,,,,1553710913.306431,1553710915.669701,
124,10,Memory,2,,,,,,,00101931230fb.jpg,,,,,1.677,2.0,,,,,,,1553710916.907431,1553710919.207735,
125,10,Memory,2,,,,,,,00957960627fa.jpg,,,,,1.158,1.0,,,,,,,1553710920.574664,1553710922.641322,
126,10,Memory,2,,,,,,,00878960530fa.jpg,,,,,0.708,1.0,,,,,,,1553710923.910406,1553710926.239445,
127,10,Memory,2,,,,,,,sunabzjxlmkwnwzimua.jpg,,,,,1.193,1.0,,,,,,,1553710927.52694,1553710929.715435,
128,10,Memory,2,,,,,,,00913960530fa.jpg,,,,,1.441,2.0,,,,,,,1553710930.979082,1553710933.241376,
129,10,Memory,2,,,,,,,sunaygrtwrwfezqjizr.jpg,,,,,1.024,1.0,,,,,,,1553710934.497521,1553710936.891924,
130,10,Memory,2,,,,,,,00775941205fa.jpg,,,,,1.358,2.0,,,,,,,1553710938.214418,1553710940.393764,
131,10,Memory,2,,,,,,,sunavhxgmgrqsaptynb.jpg,,,,,0.0,,,,,,,,1553710941.631537,1553710943.633116,
132,10,Memory,2,,,,,,,00966960627fa.jpg,,,,,1.616,1.0,,,,,,,1553710944.982859,1553710947.347394,
133,10,Memory,2,,,,,,,00935960627fa.jpg,,,,,1.326,2.0,,,,,,,1553710948.617383,1553710950.982551,
134,10,Memory,2,,,,,,,00071940128fa.jpg,,,,,0.726,1.0,,,,,,,1553710952.252171,1553710954.500384,
135,10,Memory,2,,,,,,,sunahuynahneraqftyz.jpg,,,,,1.073,3.0,,,,,,,1553710955.732256,1553710957.93317,
136,10,Memory,2,,,,,,,sunapqkpqdfvxlbqwyo.jpg,,,,,1.477,3.0,,,,,,,1553710959.171528,1553710961.551163,
137,10,Memory,2,,,,,,,sunaooffzffbhcpirmm.jpg,,,,,1.458,2.0,,,,,,,1553710962.806717,1553710964.935239,
138,10,Memory,2,,,,,,,sunaazzyhbvqjpmazjq.jpg,,,,,1.407,1.0,,,,,,,1553710966.207034,1553710968.470424,
139,10,Memory,2,,,,,,,sunabzuqsrgcsonqlkz.jpg,,,,,0.0,,,,,,,,1553710969.686478,1553710971.588295,
140,10,Memory,2,,,,,,,sunaecpkgfewqqreqwe.jpg,,,,,1.583,1.0,,,,,,,1553710972.804673,1553710974.705342,
141,10,Memory,2,,,,,,,00650941031fa.jpg,,,,,1.358,2.0,,,,,,,1553710975.922409,1553710978.378684,
142,10,Memory,2,,,,,,,00793941205fa.jpg,,,,,0.989,2.0,,,,,,,1553710979.610624,1553710981.778893,
143,10,Memory,2,,,,,,,00557940519fa.jpg,,,,,0.975,1.0,,,,,,,1553710983.046246,1553710985.549087,
144,10,Memory,2,,,,,,,sunaajqmsaavkmgbsth.jpg,,,,,1.059,1.0,,,,,,,1553710986.813138,1553710989.226697,
145,10,Memory,2,,,,,,,00098931230fa.jpg,,,,,0.816,1.0,,,,,,,1553710990.481621,1553710992.61745,
146,10,Memory,2,,,,,,,sunakgbnzxmfohgehnu.jpg,,,,,1.441,1.0,,,,,,,1553710993.865922,1553710996.377762,
147,10,Memory,2,,,,,,,00921960627fa.jpg,,,,,1.633,2.0,,,,,,,1553710997.633744,1553710999.579525,
148,10,Memory,2,,,,,,,sunachtuarilwyqnvjx.jpg,,,,,1.534,2.0,,,,,,,1553711000.813693,1553711002.716101,
149,10,Memory,2,,,,,,,sunagtjwilqjvxohypn.jpg,,,,,1.277,4.0,,,,,,,1553711003.986424,1553711006.472541,
