,Subject,Trial Type,Run,Cued Composite,Uncued Composite,Cued Face,Cued Place,Uncued Face,Uncued Place,Memory Image,Category,Cued Side,Cued Category,Attention Reaction Time (s),Familiarity Reaction Time (s),Familiarity Rating,Attention Level,Cue Validity,Post Invalid Cue,Pre Invalid Cue,Attention Button,Rating History,Stimulus Onset,Stimulus End,Attention Probe
310,10,Memory,6,,,,,,,sunajjxttslobudoqbv.jpg,,,,,0.893,1.0,,,,,,,1553712260.028046,1553712262.276217,
311,10,Memory,6,,,,,,,00062931230fb.jpg,,,,,1.126,1.0,,,,,,,1553712263.696789,1553712266.158129,
312,10,Memory,6,,,,,,,sunalcrtwiycqobgelp.jpg,,,,,1.756,3.0,,,,,,,1553712267.430513,1553712269.966985,
313,10,Memory,6,,,,,,,00743941201fa.jpg,,,,,1.676,1.0,,,,,,,1553712271.248347,1553712273.832169,
314,10,Memory,6,,,,,,,sunabcfpwlpolnutyju.jpg,,,,,1.342,1.0,,,,,,,1553712275.094781,1553712277.612238,
315,10,Memory,6,,,,,,,00631940928fa.jpg,,,,,2.218,3.0,,,,,,,1553712278.867771,1553712281.446715,
316,10,Memory,6,,,,,,,00209940128fb.jpg,,,,,0.775,1.0,,,,,,,1553712282.717991,1553712284.984635,
317,10,Memory,6,,,,,,,sunabyfxcxhdebvdyfd.jpg,,,,,1.691,1.0,,,,,,,1553712286.253083,1553712288.653498,
318,10,Memory,6,,,,,,,sunabaergayifsgacxt.jpg,,,,,1.425,1.0,,,,,,,1553712289.920708,1553712292.424165,
319,10,Memory,6,,,,,,,00811960530fa.jpg,,,,,1.727,1.0,,,,,,,1553712293.688012,1553712295.906155,
320,10,Memory,6,,,,,,,00482940519fa.jpg,,,,,2.476,3.0,,,,,,,1553712297.188954,1553712299.904008,
321,10,Memory,6,,,,,,,sunatstrpjxhvtbaczf.jpg,,,,,1.775,2.0,,,,,,,1553712301.158166,1553712303.470324,
322,10,Memory,6,,,,,,,00931960627fa.jpg,,,,,0.842,1.0,,,,,,,1553712304.742532,1553712307.138293,
323,10,Memory,6,,,,,,,sunaeoghzrjarigmwua.jpg,,,,,1.675,2.0,,,,,,,1553712308.411465,1553712310.806003,
324,10,Memory,6,,,,,,,00235940128fb.jpg,,,,,1.026,1.0,,,,,,,1553712312.14383,1553712314.490877,
325,10,Memory,6,,,,,,,sunaaelotvjgibjtjhs.jpg,,,,,1.659,1.0,,,,,,,1553712315.761678,1553712318.040956,
326,10,Memory,6,,,,,,,00723941201fa.jpg,,,,,0.975,1.0,,,,,,,1553712319.39703,1553712321.643487,
327,10,Memory,6,,,,,,,00132931230fb.jpg,,,,,0.777,1.0,,,,,,,1553712322.914411,1553712325.161337,
328,10,Memory,6,,,,,,,sunaczwgyukesaajxnx.jpg,,,,,2.276,3.0,,,,,,,1553712326.431993,1553712329.014785,
329,10,Memory,6,,,,,,,00221940128fa.jpg,,,,,2.025,2.0,,,,,,,1553712330.284701,1553712332.80389,
330,10,Memory,6,,,,,,,sunaedtgwjvvziytspa.jpg,,,,,1.026,1.0,,,,,,,1553712334.051257,1553712336.314235,
331,10,Memory,6,,,,,,,sunahedfrhtcwpneund.jpg,,,,,1.293,1.0,,,,,,,1553712337.568948,1553712339.852517,
332,10,Memory,6,,,,,,,00862940307fa.jpg,,,,,0.875,1.0,,,,,,,1553712341.137367,1553712343.400735,
333,10,Memory,6,,,,,,,00868960307fa.jpg,,,,,0.759,1.0,,,,,,,1553712344.633455,1553712346.918487,
334,10,Memory,6,,,,,,,sunarpsxqkduedrrzyi.jpg,,,,,1.91,2.0,,,,,,,1553712348.222978,1553712350.723256,
335,10,Memory,6,,,,,,,sunaizgnnplsvajzhkc.jpg,,,,,0.924,1.0,,,,,,,1553712351.97488,1553712354.262259,
336,10,Memory,6,,,,,,,sunakwlvxjpddialozd.jpg,,,,,1.49,1.0,,,,,,,1553712355.525254,1553712357.629111,
337,10,Memory,6,,,,,,,sunaanjcbzdvtvblsdy.jpg,,,,,0.893,1.0,,,,,,,1553712358.892907,1553712361.177977,
338,10,Memory,6,,,,,,,00630940928fa.jpg,,,,,0.776,1.0,,,,,,,1553712362.511328,1553712364.624874,
339,10,Memory,6,,,,,,,00943960627fa.jpg,,,,,1.442,3.0,,,,,,,1553712365.995913,1553712368.326035,
340,10,Memory,6,,,,,,,00887960530.jpg,,,,,1.119,2.0,,,,,,,1553712369.579934,1553712371.628053,
341,10,Memory,6,,,,,,,00953960627fa.jpg,,,,,0.893,1.0,,,,,,,1553712372.880325,1553712375.162585,
342,10,Memory,6,,,,,,,sunadbdqzigzwipuipr.jpg,,,,,1.392,2.0,,,,,,,1553712376.449466,1553712378.986112,
343,10,Memory,6,,,,,,,sunaafjszryxyavjzln.jpg,,,,,0.926,1.0,,,,,,,1553712380.26751,1553712382.336598,
344,10,Memory,6,,,,,,,sunbdycacjfaujxitbw.jpg,,,,,1.309,1.0,,,,,,,1553712383.601515,1553712385.884205,
345,10,Memory,6,,,,,,,00885960530fa.jpg,,,,,0.808,1.0,,,,,,,1553712387.151901,1553712389.338307,
346,10,Memory,6,,,,,,,sunaptrqvaooxfvktvw.jpg,,,,,0.776,1.0,,,,,,,1553712390.621097,1553712392.665641,
347,10,Memory,6,,,,,,,sunabclssnoeuigtawp.jpg,,,,,0.926,1.0,,,,,,,1553712393.971383,1553712396.359812,
348,10,Memory,6,,,,,,,00979960627fa.jpg,,,,,0.843,1.0,,,,,,,1553712397.605849,1553712399.856568,
349,10,Memory,6,,,,,,,00080931230fb.jpg,,,,,0.859,1.0,,,,,,,1553712401.118747,1553712403.355498,
