,Subject,Trial Type,Run,Cued Composite,Uncued Composite,Cued Face,Cued Place,Uncued Face,Uncued Place,Memory Image,Category,Cued Side,Cued Category,Attention Reaction Time (s),Familiarity Reaction Time (s),Familiarity Rating,Attention Level,Cue Validity,Post Invalid Cue,Pre Invalid Cue,Attention Button,Rating History,Stimulus Onset,Stimulus End,Attention Probe
0,2,Presentation,0,01002960627fb_sunbwaafjdebjzttuvq.jpg,00915960620fa_sunapileznnbbmrwoei.jpg,01002960627fb.jpg,sunbwaafjdebjzttuvq.jpg,00915960620fa.jpg,sunapileznnbbmrwoei.jpg,,,<,Place,,,,,1,,,,,,,x
1,2,Presentation,0,00581940928fa_sunacvzhvcksnwqcqbw.jpg,00963960627fa_sunayaepykrqvenaqqy.jpg,00581940928fa.jpg,sunacvzhvcksnwqcqbw.jpg,00963960627fa.jpg,sunayaepykrqvenaqqy.jpg,,,>,Face,,,,,1,,,,,,,x
2,2,Presentation,0,00996960627fa_sunbpvgllfdejxcpjqp.jpg,00576941031fa_sunacvjlsylseoghjup.jpg,00996960627fa.jpg,sunbpvgllfdejxcpjqp.jpg,00576941031fa.jpg,sunacvjlsylseoghjup.jpg,,,<,Face,,,,,1,,,,,,,x
3,2,Presentation,0,00901960530fa_sunammbnoambmhdxdwd.jpg,00958960627fa_sunavspxmxubqaeidjt.jpg,00901960530fa.jpg,sunammbnoambmhdxdwd.jpg,00958960627fa.jpg,sunavspxmxubqaeidjt.jpg,,,>,Place,,,,,1,,,,,,,o
4,2,Presentation,0,00479940519fa_sunabxsbfwjccqxxzxq.jpg,00109931230fa_sunaajuzribjrizdshh.jpg,00479940519fa.jpg,sunabxsbfwjccqxxzxq.jpg,00109931230fa.jpg,sunaajuzribjrizdshh.jpg,,,<,Face,,,,,0,,,,,,,o
5,2,Presentation,0,00235940128fb_sunabclssnoeuigtawp.jpg,00987960627fa_sunbloeoiozwjjsiamp.jpg,00235940128fb.jpg,sunabclssnoeuigtawp.jpg,00987960627fa.jpg,sunbloeoiozwjjsiamp.jpg,,,>,Place,,,,,1,,,,,,,o
6,2,Presentation,0,01003960627fb_sunbwdrdvsweerwsdrj.jpg,00123931230fb_sunaalcrrdbjgdztbiz.jpg,01003960627fb.jpg,sunbwdrdvsweerwsdrj.jpg,00123931230fb.jpg,sunaalcrrdbjgdztbiz.jpg,,,<,Face,,,,,1,,,,,,,o
7,2,Presentation,0,00540940519fa_sunacdnquypmsshhsbk.jpg,00926960627Fa_sunapqwoeotxshkukbh.jpg,00540940519fa.jpg,sunacdnquypmsshhsbk.jpg,00926960627Fa.jpg,sunapqwoeotxshkukbh.jpg,,,>,Place,,,,,1,,,,,,,x
8,2,Presentation,0,00801941205fa_sunagvprlbprarvgdvj.jpg,00093931230fa_sunaahwnmtqsrhocysw.jpg,00801941205fa.jpg,sunagvprlbprarvgdvj.jpg,00093931230fa.jpg,sunaahwnmtqsrhocysw.jpg,,,<,Place,,,,,1,,,,,,,o
9,2,Presentation,0,00900960530fa_sunamlotskmmsjeogby.jpg,00880960530fa_sunakmnfgklupjijsgf.jpg,00900960530fa.jpg,sunamlotskmmsjeogby.jpg,00880960530fa.jpg,sunakmnfgklupjijsgf.jpg,,,>,Face,,,,,1,,,,,,,x
10,2,Memory,0,,,,,,,00801941205fa.jpg,,,,,,,,,,,,,,,
11,2,Memory,0,,,,,,,01003960627fb.jpg,,,,,,,,,,,,,,,
12,2,Memory,0,,,,,,,sunaecpkgfewqqreqwe.jpg,,,,,,,,,,,,,,,
13,2,Memory,0,,,,,,,sunbloeoiozwjjsiamp.jpg,,,,,,,,,,,,,,,
14,2,Memory,0,,,,,,,sunaibnpvhkdpdnzcnz.jpg,,,,,,,,,,,,,,,
15,2,Memory,0,,,,,,,00745941205fa.jpg,,,,,,,,,,,,,,,
16,2,Memory,0,,,,,,,sunayaepykrqvenaqqy.jpg,,,,,,,,,,,,,,,
17,2,Memory,0,,,,,,,sunaazezcsunmhttzxz.jpg,,,,,,,,,,,,,,,
18,2,Memory,0,,,,,,,00198940128fb.jpg,,,,,,,,,,,,,,,
19,2,Memory,0,,,,,,,sunakmnfgklupjijsgf.jpg,,,,,,,,,,,,,,,
20,2,Memory,0,,,,,,,00987960627fa.jpg,,,,,,,,,,,,,,,
21,2,Memory,0,,,,,,,sunagufzbeteqdjxais.jpg,,,,,,,,,,,,,,,
22,2,Memory,0,,,,,,,00109931230fa.jpg,,,,,,,,,,,,,,,
23,2,Memory,0,,,,,,,sunagvprlbprarvgdvj.jpg,,,,,,,,,,,,,,,
24,2,Memory,0,,,,,,,sunabrwnslxalcohfre.jpg,,,,,,,,,,,,,,,
25,2,Memory,0,,,,,,,00753941201fa.jpg,,,,,,,,,,,,,,,
26,2,Memory,0,,,,,,,00915960620fa.jpg,,,,,,,,,,,,,,,
27,2,Memory,0,,,,,,,sunafcofuuzebuadceo.jpg,,,,,,,,,,,,,,,
28,2,Memory,0,,,,,,,sunaeouogqolxvggaoq.jpg,,,,,,,,,,,,,,,
29,2,Memory,0,,,,,,,00880960530fa.jpg,,,,,,,,,,,,,,,
30,2,Memory,0,,,,,,,sunabxsbfwjccqxxzxq.jpg,,,,,,,,,,,,,,,
31,2,Memory,0,,,,,,,sunapileznnbbmrwoei.jpg,,,,,,,,,,,,,,,
32,2,Memory,0,,,,,,,00479940519fa.jpg,,,,,,,,,,,,,,,
33,2,Memory,0,,,,,,,00540940519fa.jpg,,,,,,,,,,,,,,,
34,2,Memory,0,,,,,,,sunalqmfgeadpqsyzpd.jpg,,,,,,,,,,,,,,,
35,2,Memory,0,,,,,,,00963960627fa.jpg,,,,,,,,,,,,,,,
36,2,Memory,0,,,,,,,sunaakmxzhuceuiryah.jpg,,,,,,,,,,,,,,,
37,2,Memory,0,,,,,,,00747941201fa.jpg,,,,,,,,,,,,,,,
38,2,Memory,0,,,,,,,00296940422fa.jpg,,,,,,,,,,,,,,,
39,2,Memory,0,,,,,,,sunaeutbrtswvsozxyk.jpg,,,,,,,,,,,,,,,
40,2,Memory,0,,,,,,,00720960620fa.jpg,,,,,,,,,,,,,,,
41,2,Memory,0,,,,,,,00797960620fa.jpg,,,,,,,,,,,,,,,
42,2,Memory,0,,,,,,,00834940307fa.jpg,,,,,,,,,,,,,,,
43,2,Memory,0,,,,,,,sunacvzhvcksnwqcqbw.jpg,,,,,,,,,,,,,,,
44,2,Memory,0,,,,,,,sunacdnquypmsshhsbk.jpg,,,,,,,,,,,,,,,
45,2,Memory,0,,,,,,,sunaajuzribjrizdshh.jpg,,,,,,,,,,,,,,,
46,2,Memory,0,,,,,,,00894960620fa.jpg,,,,,,,,,,,,,,,
47,2,Memory,0,,,,,,,00581940928fa.jpg,,,,,,,,,,,,,,,
48,2,Memory,0,,,,,,,sunbwdrdvsweerwsdrj.jpg,,,,,,,,,,,,,,,
49,2,Memory,0,,,,,,,00115931230fa.jpg,,,,,,,,,,,,,,,
50,2,Presentation,1,00127931230fa_sunaampvucecsfbdafn.jpg,00972960627fa_sunbbfqwjpdxniyhies.jpg,00127931230fa.jpg,sunaampvucecsfbdafn.jpg,00972960627fa.jpg,sunbbfqwjpdxniyhies.jpg,,,>,Face,,,,,1,,,,,,,x
51,2,Presentation,1,00694941121fa_sunadrmfzmstgdjdcod.jpg,00507940519fa_sunacacflqoyxhsqzhe.jpg,00694941121fa.jpg,sunadrmfzmstgdjdcod.jpg,00507940519fa.jpg,sunacacflqoyxhsqzhe.jpg,,,>,Place,,,,,1,,,,,,,x
52,2,Presentation,1,00096931230fa_sunaaiqiqcggrskoqgy.jpg,00870940307fa_sunajrgtewnualfcerj.jpg,00096931230fa.jpg,sunaaiqiqcggrskoqgy.jpg,00870940307fa.jpg,sunajrgtewnualfcerj.jpg,,,<,Face,,,,,1,,,,,,,x
53,2,Presentation,1,00239940128fa_sunabctlikybqabezjv.jpg,00122931230fa_sunaakxjfbrrequcjmx.jpg,00239940128fa.jpg,sunabctlikybqabezjv.jpg,00122931230fa.jpg,sunaakxjfbrrequcjmx.jpg,,,<,Place,,,,,1,,,,,,,o
54,2,Presentation,1,00983960627fa_sunbfyvfqiimvdaxlqn.jpg,00077931230fb_sunaafgqutfaishsxyu.jpg,00983960627fa.jpg,sunbfyvfqiimvdaxlqn.jpg,00077931230fb.jpg,sunaafgqutfaishsxyu.jpg,,,>,Face,,,,,1,,,,,,,x
55,2,Presentation,1,00194940128fb_sunaayehfdqcyxggsej.jpg,00988960627fa_sunbmaiocftdtvnzgap.jpg,00194940128fb.jpg,sunaayehfdqcyxggsej.jpg,00988960627fa.jpg,sunbmaiocftdtvnzgap.jpg,,,<,Face,,,,,1,,,,,,,o
56,2,Presentation,1,00245940128fa_sunabeyhmxodahoieyk.jpg,00316940422fa_sunabxmguapjekttvwm.jpg,00245940128fa.jpg,sunabeyhmxodahoieyk.jpg,00316940422fa.jpg,sunabxmguapjekttvwm.jpg,,,>,Place,,,,,1,,,,,,,o
57,2,Presentation,1,00909960530_sunaobtizabegtwfwul.jpg,00589940928fa_sunacwggadqsfpovdjv.jpg,00909960530.jpg,sunaobtizabegtwfwul.jpg,00589940928fa.jpg,sunacwggadqsfpovdjv.jpg,,,<,Place,,,,,1,,,,,,,x
58,2,Presentation,1,00818940307fa_sunahpblecxtmuzkmxb.jpg,00782941205fa_sunagfvluwixdsozaql.jpg,00818940307fa.jpg,sunahpblecxtmuzkmxb.jpg,00782941205fa.jpg,sunagfvluwixdsozaql.jpg,,,>,Face,,,,,0,,,,,,,x
59,2,Presentation,1,00810941205fa_sunahctntqrunhdxhtb.jpg,00762941201fa_sunafgzgbisbopcyslr.jpg,00810941205fa.jpg,sunahctntqrunhdxhtb.jpg,00762941201fa.jpg,sunafgzgbisbopcyslr.jpg,,,<,Place,,,,,1,,,,,,,o
60,2,Memory,1,,,,,,,sunaakxjfbrrequcjmx.jpg,,,,,,,,,,,,,,,
61,2,Memory,1,,,,,,,00239940128fa.jpg,,,,,,,,,,,,,,,
62,2,Memory,1,,,,,,,00782941205fa.jpg,,,,,,,,,,,,,,,
63,2,Memory,1,,,,,,,00799941205fa.jpg,,,,,,,,,,,,,,,
64,2,Memory,1,,,,,,,00694941121fa.jpg,,,,,,,,,,,,,,,
65,2,Memory,1,,,,,,,sunabctlikybqabezjv.jpg,,,,,,,,,,,,,,,
66,2,Memory,1,,,,,,,00096931230fa.jpg,,,,,,,,,,,,,,,
67,2,Memory,1,,,,,,,sunagfvluwixdsozaql.jpg,,,,,,,,,,,,,,,
68,2,Memory,1,,,,,,,sunagutjvdvnhxejerz.jpg,,,,,,,,,,,,,,,
69,2,Memory,1,,,,,,,00789960620fa.jpg,,,,,,,,,,,,,,,
70,2,Memory,1,,,,,,,00308940422fb.jpg,,,,,,,,,,,,,,,
71,2,Memory,1,,,,,,,sunbfyvfqiimvdaxlqn.jpg,,,,,,,,,,,,,,,
72,2,Memory,1,,,,,,,sunadrmfzmstgdjdcod.jpg,,,,,,,,,,,,,,,
73,2,Memory,1,,,,,,,00638941031fa.jpg,,,,,,,,,,,,,,,
74,2,Memory,1,,,,,,,sunahmhrncocyhsjpxk.jpg,,,,,,,,,,,,,,,
75,2,Memory,1,,,,,,,00316940422fa.jpg,,,,,,,,,,,,,,,
76,2,Memory,1,,,,,,,00972960627fa.jpg,,,,,,,,,,,,,,,
77,2,Memory,1,,,,,,,sunabwfvcqqidycwypa.jpg,,,,,,,,,,,,,,,
78,2,Memory,1,,,,,,,00816941205fa.jpg,,,,,,,,,,,,,,,
79,2,Memory,1,,,,,,,sunabeyhmxodahoieyk.jpg,,,,,,,,,,,,,,,
80,2,Memory,1,,,,,,,sunaafgqutfaishsxyu.jpg,,,,,,,,,,,,,,,
81,2,Memory,1,,,,,,,sunagjzcrjvmxzqzljx.jpg,,,,,,,,,,,,,,,
82,2,Memory,1,,,,,,,sunaangbuylfvckqqoo.jpg,,,,,,,,,,,,,,,
83,2,Memory,1,,,,,,,sunagtjwilqjvxohypn.jpg,,,,,,,,,,,,,,,
84,2,Memory,1,,,,,,,sunaalhlvzmjmitybdn.jpg,,,,,,,,,,,,,,,
85,2,Memory,1,,,,,,,00784941205fb.jpg,,,,,,,,,,,,,,,
86,2,Memory,1,,,,,,,sunadfktsqjthoglcsm.jpg,,,,,,,,,,,,,,,
87,2,Memory,1,,,,,,,00077931230fb.jpg,,,,,,,,,,,,,,,
88,2,Memory,1,,,,,,,sunasnqkkyhilqkxiqm.jpg,,,,,,,,,,,,,,,
89,2,Memory,1,,,,,,,sunbbfqwjpdxniyhies.jpg,,,,,,,,,,,,,,,
90,2,Memory,1,,,,,,,00122931230fa.jpg,,,,,,,,,,,,,,,
91,2,Memory,1,,,,,,,sunagpancjmxqfazssf.jpg,,,,,,,,,,,,,,,
92,2,Memory,1,,,,,,,sunabxmguapjekttvwm.jpg,,,,,,,,,,,,,,,
93,2,Memory,1,,,,,,,00131931230fb.jpg,,,,,,,,,,,,,,,
94,2,Memory,1,,,,,,,00983960627fa.jpg,,,,,,,,,,,,,,,
95,2,Memory,1,,,,,,,00245940128fa.jpg,,,,,,,,,,,,,,,
96,2,Memory,1,,,,,,,00793941205fa.jpg,,,,,,,,,,,,,,,
97,2,Memory,1,,,,,,,00949960627fb.jpg,,,,,,,,,,,,,,,
98,2,Memory,1,,,,,,,00124931230fa.jpg,,,,,,,,,,,,,,,
99,2,Memory,1,,,,,,,sunaaiqiqcggrskoqgy.jpg,,,,,,,,,,,,,,,
100,2,Presentation,2,01011960627fa_sundahdxwmcdluscvot.jpg,00136931230fb_sunaanptmsknhirrzed.jpg,01011960627fa.jpg,sundahdxwmcdluscvot.jpg,00136931230fb.jpg,sunaanptmsknhirrzed.jpg,,,>,Face,,,,,0,,,,,,,x
101,2,Presentation,2,00620940928fa_sunacypmnujalygkunp.jpg,00723941201fa_sunaedtgwjvvziytspa.jpg,00620940928fa.jpg,sunacypmnujalygkunp.jpg,00723941201fa.jpg,sunaedtgwjvvziytspa.jpg,,,>,Place,,,,,1,,,,,,,o
102,2,Presentation,2,00766960620fa_sunafijbgncijwykrnl.jpg,00921960627fa_sunapqkpqdfvxlbqwyo.jpg,00766960620fa.jpg,sunafijbgncijwykrnl.jpg,00921960627fa.jpg,sunapqkpqdfvxlbqwyo.jpg,,,<,Place,,,,,1,,,,,,,x
103,2,Presentation,2,00795941205fa_sunagtumacdlmciqamz.jpg,00265940128fb_sunabkmdplkdbvxriff.jpg,00795941205fa.jpg,sunagtumacdlmciqamz.jpg,00265940128fb.jpg,sunabkmdplkdbvxriff.jpg,,,<,Face,,,,,1,,,,,,,o
104,2,Presentation,2,00779941205fa_sunagdzlvkqtpnfxfcg.jpg,00741941201fa_sunaemcowdozyphwknd.jpg,00779941205fa.jpg,sunagdzlvkqtpnfxfcg.jpg,00741941201fa.jpg,sunaemcowdozyphwknd.jpg,,,<,Place,,,,,1,,,,,,,x
105,2,Presentation,2,00746941201fa_sunaetydippjxikifsb.jpg,00305940422fa_sunabtrnbvpppgczjim.jpg,00746941201fa.jpg,sunaetydippjxikifsb.jpg,00305940422fa.jpg,sunabtrnbvpppgczjim.jpg,,,>,Face,,,,,1,,,,,,,x
106,2,Presentation,2,00908960530fa_sunanwjjyqqwzqrqagd.jpg,00786941205fa_sunagmhildamktmqjss.jpg,00908960530fa.jpg,sunanwjjyqqwzqrqagd.jpg,00786941205fa.jpg,sunagmhildamktmqjss.jpg,,,<,Place,,,,,1,,,,,,,o
107,2,Presentation,2,00942960627fa_sunarfdklgdnjgeqfjg.jpg,00977960627fa_sunbbxkanhzjgbwyxqs.jpg,00942960627fa.jpg,sunarfdklgdnjgeqfjg.jpg,00977960627fa.jpg,sunbbxkanhzjgbwyxqs.jpg,,,>,Place,,,,,1,,,,,,,x
108,2,Presentation,2,00080931230fb_sunaafjszryxyavjzln.jpg,00548940519fa_sunacerqowiaeoqkmsq.jpg,00080931230fb.jpg,sunaafjszryxyavjzln.jpg,00548940519fa.jpg,sunacerqowiaeoqkmsq.jpg,,,>,Face,,,,,1,,,,,,,x
109,2,Presentation,2,00076931230fa_sunaafewhewbxmjiurz.jpg,00557940519fa_sunachtuarilwyqnvjx.jpg,00076931230fa.jpg,sunaafewhewbxmjiurz.jpg,00557940519fa.jpg,sunachtuarilwyqnvjx.jpg,,,<,Face,,,,,1,,,,,,,o
110,2,Memory,2,,,,,,,sunagtqhhwxjeuxdebe.jpg,,,,,,,,,,,,,,,
111,2,Memory,2,,,,,,,sunagoufulkpsxrmklt.jpg,,,,,,,,,,,,,,,
112,2,Memory,2,,,,,,,sunagdzlvkqtpnfxfcg.jpg,,,,,,,,,,,,,,,
113,2,Memory,2,,,,,,,sunafbwnojpqeyzssoe.jpg,,,,,,,,,,,,,,,
114,2,Memory,2,,,,,,,00746941201fa.jpg,,,,,,,,,,,,,,,
115,2,Memory,2,,,,,,,sunaafjszryxyavjzln.jpg,,,,,,,,,,,,,,,
116,2,Memory,2,,,,,,,sunafijbgncijwykrnl.jpg,,,,,,,,,,,,,,,
117,2,Memory,2,,,,,,,00620940928fa.jpg,,,,,,,,,,,,,,,
118,2,Memory,2,,,,,,,00136931230fb.jpg,,,,,,,,,,,,,,,
119,2,Memory,2,,,,,,,sunaetydippjxikifsb.jpg,,,,,,,,,,,,,,,
120,2,Memory,2,,,,,,,sunbfzchmomnvzhbxdg.jpg,,,,,,,,,,,,,,,
121,2,Memory,2,,,,,,,sunaemcowdozyphwknd.jpg,,,,,,,,,,,,,,,
122,2,Memory,2,,,,,,,00650941031fa.jpg,,,,,,,,,,,,,,,
123,2,Memory,2,,,,,,,sunacerqowiaeoqkmsq.jpg,,,,,,,,,,,,,,,
124,2,Memory,2,,,,,,,00313940422fa.jpg,,,,,,,,,,,,,,,
125,2,Memory,2,,,,,,,00752960620fa.jpg,,,,,,,,,,,,,,,
126,2,Memory,2,,,,,,,sunaanptmsknhirrzed.jpg,,,,,,,,,,,,,,,
127,2,Memory,2,,,,,,,00548940519fa.jpg,,,,,,,,,,,,,,,
128,2,Memory,2,,,,,,,sunacypmnujalygkunp.jpg,,,,,,,,,,,,,,,
129,2,Memory,2,,,,,,,sunachtuarilwyqnvjx.jpg,,,,,,,,,,,,,,,
130,2,Memory,2,,,,,,,00779941205fa.jpg,,,,,,,,,,,,,,,
131,2,Memory,2,,,,,,,00557940519fa.jpg,,,,,,,,,,,,,,,
132,2,Memory,2,,,,,,,sunahedfrhtcwpneund.jpg,,,,,,,,,,,,,,,
133,2,Memory,2,,,,,,,00811960530fa.jpg,,,,,,,,,,,,,,,
134,2,Memory,2,,,,,,,00080931230fb.jpg,,,,,,,,,,,,,,,
135,2,Memory,2,,,,,,,00862940307fa.jpg,,,,,,,,,,,,,,,
136,2,Memory,2,,,,,,,00741941201fa.jpg,,,,,,,,,,,,,,,
137,2,Memory,2,,,,,,,00766960620fa.jpg,,,,,,,,,,,,,,,
138,2,Memory,2,,,,,,,00984960627fa.jpg,,,,,,,,,,,,,,,
139,2,Memory,2,,,,,,,sunaizgnnplsvajzhkc.jpg,,,,,,,,,,,,,,,
140,2,Memory,2,,,,,,,00794960620fa.jpg,,,,,,,,,,,,,,,
141,2,Memory,2,,,,,,,sunabwjvmoaddlyxfjr.jpg,,,,,,,,,,,,,,,
142,2,Memory,2,,,,,,,sunaiwduelojtwaqeyh.jpg,,,,,,,,,,,,,,,
143,2,Memory,2,,,,,,,00787960620fa.jpg,,,,,,,,,,,,,,,
144,2,Memory,2,,,,,,,sunadikxpvqeabxrvvc.jpg,,,,,,,,,,,,,,,
145,2,Memory,2,,,,,,,00921960627fa.jpg,,,,,,,,,,,,,,,
146,2,Memory,2,,,,,,,sunapqkpqdfvxlbqwyo.jpg,,,,,,,,,,,,,,,
147,2,Memory,2,,,,,,,00944960627fa.jpg,,,,,,,,,,,,,,,
148,2,Memory,2,,,,,,,sunasbbntuiheekqyaq.jpg,,,,,,,,,,,,,,,
149,2,Memory,2,,,,,,,00854940307fa.jpg,,,,,,,,,,,,,,,
150,2,Presentation,3,00967960627fa_sunbaejotfklekvpxcz.jpg,00876960620fa_sunajwqkfsykceonyig.jpg,00967960627fa.jpg,sunbaejotfklekvpxcz.jpg,00876960620fa.jpg,sunajwqkfsykceonyig.jpg,,,<,Face,,,,,1,,,,,,,x
151,2,Presentation,3,00959960627fa_sunavxokzybtomhbmvm.jpg,00227940128fa_sunabckqabszusgcykj.jpg,00959960627fa.jpg,sunavxokzybtomhbmvm.jpg,00227940128fa.jpg,sunabckqabszusgcykj.jpg,,,>,Face,,,,,1,,,,,,,x
152,2,Presentation,3,00730960620fa_sunaekgzpfilgjxpeyq.jpg,00943960627fa_sunarpsxqkduedrrzyi.jpg,00730960620fa.jpg,sunaekgzpfilgjxpeyq.jpg,00943960627fa.jpg,sunarpsxqkduedrrzyi.jpg,,,<,Face,,,,,1,,,,,,,o
153,2,Presentation,3,00869940307fa_sunajoveqhiprwqgoco.jpg,00263940128fb_sunabjuovqvyfuzvqwt.jpg,00869940307fa.jpg,sunajoveqhiprwqgoco.jpg,00263940128fb.jpg,sunabjuovqvyfuzvqwt.jpg,,,>,Place,,,,,1,,,,,,,o
154,2,Presentation,3,00839940307fa_sunaipyohrqlwngaqif.jpg,00939960627fa_sunarceibpcyacbmfga.jpg,00839940307fa.jpg,sunaipyohrqlwngaqif.jpg,00939960627fa.jpg,sunarceibpcyacbmfga.jpg,,,>,Place,,,,,1,,,,,,,o
155,2,Presentation,3,00728941205fa_sunaejnvnpltdmhbcsi.jpg,00744941201fa_sunaeomlfaabhpswasy.jpg,00728941205fa.jpg,sunaejnvnpltdmhbcsi.jpg,00744941201fa.jpg,sunaeomlfaabhpswasy.jpg,,,>,Face,,,,,1,,,,,,,o
156,2,Presentation,3,00968960627fa_sunbagfpovqwbuexqdn.jpg,00969960627fa_sunbaoizrfijvhpnnjn.jpg,00968960627fa.jpg,sunbagfpovqwbuexqdn.jpg,00969960627fa.jpg,sunbaoizrfijvhpnnjn.jpg,,,<,Face,,,,,1,,,,,,,o
157,2,Presentation,3,00095931230fa_sunaahzooisqkwlxwoz.jpg,00976960627fa_sunbbhqyyzmsxhsbjmp.jpg,00095931230fa.jpg,sunaahzooisqkwlxwoz.jpg,00976960627fa.jpg,sunbbhqyyzmsxhsbjmp.jpg,,,>,Place,,,,,1,,,,,,,x
158,2,Presentation,3,00914960620fa_sunaozisvwfbmlkfhzv.jpg,01207940128fa_sundbixjudsgeuuehrn.jpg,00914960620fa.jpg,sunaozisvwfbmlkfhzv.jpg,01207940128fa.jpg,sundbixjudsgeuuehrn.jpg,,,<,Place,,,,,0,,,,,,,x
159,2,Presentation,3,00130931230fa_sunaamvxnvouicstkjb.jpg,00742941201fa_sunaenwuebvlpdmntju.jpg,00130931230fa.jpg,sunaamvxnvouicstkjb.jpg,00742941201fa.jpg,sunaenwuebvlpdmntju.jpg,,,<,Place,,,,,1,,,,,,,o
160,2,Memory,3,,,,,,,00771941205fa.jpg,,,,,,,,,,,,,,,
161,2,Memory,3,,,,,,,sunapqwnqzxlsfvgsjm.jpg,,,,,,,,,,,,,,,
162,2,Memory,3,,,,,,,00871940307.jpg,,,,,,,,,,,,,,,
163,2,Memory,3,,,,,,,00925960627fa.jpg,,,,,,,,,,,,,,,
164,2,Memory,3,,,,,,,sunacsaovnjezqwbykf.jpg,,,,,,,,,,,,,,,
165,2,Memory,3,,,,,,,00290940422fa.jpg,,,,,,,,,,,,,,,
166,2,Memory,3,,,,,,,sunbaejotfklekvpxcz.jpg,,,,,,,,,,,,,,,
167,2,Memory,3,,,,,,,00876960620fa.jpg,,,,,,,,,,,,,,,
168,2,Memory,3,,,,,,,sunafowswglhxcsufpo.jpg,,,,,,,,,,,,,,,
169,2,Memory,3,,,,,,,00263940128fb.jpg,,,,,,,,,,,,,,,
170,2,Memory,3,,,,,,,sunabwmcbaxwioksdgw.jpg,,,,,,,,,,,,,,,
171,2,Memory,3,,,,,,,00906960530fa.jpg,,,,,,,,,,,,,,,
172,2,Memory,3,,,,,,,sunaeomlfaabhpswasy.jpg,,,,,,,,,,,,,,,
173,2,Memory,3,,,,,,,sunaahzooisqkwlxwoz.jpg,,,,,,,,,,,,,,,
174,2,Memory,3,,,,,,,sunaejnvnpltdmhbcsi.jpg,,,,,,,,,,,,,,,
175,2,Memory,3,,,,,,,00728941205fa.jpg,,,,,,,,,,,,,,,
176,2,Memory,3,,,,,,,00809960620fa.jpg,,,,,,,,,,,,,,,
177,2,Memory,3,,,,,,,sunajoveqhiprwqgoco.jpg,,,,,,,,,,,,,,,
178,2,Memory,3,,,,,,,sunbagfpovqwbuexqdn.jpg,,,,,,,,,,,,,,,
179,2,Memory,3,,,,,,,00742941201fa.jpg,,,,,,,,,,,,,,,
180,2,Memory,3,,,,,,,sunajrujcsdxmfbssmc.jpg,,,,,,,,,,,,,,,
181,2,Memory,3,,,,,,,00869940307fa.jpg,,,,,,,,,,,,,,,
182,2,Memory,3,,,,,,,00929960627fa.jpg,,,,,,,,,,,,,,,
183,2,Memory,3,,,,,,,00967960627fa.jpg,,,,,,,,,,,,,,,
184,2,Memory,3,,,,,,,sunabjuovqvyfuzvqwt.jpg,,,,,,,,,,,,,,,
185,2,Memory,3,,,,,,,00095931230fa.jpg,,,,,,,,,,,,,,,
186,2,Memory,3,,,,,,,00227940128fa.jpg,,,,,,,,,,,,,,,
187,2,Memory,3,,,,,,,sunantryfbloeaomfta.jpg,,,,,,,,,,,,,,,
188,2,Memory,3,,,,,,,sunajwqkfsykceonyig.jpg,,,,,,,,,,,,,,,
189,2,Memory,3,,,,,,,00564941031fa.jpg,,,,,,,,,,,,,,,
190,2,Memory,3,,,,,,,sunahbvlpavurqoxdeq.jpg,,,,,,,,,,,,,,,
191,2,Memory,3,,,,,,,sunaagcpoejbuzyvddd.jpg,,,,,,,,,,,,,,,
192,2,Memory,3,,,,,,,00089931230fa.jpg,,,,,,,,,,,,,,,
193,2,Memory,3,,,,,,,sunaprnrbmgkomdbchr.jpg,,,,,,,,,,,,,,,
194,2,Memory,3,,,,,,,00314940422fa.jpg,,,,,,,,,,,,,,,
195,2,Memory,3,,,,,,,sunabqowuarvqqcnipn.jpg,,,,,,,,,,,,,,,
196,2,Memory,3,,,,,,,sunabckqabszusgcykj.jpg,,,,,,,,,,,,,,,
197,2,Memory,3,,,,,,,sunaenwuebvlpdmntju.jpg,,,,,,,,,,,,,,,
198,2,Memory,3,,,,,,,00968960627fa.jpg,,,,,,,,,,,,,,,
199,2,Memory,3,,,,,,,00744941201fa.jpg,,,,,,,,,,,,,,,
200,2,Presentation,4,00858940307fa_sunaixpqndlwhwjtjek.jpg,00071941031fa_sunaaexqbtdswxrqjvz.jpg,00858940307fa.jpg,sunaixpqndlwhwjtjek.jpg,00071941031fa.jpg,sunaaexqbtdswxrqjvz.jpg,,,<,Face,,,,,1,,,,,,,o
201,2,Presentation,4,00288940422fa_sunabppokiyglaxpcha.jpg,00144931230fb_sunaathajvxrgptwhoj.jpg,00288940422fa.jpg,sunabppokiyglaxpcha.jpg,00144931230fb.jpg,sunaathajvxrgptwhoj.jpg,,,<,Place,,,,,1,,,,,,,o
202,2,Presentation,4,00807941205fa_sunahawfngukizslzsd.jpg,00979960627fa_sunbdycacjfaujxitbw.jpg,00807941205fa.jpg,sunahawfngukizslzsd.jpg,00979960627fa.jpg,sunbdycacjfaujxitbw.jpg,,,<,Place,,,,,1,,,,,,,x
203,2,Presentation,4,00675941121fa_sunadoxcchtmsxewsau.jpg,00768941205fa_sunafkmnlytenlsywia.jpg,00675941121fa.jpg,sunadoxcchtmsxewsau.jpg,00768941205fa.jpg,sunafkmnlytenlsywia.jpg,,,>,Face,,,,,1,,,,,,,x
204,2,Presentation,4,00264940128fb_sunabjzyxcjnmztdonj.jpg,00221940128fa_sunabcfpwlpolnutyju.jpg,00264940128fb.jpg,sunabjzyxcjnmztdonj.jpg,00221940128fa.jpg,sunabcfpwlpolnutyju.jpg,,,>,Place,,,,,1,,,,,,,o
205,2,Presentation,4,00098931230fa_sunaajpqmulidejvjsr.jpg,00185940422fb_sunaawqdbpihmlbwyyn.jpg,00098931230fa.jpg,sunaajpqmulidejvjsr.jpg,00185940422fb.jpg,sunaawqdbpihmlbwyyn.jpg,,,>,Place,,,,,0,,,,,,,o
206,2,Presentation,4,00267940128fb_sunablfqiwfqomjarht.jpg,00070940307fa_sunaaeplwsfslcbtojr.jpg,00267940128fb.jpg,sunablfqiwfqomjarht.jpg,00070940307fa.jpg,sunaaeplwsfslcbtojr.jpg,,,<,Place,,,,,1,,,,,,,x
207,2,Presentation,4,00158931230fb_sunaavchcbptaerhcfy.jpg,00636941031fa_sunaddtdkycxbqlpfqa.jpg,00158931230fb.jpg,sunaavchcbptaerhcfy.jpg,00636941031fa.jpg,sunaddtdkycxbqlpfqa.jpg,,,>,Face,,,,,1,,,,,,,o
208,2,Presentation,4,00874940307fa_sunajtrfunvzdfticna.jpg,00146960620fb_sunaatpeezlljqaxlhj.jpg,00874940307fa.jpg,sunajtrfunvzdfticna.jpg,00146960620fb.jpg,sunaatpeezlljqaxlhj.jpg,,,>,Face,,,,,1,,,,,,,o
209,2,Presentation,4,00805941205fa_sunagwzdbtlixdhgolm.jpg,00961960627fa_sunawotxrevnqvamsfp.jpg,00805941205fa.jpg,sunagwzdbtlixdhgolm.jpg,00961960627fa.jpg,sunawotxrevnqvamsfp.jpg,,,<,Face,,,,,0,,,,,,,x
210,2,Memory,4,,,,,,,sunbgklxeqjhdbyfhhy.jpg,,,,,,,,,,,,,,,
211,2,Memory,4,,,,,,,00574940928fa.jpg,,,,,,,,,,,,,,,
212,2,Memory,4,,,,,,,00266940128fb.jpg,,,,,,,,,,,,,,,
213,2,Memory,4,,,,,,,00221940128fa.jpg,,,,,,,,,,,,,,,
214,2,Memory,4,,,,,,,sunbwyuesflwdpqtgoy.jpg,,,,,,,,,,,,,,,
215,2,Memory,4,,,,,,,sunaavchcbptaerhcfy.jpg,,,,,,,,,,,,,,,
216,2,Memory,4,,,,,,,00146960620fb.jpg,,,,,,,,,,,,,,,
217,2,Memory,4,,,,,,,00098931230fa.jpg,,,,,,,,,,,,,,,
218,2,Memory,4,,,,,,,sunaawqdbpihmlbwyyn.jpg,,,,,,,,,,,,,,,
219,2,Memory,4,,,,,,,00598940928fa.jpg,,,,,,,,,,,,,,,
220,2,Memory,4,,,,,,,01005960627fa.jpg,,,,,,,,,,,,,,,
221,2,Memory,4,,,,,,,00070940307fa.jpg,,,,,,,,,,,,,,,
222,2,Memory,4,,,,,,,sunaahedjlmtqekgyvj.jpg,,,,,,,,,,,,,,,
223,2,Memory,4,,,,,,,sunagcinxkccdtrjmlv.jpg,,,,,,,,,,,,,,,
224,2,Memory,4,,,,,,,00185940422fb.jpg,,,,,,,,,,,,,,,
225,2,Memory,4,,,,,,,00636941031fa.jpg,,,,,,,,,,,,,,,
226,2,Memory,4,,,,,,,00858940307fa.jpg,,,,,,,,,,,,,,,
227,2,Memory,4,,,,,,,00158931230fb.jpg,,,,,,,,,,,,,,,
228,2,Memory,4,,,,,,,sunaatpeezlljqaxlhj.jpg,,,,,,,,,,,,,,,
229,2,Memory,4,,,,,,,00090931230fa.jpg,,,,,,,,,,,,,,,
230,2,Memory,4,,,,,,,sunahawfngukizslzsd.jpg,,,,,,,,,,,,,,,
231,2,Memory,4,,,,,,,00777941205fa.jpg,,,,,,,,,,,,,,,
232,2,Memory,4,,,,,,,sunbxarcshsnqsefemx.jpg,,,,,,,,,,,,,,,
233,2,Memory,4,,,,,,,00630940928fa.jpg,,,,,,,,,,,,,,,
234,2,Memory,4,,,,,,,sunbbegcweqnetpdlrh.jpg,,,,,,,,,,,,,,,
235,2,Memory,4,,,,,,,sunabjzyxcjnmztdonj.jpg,,,,,,,,,,,,,,,
236,2,Memory,4,,,,,,,00264940128fb.jpg,,,,,,,,,,,,,,,
237,2,Memory,4,,,,,,,sunaajpqmulidejvjsr.jpg,,,,,,,,,,,,,,,
238,2,Memory,4,,,,,,,00985960627fa.jpg,,,,,,,,,,,,,,,
239,2,Memory,4,,,,,,,sunaczwgyukesaajxnx.jpg,,,,,,,,,,,,,,,
240,2,Memory,4,,,,,,,00971960627fa.jpg,,,,,,,,,,,,,,,
241,2,Memory,4,,,,,,,sunacvbrcejzwmcgnoq.jpg,,,,,,,,,,,,,,,
242,2,Memory,4,,,,,,,sunaaeplwsfslcbtojr.jpg,,,,,,,,,,,,,,,
243,2,Memory,4,,,,,,,00807941205fa.jpg,,,,,,,,,,,,,,,
244,2,Memory,4,,,,,,,01007960627fa.jpg,,,,,,,,,,,,,,,
245,2,Memory,4,,,,,,,sunabcfpwlpolnutyju.jpg,,,,,,,,,,,,,,,
246,2,Memory,4,,,,,,,sunaixpqndlwhwjtjek.jpg,,,,,,,,,,,,,,,
247,2,Memory,4,,,,,,,sunabkngeblodihjvbk.jpg,,,,,,,,,,,,,,,
248,2,Memory,4,,,,,,,sunacxeheuiigkcgquf.jpg,,,,,,,,,,,,,,,
249,2,Memory,4,,,,,,,sunaddtdkycxbqlpfqa.jpg,,,,,,,,,,,,,,,
250,2,Presentation,5,00554940519fa_sunacfdkbsrughwqwtt.jpg,00609940928fa_sunacycdoztxoluxjyk.jpg,00554940519fa.jpg,sunacfdkbsrughwqwtt.jpg,00609940928fa.jpg,sunacycdoztxoluxjyk.jpg,,,>,Place,,,,,1,,,,,,,x
251,2,Presentation,5,00803941205fa_sunagvxkjokqimstxpe.jpg,00648941031fa_sunadfndyrtqqiasoig.jpg,00803941205fa.jpg,sunagvxkjokqimstxpe.jpg,00648941031fa.jpg,sunadfndyrtqqiasoig.jpg,,,<,Place,,,,,1,,,,,,,o
252,2,Presentation,5,00705941205fa_sunadtlxenqqxsyjvix.jpg,00935960627fa_sunaqbmgkgqucajzrkp.jpg,00705941205fa.jpg,sunadtlxenqqxsyjvix.jpg,00935960627fa.jpg,sunaqbmgkgqucajzrkp.jpg,,,<,Place,,,,,1,,,,,,,x
253,2,Presentation,5,00532960627fa_sunaccdtpgenvcbcbcf.jpg,00483940519fa_sunabyvpwkgsjtijdwj.jpg,00532960627fa.jpg,sunaccdtpgenvcbcbcf.jpg,00483940519fa.jpg,sunabyvpwkgsjtijdwj.jpg,,,<,Place,,,,,1,,,,,,,o
254,2,Presentation,5,00635941031fa_sunaddsaeicthrfbkhe.jpg,00933960627fa_sunapwjkcxdaeqehfql.jpg,00635941031fa.jpg,sunaddsaeicthrfbkhe.jpg,00933960627fa.jpg,sunapwjkcxdaeqehfql.jpg,,,<,Face,,,,,1,,,,,,,o
255,2,Presentation,5,00919960620fa_sunapmfmzadmosuogaz.jpg,00973960627fa_sunbbgtoeuzierkkajt.jpg,00919960620fa.jpg,sunapmfmzadmosuogaz.jpg,00973960627fa.jpg,sunbbgtoeuzierkkajt.jpg,,,<,Face,,,,,1,,,,,,,x
256,2,Presentation,5,00931960627fa_sunaptrqvaooxfvktvw.jpg,00633940928fa_sunadbhmrgrrpyzglxs.jpg,00931960627fa.jpg,sunaptrqvaooxfvktvw.jpg,00633940928fa.jpg,sunadbhmrgrrpyzglxs.jpg,,,>,Face,,,,,1,,,,,,,o
257,2,Presentation,5,00885960530fa_sunakwlvxjpddialozd.jpg,00568940928fa_sunacsdhbbsybcyxnel.jpg,00885960530fa.jpg,sunakwlvxjpddialozd.jpg,00568940928fa.jpg,sunacsdhbbsybcyxnel.jpg,,,>,Face,,,,,1,,,,,,,x
258,2,Presentation,5,00763941205fa_sunafhmnhsdurlvddpw.jpg,00887960530_sunalcrtwiycqobgelp.jpg,00763941205fa.jpg,sunafhmnhsdurlvddpw.jpg,00887960530.jpg,sunalcrtwiycqobgelp.jpg,,,>,Face,,,,,1,,,,,,,o
259,2,Presentation,5,00097931230fa_sunaajayojuslbbnneg.jpg,00149931230fa_sunaauglwmctnkxyird.jpg,00097931230fa.jpg,sunaajayojuslbbnneg.jpg,00149931230fa.jpg,sunaauglwmctnkxyird.jpg,,,>,Place,,,,,1,,,,,,,x
260,2,Memory,5,,,,,,,sunbbgtoeuzierkkajt.jpg,,,,,,,,,,,,,,,
261,2,Memory,5,,,,,,,00609940928fa.jpg,,,,,,,,,,,,,,,
262,2,Memory,5,,,,,,,00065931230fb.jpg,,,,,,,,,,,,,,,
263,2,Memory,5,,,,,,,00859940307fa.jpg,,,,,,,,,,,,,,,
264,2,Memory,5,,,,,,,00763941205fa.jpg,,,,,,,,,,,,,,,
265,2,Memory,5,,,,,,,sunaglqunwuycxydmyu.jpg,,,,,,,,,,,,,,,
266,2,Memory,5,,,,,,,00885960530fa.jpg,,,,,,,,,,,,,,,
267,2,Memory,5,,,,,,,00498960627fa.jpg,,,,,,,,,,,,,,,
268,2,Memory,5,,,,,,,sunapmfmzadmosuogaz.jpg,,,,,,,,,,,,,,,
269,2,Memory,5,,,,,,,sunaiycurtqsfkvcaso.jpg,,,,,,,,,,,,,,,
270,2,Memory,5,,,,,,,sunadbhmrgrrpyzglxs.jpg,,,,,,,,,,,,,,,
271,2,Memory,5,,,,,,,sunagountlxpzkytsmp.jpg,,,,,,,,,,,,,,,
272,2,Memory,5,,,,,,,00913960530fa.jpg,,,,,,,,,,,,,,,
273,2,Memory,5,,,,,,,sunaaemixhfquhnxxlm.jpg,,,,,,,,,,,,,,,
274,2,Memory,5,,,,,,,00633940928fa.jpg,,,,,,,,,,,,,,,
275,2,Memory,5,,,,,,,00819940307fa.jpg,,,,,,,,,,,,,,,
276,2,Memory,5,,,,,,,sunakwlvxjpddialozd.jpg,,,,,,,,,,,,,,,
277,2,Memory,5,,,,,,,00978960627fa.jpg,,,,,,,,,,,,,,,
278,2,Memory,5,,,,,,,sunafhmnhsdurlvddpw.jpg,,,,,,,,,,,,,,,
279,2,Memory,5,,,,,,,00785941205fa.jpg,,,,,,,,,,,,,,,
280,2,Memory,5,,,,,,,sunadfndyrtqqiasoig.jpg,,,,,,,,,,,,,,,
281,2,Memory,5,,,,,,,sunahqldjibofgsfdgb.jpg,,,,,,,,,,,,,,,
282,2,Memory,5,,,,,,,00884960530fa.jpg,,,,,,,,,,,,,,,
283,2,Memory,5,,,,,,,sunbddbivbptlrlauhy.jpg,,,,,,,,,,,,,,,
284,2,Memory,5,,,,,,,00973960627fa.jpg,,,,,,,,,,,,,,,
285,2,Memory,5,,,,,,,00097931230fa.jpg,,,,,,,,,,,,,,,
286,2,Memory,5,,,,,,,sunabzjxlmkwnwzimua.jpg,,,,,,,,,,,,,,,
287,2,Memory,5,,,,,,,sunaooffzffbhcpirmm.jpg,,,,,,,,,,,,,,,
288,2,Memory,5,,,,,,,00562941031fa.jpg,,,,,,,,,,,,,,,
289,2,Memory,5,,,,,,,sunaptrqvaooxfvktvw.jpg,,,,,,,,,,,,,,,
290,2,Memory,5,,,,,,,00919960620fa.jpg,,,,,,,,,,,,,,,
291,2,Memory,5,,,,,,,sunaauglwmctnkxyird.jpg,,,,,,,,,,,,,,,
292,2,Memory,5,,,,,,,sunakodkcslgqhqlgwl.jpg,,,,,,,,,,,,,,,
293,2,Memory,5,,,,,,,00931960627fa.jpg,,,,,,,,,,,,,,,
294,2,Memory,5,,,,,,,sunacycdoztxoluxjyk.jpg,,,,,,,,,,,,,,,
295,2,Memory,5,,,,,,,00788941205fa.jpg,,,,,,,,,,,,,,,
296,2,Memory,5,,,,,,,00648941031fa.jpg,,,,,,,,,,,,,,,
297,2,Memory,5,,,,,,,sunaajayojuslbbnneg.jpg,,,,,,,,,,,,,,,
298,2,Memory,5,,,,,,,sunacjnahdmqfnjfwqx.jpg,,,,,,,,,,,,,,,
299,2,Memory,5,,,,,,,00149931230fa.jpg,,,,,,,,,,,,,,,
300,2,Presentation,6,00868960307fa_sunajjxttslobudoqbv.jpg,00529940519fa_sunacbeefkxpymwevpk.jpg,00868960307fa.jpg,sunajjxttslobudoqbv.jpg,00529940519fa.jpg,sunacbeefkxpymwevpk.jpg,,,>,Face,,,,,1,,,,,,,x
301,2,Presentation,6,00761960627fa_sunafgdqbclkwfocdhg.jpg,00835940307fa_sunaijsqpvodplbwxkf.jpg,00761960627fa.jpg,sunafgdqbclkwfocdhg.jpg,00835940307fa.jpg,sunaijsqpvodplbwxkf.jpg,,,>,Place,,,,,1,,,,,,,o
302,2,Presentation,6,00663941121fa_sunadnjjzohjhbohlwq.jpg,00743941201fa_sunaeoghzrjarigmwua.jpg,00663941121fa.jpg,sunadnjjzohjhbohlwq.jpg,00743941201fa.jpg,sunaeoghzrjarigmwua.jpg,,,<,Face,,,,,1,,,,,,,x
303,2,Presentation,6,00750941201fa_sunaeuzwggvibufclwf.jpg,00071940128fa_sunaaexpnawiehinlpy.jpg,00750941201fa.jpg,sunaeuzwggvibufclwf.jpg,00071940128fa.jpg,sunaaexpnawiehinlpy.jpg,,,>,Face,,,,,1,,,,,,,o
304,2,Presentation,6,00772941201fa_sunafpfpiiujzoesnqg.jpg,00191940128fb_sunaawsdjisukbbginm.jpg,00772941201fa.jpg,sunafpfpiiujzoesnqg.jpg,00191940128fb.jpg,sunaawsdjisukbbginm.jpg,,,<,Place,,,,,1,,,,,,,x
305,2,Presentation,6,00197940128fa_sunaaylzyqlqrsmfwif.jpg,00559940519fa_sunacjkmnpawfzbyvae.jpg,00197940128fa.jpg,sunaaylzyqlqrsmfwif.jpg,00559940519fa.jpg,sunacjkmnpawfzbyvae.jpg,,,<,Place,,,,,1,,,,,,,o
306,2,Presentation,6,00910960530fa_sunaofikylqtxphvdem.jpg,00960960627fa_sunawksfbacycuhbrsc.jpg,00910960530fa.jpg,sunaofikylqtxphvdem.jpg,00960960627fa.jpg,sunawksfbacycuhbrsc.jpg,,,<,Place,,,,,1,,,,,,,x
307,2,Presentation,6,00163931230fb_sunaavodbcpygkggnfp.jpg,00829940307fa_sunahwgbqkqcrwprgvh.jpg,00163931230fb.jpg,sunaavodbcpygkggnfp.jpg,00829940307fa.jpg,sunahwgbqkqcrwprgvh.jpg,,,>,Face,,,,,0,,,,,,,x
308,2,Presentation,6,00754941201fa_sunaffgsyyvoqdlkmnk.jpg,00882960530fa_sunaknlirqjqiwbbeeg.jpg,00754941201fa.jpg,sunaffgsyyvoqdlkmnk.jpg,00882960530fa.jpg,sunaknlirqjqiwbbeeg.jpg,,,>,Place,,,,,1,,,,,,,x
309,2,Presentation,6,00903960620fa_sunanainkqdvktzoxyl.jpg,00952960627fa_sunathzzbcwjykldrem.jpg,00903960620fa.jpg,sunanainkqdvktzoxyl.jpg,00952960627fa.jpg,sunathzzbcwjykldrem.jpg,,,<,Face,,,,,1,,,,,,,x
310,2,Memory,6,,,,,,,sunadsgmtznewzyasnk.jpg,,,,,,,,,,,,,,,
311,2,Memory,6,,,,,,,sunadnjjzohjhbohlwq.jpg,,,,,,,,,,,,,,,
312,2,Memory,6,,,,,,,sunaizeyhvjzknwjudw.jpg,,,,,,,,,,,,,,,
313,2,Memory,6,,,,,,,sunawksfbacycuhbrsc.jpg,,,,,,,,,,,,,,,
314,2,Memory,6,,,,,,,sunaffgsyyvoqdlkmnk.jpg,,,,,,,,,,,,,,,
315,2,Memory,6,,,,,,,sunabgfhvifeijihhjw.jpg,,,,,,,,,,,,,,,
316,2,Memory,6,,,,,,,sunaavodbcpygkggnfp.jpg,,,,,,,,,,,,,,,
317,2,Memory,6,,,,,,,00783941205fa.jpg,,,,,,,,,,,,,,,
318,2,Memory,6,,,,,,,00754941201fa.jpg,,,,,,,,,,,,,,,
319,2,Memory,6,,,,,,,00882960530fa.jpg,,,,,,,,,,,,,,,
320,2,Memory,6,,,,,,,sunathzzbcwjykldrem.jpg,,,,,,,,,,,,,,,
321,2,Memory,6,,,,,,,00891960530fa.jpg,,,,,,,,,,,,,,,
322,2,Memory,6,,,,,,,sunadpnqovzckyikrjo.jpg,,,,,,,,,,,,,,,
323,2,Memory,6,,,,,,,sunaawsdjisukbbginm.jpg,,,,,,,,,,,,,,,
324,2,Memory,6,,,,,,,00197940128fa.jpg,,,,,,,,,,,,,,,
325,2,Memory,6,,,,,,,00630941031fa.jpg,,,,,,,,,,,,,,,
326,2,Memory,6,,,,,,,sunaanjcbzdvtvblsdy.jpg,,,,,,,,,,,,,,,
327,2,Memory,6,,,,,,,00676941121fa.jpg,,,,,,,,,,,,,,,
328,2,Memory,6,,,,,,,sunagjeesomrwjsfqie.jpg,,,,,,,,,,,,,,,
329,2,Memory,6,,,,,,,00700941121fa.jpg,,,,,,,,,,,,,,,
330,2,Memory,6,,,,,,,00663941121fa.jpg,,,,,,,,,,,,,,,
331,2,Memory,6,,,,,,,00260940128fa.jpg,,,,,,,,,,,,,,,
332,2,Memory,6,,,,,,,00132931230fb.jpg,,,,,,,,,,,,,,,
333,2,Memory,6,,,,,,,sunabbafjowbzcvbucc.jpg,,,,,,,,,,,,,,,
334,2,Memory,6,,,,,,,00910960530fa.jpg,,,,,,,,,,,,,,,
335,2,Memory,6,,,,,,,00191940128fb.jpg,,,,,,,,,,,,,,,
336,2,Memory,6,,,,,,,sunaaylzyqlqrsmfwif.jpg,,,,,,,,,,,,,,,
337,2,Memory,6,,,,,,,sunadakkdovnuzlycvp.jpg,,,,,,,,,,,,,,,
338,2,Memory,6,,,,,,,00960960627fa.jpg,,,,,,,,,,,,,,,
339,2,Memory,6,,,,,,,sunaaexpnawiehinlpy.jpg,,,,,,,,,,,,,,,
340,2,Memory,6,,,,,,,00071940128fa.jpg,,,,,,,,,,,,,,,
341,2,Memory,6,,,,,,,sunaknlirqjqiwbbeeg.jpg,,,,,,,,,,,,,,,
342,2,Memory,6,,,,,,,00952960627fa.jpg,,,,,,,,,,,,,,,
343,2,Memory,6,,,,,,,00163931230fb.jpg,,,,,,,,,,,,,,,
344,2,Memory,6,,,,,,,00860940307fa.jpg,,,,,,,,,,,,,,,
345,2,Memory,6,,,,,,,00145931230fb.jpg,,,,,,,,,,,,,,,
346,2,Memory,6,,,,,,,sunaatjesvdupctftmn.jpg,,,,,,,,,,,,,,,
347,2,Memory,6,,,,,,,00214940128fa.jpg,,,,,,,,,,,,,,,
348,2,Memory,6,,,,,,,sunalkiibhqpxfamlll.jpg,,,,,,,,,,,,,,,
349,2,Memory,6,,,,,,,sunaofikylqtxphvdem.jpg,,,,,,,,,,,,,,,
350,2,Presentation,7,01009960627fa_sunbxzweleltykebgan.jpg,00061931230fb_sunaaekxzjzrfgtkwjf.jpg,01009960627fa.jpg,sunbxzweleltykebgan.jpg,00061931230fb.jpg,sunaaekxzjzrfgtkwjf.jpg,,,<,Face,,,,,1,,,,,,,o
351,2,Presentation,7,00705960530fa_sunaduslxfzlbxlllnz.jpg,00986960627fa_sunbgzjryivyczuvkvm.jpg,00705960530fa.jpg,sunaduslxfzlbxlllnz.jpg,00986960627fa.jpg,sunbgzjryivyczuvkvm.jpg,,,<,Place,,,,,1,,,,,,,o
352,2,Presentation,7,00126931230fb_sunaamdjwemxpmmtypi.jpg,00760960620fa_sunaffstbkappprzxnv.jpg,00126931230fb.jpg,sunaamdjwemxpmmtypi.jpg,00760960620fa.jpg,sunaffstbkappprzxnv.jpg,,,>,Place,,,,,1,,,,,,,o
353,2,Presentation,7,00211940128fa_sunabasphceswhwwqvv.jpg,00815941205fa_sunahiphsekjihkafsl.jpg,00211940128fa.jpg,sunabasphceswhwwqvv.jpg,00815941205fa.jpg,sunahiphsekjihkafsl.jpg,,,<,Face,,,,,0,,,,,,,x
354,2,Presentation,7,00847940307fa_sunaivdjruhkrfywfed.jpg,00770941201fa_sunaflojskatpeqyzqp.jpg,00847940307fa.jpg,sunaivdjruhkrfywfed.jpg,00770941201fa.jpg,sunaflojskatpeqyzqp.jpg,,,>,Place,,,,,1,,,,,,,x
355,2,Presentation,7,00966960627fa_sunaygrtwrwfezqjizr.jpg,00073931230fa_sunaafbmtoniaasysgu.jpg,00966960627fa.jpg,sunaygrtwrwfezqjizr.jpg,00073931230fa.jpg,sunaafbmtoniaasysgu.jpg,,,>,Face,,,,,1,,,,,,,o
356,2,Presentation,7,00082931230fa_sunaafvitpexrpvumsa.jpg,00564940928fa_sunacmpqqfbsvlzinzl.jpg,00082931230fa.jpg,sunaafvitpexrpvumsa.jpg,00564940928fa.jpg,sunacmpqqfbsvlzinzl.jpg,,,>,Face,,,,,1,,,,,,,o
357,2,Presentation,7,00294940422fb_sunabrlndkruqokhury.jpg,00162931230fb_sunaavjinpnkappuonm.jpg,00294940422fb.jpg,sunabrlndkruqokhury.jpg,00162931230fb.jpg,sunaavjinpnkappuonm.jpg,,,<,Face,,,,,1,,,,,,,x
358,2,Presentation,7,00302940422fa_sunabtlfmiwtljmoues.jpg,00892960530fa_sunalntxqqadigcletd.jpg,00302940422fa.jpg,sunabtlfmiwtljmoues.jpg,00892960530fa.jpg,sunalntxqqadigcletd.jpg,,,<,Place,,,,,1,,,,,,,o
359,2,Presentation,7,00069931230fb_sunaaeowapdkwzqpgqr.jpg,00838940307fa_sunaiozxhxgtfrmoagh.jpg,00069931230fb.jpg,sunaaeowapdkwzqpgqr.jpg,00838940307fa.jpg,sunaiozxhxgtfrmoagh.jpg,,,>,Place,,,,,1,,,,,,,o
360,2,Memory,7,,,,,,,sunahiphsekjihkafsl.jpg,,,,,,,,,,,,,,,
361,2,Memory,7,,,,,,,00774941201fa.jpg,,,,,,,,,,,,,,,
362,2,Memory,7,,,,,,,01009960627fa.jpg,,,,,,,,,,,,,,,
363,2,Memory,7,,,,,,,sunaygrtwrwfezqjizr.jpg,,,,,,,,,,,,,,,
364,2,Memory,7,,,,,,,sunaffstbkappprzxnv.jpg,,,,,,,,,,,,,,,
365,2,Memory,7,,,,,,,00780960530fa.jpg,,,,,,,,,,,,,,,
366,2,Memory,7,,,,,,,00082931230fa.jpg,,,,,,,,,,,,,,,
367,2,Memory,7,,,,,,,00986960627fa.jpg,,,,,,,,,,,,,,,
368,2,Memory,7,,,,,,,sunaauhozyxzeeqstxi.jpg,,,,,,,,,,,,,,,
369,2,Memory,7,,,,,,,sunajawzbrlrwafowen.jpg,,,,,,,,,,,,,,,
370,2,Memory,7,,,,,,,00092931230fa.jpg,,,,,,,,,,,,,,,
371,2,Memory,7,,,,,,,sunaaheqzstzxuadglu.jpg,,,,,,,,,,,,,,,
372,2,Memory,7,,,,,,,00864940307fa.jpg,,,,,,,,,,,,,,,
373,2,Memory,7,,,,,,,00800941205fb.jpg,,,,,,,,,,,,,,,
374,2,Memory,7,,,,,,,sunabtlfmiwtljmoues.jpg,,,,,,,,,,,,,,,
375,2,Memory,7,,,,,,,sunafvtpfczkzopbgue.jpg,,,,,,,,,,,,,,,
376,2,Memory,7,,,,,,,sunaqyylsngywqzwfmx.jpg,,,,,,,,,,,,,,,
377,2,Memory,7,,,,,,,00815941205fa.jpg,,,,,,,,,,,,,,,
378,2,Memory,7,,,,,,,sunalntxqqadigcletd.jpg,,,,,,,,,,,,,,,
379,2,Memory,7,,,,,,,00184940128fa.jpg,,,,,,,,,,,,,,,
380,2,Memory,7,,,,,,,sunaafvitpexrpvumsa.jpg,,,,,,,,,,,,,,,
381,2,Memory,7,,,,,,,00847940307fa.jpg,,,,,,,,,,,,,,,
382,2,Memory,7,,,,,,,sunaaekxzjzrfgtkwjf.jpg,,,,,,,,,,,,,,,
383,2,Memory,7,,,,,,,sunagetqixeypsysbpn.jpg,,,,,,,,,,,,,,,
384,2,Memory,7,,,,,,,sunaavtbadenwnzeutj.jpg,,,,,,,,,,,,,,,
385,2,Memory,7,,,,,,,00953960627fa.jpg,,,,,,,,,,,,,,,
386,2,Memory,7,,,,,,,00936960627fa.jpg,,,,,,,,,,,,,,,
387,2,Memory,7,,,,,,,00760960620fa.jpg,,,,,,,,,,,,,,,
388,2,Memory,7,,,,,,,00966960627fa.jpg,,,,,,,,,,,,,,,
389,2,Memory,7,,,,,,,00938960627fa.jpg,,,,,,,,,,,,,,,
390,2,Memory,7,,,,,,,sunbgzjryivyczuvkvm.jpg,,,,,,,,,,,,,,,
391,2,Memory,7,,,,,,,00153931230fa.jpg,,,,,,,,,,,,,,,
392,2,Memory,7,,,,,,,00302940422fa.jpg,,,,,,,,,,,,,,,
393,2,Memory,7,,,,,,,sunbxzweleltykebgan.jpg,,,,,,,,,,,,,,,
394,2,Memory,7,,,,,,,sunaivdjruhkrfywfed.jpg,,,,,,,,,,,,,,,
395,2,Memory,7,,,,,,,00892960530fa.jpg,,,,,,,,,,,,,,,
396,2,Memory,7,,,,,,,00061931230fb.jpg,,,,,,,,,,,,,,,
397,2,Memory,7,,,,,,,sunagvjurcwdbixvnyi.jpg,,,,,,,,,,,,,,,
398,2,Memory,7,,,,,,,sunaqgjuuwvdcyiccjt.jpg,,,,,,,,,,,,,,,
399,2,Memory,7,,,,,,,sunatstrpjxhvtbaczf.jpg,,,,,,,,,,,,,,,
