,Subject,Trial Type,Run,Cued Composite,Uncued Composite,Cued Face,Cued Place,Uncued Face,Uncued Place,Memory Image,Category,Cued Side,Cued Category,Attention Response Time (s),Familiarity Reaction Time (s),Familiarity Rating,Attention Level,Cue Validity,Post Invalid Cue,Pre Invalid Cue,Attention Button,Rating History,Stimulus Onset,Stimulus End,Attention Probe
0,56,Presentation,0,00149931230fa_sunaauglwmctnkxyird.jpg,00125931230fa_sunaalltyvjhbzhkmvg.jpg,,,,,,,<,Face,,,,,1,,,,,,,o
1,56,Presentation,0,00796941205fa_sunaguchqqnrtodtezq.jpg,00562941031fa_sunacjnahdmqfnjfwqx.jpg,,,,,,,>,Place,,,,,1,,,,,,,x
2,56,Presentation,0,00124931230fa_sunaalhlvzmjmitybdn.jpg,00749941201fa_sunaeuvjbmdpknaqqaj.jpg,,,,,,,<,Face,,,,,1,,,,,,,o
3,56,Presentation,0,00744941201fa_sunaeomlfaabhpswasy.jpg,00825940307fa_sunahrltmuwbiehihpe.jpg,,,,,,,<,Place,,,,,1,,,,,,,o
4,56,Presentation,0,00650941031fa_sunadikxpvqeabxrvvc.jpg,00982960627fa_sunbesrwkdsffeogeqq.jpg,,,,,,,<,Face,,,,,1,,,,,,,x
5,56,Presentation,0,00705941205fa_sunadtlxenqqxsyjvix.jpg,00976960627fa_sunbbhqyyzmsxhsbjmp.jpg,,,,,,,>,Face,,,,,1,,,,,,,x
6,56,Presentation,0,00953960627fa_sunatstrpjxhvtbaczf.jpg,00211940128fa_sunabasphceswhwwqvv.jpg,,,,,,,<,Place,,,,,1,,,,,,,x
7,56,Presentation,0,00936960627fa_sunaqgjuuwvdcyiccjt.jpg,00132931230fb_sunaanjcbzdvtvblsdy.jpg,,,,,,,>,Place,,,,,1,,,,,,,o
8,56,Presentation,0,00906960530fa_sunantryfbloeaomfta.jpg,00162931230fb_sunaavjinpnkappuonm.jpg,,,,,,,>,Face,,,,,0,,,,,,,x
9,56,Presentation,0,00209940128fb_sunabaergayifsgacxt.jpg,00885960530fa_sunakwlvxjpddialozd.jpg,,,,,,,>,Place,,,,,1,,,,,,,x
10,56,Memory,0,,,,,,,00796941205fa.jpg,,,,,,,,,,,,,,,
11,56,Memory,0,,,,,,,sunaeuvjbmdpknaqqaj.jpg,,,,,,,,,,,,,,,
12,56,Memory,0,,,,,,,sunahrltmuwbiehihpe.jpg,,,,,,,,,,,,,,,
13,56,Memory,0,,,,,,,sunadikxpvqeabxrvvc.jpg,,,,,,,,,,,,,,,
14,56,Memory,0,,,,,,,00990960627fa.jpg,,,,,,,,,,,,,,,
15,56,Memory,0,,,,,,,sunbesrwkdsffeogeqq.jpg,,,,,,,,,,,,,,,
16,56,Memory,0,,,,,,,00906960530fa.jpg,,,,,,,,,,,,,,,
17,56,Memory,0,,,,,,,00720960620fa.jpg,,,,,,,,,,,,,,,
18,56,Memory,0,,,,,,,00262940128fa.jpg,,,,,,,,,,,,,,,
19,56,Memory,0,,,,,,,00705941205fa.jpg,,,,,,,,,,,,,,,
20,56,Memory,0,,,,,,,sunacuatpqpqhyjhjqk.jpg,,,,,,,,,,,,,,,
21,56,Memory,0,,,,,,,00797960620fa.jpg,,,,,,,,,,,,,,,
22,56,Memory,0,,,,,,,sunaazezcsunmhttzxz.jpg,,,,,,,,,,,,,,,
23,56,Memory,0,,,,,,,00728941205fa.jpg,,,,,,,,,,,,,,,
24,56,Memory,0,,,,,,,00976960627fa.jpg,,,,,,,,,,,,,,,
25,56,Memory,0,,,,,,,sunaanjcbzdvtvblsdy.jpg,,,,,,,,,,,,,,,
26,56,Memory,0,,,,,,,sunbpflsdaxnddnwcqi.jpg,,,,,,,,,,,,,,,
27,56,Memory,0,,,,,,,00146960620fb.jpg,,,,,,,,,,,,,,,
28,56,Memory,0,,,,,,,sunaecpkgfewqqreqwe.jpg,,,,,,,,,,,,,,,
29,56,Memory,0,,,,,,,sunagufzbeteqdjxais.jpg,,,,,,,,,,,,,,,
30,56,Memory,0,,,,,,,00825940307fa.jpg,,,,,,,,,,,,,,,
31,56,Memory,0,,,,,,,sunadtlxenqqxsyjvix.jpg,,,,,,,,,,,,,,,
32,56,Memory,0,,,,,,,00198940128fb.jpg,,,,,,,,,,,,,,,
33,56,Memory,0,,,,,,,00132931230fb.jpg,,,,,,,,,,,,,,,
34,56,Memory,0,,,,,,,sunantryfbloeaomfta.jpg,,,,,,,,,,,,,,,
35,56,Memory,0,,,,,,,00154931230fa.jpg,,,,,,,,,,,,,,,
36,56,Memory,0,,,,,,,sunaejnvnpltdmhbcsi.jpg,,,,,,,,,,,,,,,
37,56,Memory,0,,,,,,,00792941205fa.jpg,,,,,,,,,,,,,,,
38,56,Memory,0,,,,,,,sunaqgjuuwvdcyiccjt.jpg,,,,,,,,,,,,,,,
39,56,Memory,0,,,,,,,sunaatpeezlljqaxlhj.jpg,,,,,,,,,,,,,,,
40,56,Memory,0,,,,,,,00571940928fa.jpg,,,,,,,,,,,,,,,
41,56,Memory,0,,,,,,,sunabizydfotqddlnjp.jpg,,,,,,,,,,,,,,,
42,56,Memory,0,,,,,,,sunaauueuhhvklldjik.jpg,,,,,,,,,,,,,,,
43,56,Memory,0,,,,,,,00982960627fa.jpg,,,,,,,,,,,,,,,
44,56,Memory,0,,,,,,,sunagsiwrmuixqgdimb.jpg,,,,,,,,,,,,,,,
45,56,Memory,0,,,,,,,sunaguchqqnrtodtezq.jpg,,,,,,,,,,,,,,,
46,56,Memory,0,,,,,,,00936960627fa.jpg,,,,,,,,,,,,,,,
47,56,Memory,0,,,,,,,00650941031fa.jpg,,,,,,,,,,,,,,,
48,56,Memory,0,,,,,,,sunbbhqyyzmsxhsbjmp.jpg,,,,,,,,,,,,,,,
49,56,Memory,0,,,,,,,00749941201fa.jpg,,,,,,,,,,,,,,,
50,56,Presentation,1,00070940307fa_sunaaeplwsfslcbtojr.jpg,00694941121fa_sunadrmfzmstgdjdcod.jpg,,,,,,,<,Place,,,,,1,,,,,,,o
51,56,Presentation,1,00788941205fa_sunagountlxpzkytsmp.jpg,00882960530fa_sunaknlirqjqiwbbeeg.jpg,,,,,,,>,Face,,,,,1,,,,,,,x
52,56,Presentation,1,00818940307fa_sunahpblecxtmuzkmxb.jpg,00648941031fa_sunadfndyrtqqiasoig.jpg,,,,,,,<,Face,,,,,0,,,,,,,o
53,56,Presentation,1,00933960627fa_sunapwjkcxdaeqehfql.jpg,00670941121fa_sunadochqcucscehsgk.jpg,,,,,,,<,Place,,,,,1,,,,,,,o
54,56,Presentation,1,00869940307fa_sunajoveqhiprwqgoco.jpg,00828940307fa_sunahuynahneraqftyz.jpg,,,,,,,>,Place,,,,,1,,,,,,,o
55,56,Presentation,1,00900960530fa_sunamlotskmmsjeogby.jpg,00630940928fa_sunaczwgyukesaajxnx.jpg,,,,,,,<,Face,,,,,1,,,,,,,o
56,56,Presentation,1,00532960627fa_sunaccdtpgenvcbcbcf.jpg,00127931230fa_sunaampvucecsfbdafn.jpg,,,,,,,>,Place,,,,,1,,,,,,,x
57,56,Presentation,1,00505960627fa_sunabzuqsrgcsonqlkz.jpg,00922960627fa_sunapqkyghktgtosuuk.jpg,,,,,,,>,Face,,,,,1,,,,,,,o
58,56,Presentation,1,00937960627fa_sunaqsolmfydodnakub.jpg,00761960627fa_sunafgdqbclkwfocdhg.jpg,,,,,,,<,Place,,,,,1,,,,,,,x
59,56,Presentation,1,00780960530fa_sunagetqixeypsysbpn.jpg,00498960627fa_sunabzjxlmkwnwzimua.jpg,,,,,,,>,Face,,,,,1,,,,,,,x
60,56,Memory,1,,,,,,,00070940307fa.jpg,,,,,,,,,,,,,,,
61,56,Memory,1,,,,,,,sunadochqcucscehsgk.jpg,,,,,,,,,,,,,,,
62,56,Memory,1,,,,,,,sunahuynahneraqftyz.jpg,,,,,,,,,,,,,,,
63,56,Memory,1,,,,,,,sunaeutbrtswvsozxyk.jpg,,,,,,,,,,,,,,,
64,56,Memory,1,,,,,,,sunagetqixeypsysbpn.jpg,,,,,,,,,,,,,,,
65,56,Memory,1,,,,,,,00922960627fa.jpg,,,,,,,,,,,,,,,
66,56,Memory,1,,,,,,,00129931230fb.jpg,,,,,,,,,,,,,,,
67,56,Memory,1,,,,,,,sunamlotskmmsjeogby.jpg,,,,,,,,,,,,,,,
68,56,Memory,1,,,,,,,sunahiphsekjihkafsl.jpg,,,,,,,,,,,,,,,
69,56,Memory,1,,,,,,,00498960627fa.jpg,,,,,,,,,,,,,,,
70,56,Memory,1,,,,,,,00900960530fa.jpg,,,,,,,,,,,,,,,
71,56,Memory,1,,,,,,,00864940307fa.jpg,,,,,,,,,,,,,,,
72,56,Memory,1,,,,,,,sunaaeplwsfslcbtojr.jpg,,,,,,,,,,,,,,,
73,56,Memory,1,,,,,,,00987960627fa.jpg,,,,,,,,,,,,,,,
74,56,Memory,1,,,,,,,sunapqkyghktgtosuuk.jpg,,,,,,,,,,,,,,,
75,56,Memory,1,,,,,,,00123931230fb.jpg,,,,,,,,,,,,,,,
76,56,Memory,1,,,,,,,00670941121fa.jpg,,,,,,,,,,,,,,,
77,56,Memory,1,,,,,,,00532960627fa.jpg,,,,,,,,,,,,,,,
78,56,Memory,1,,,,,,,sunapwjkcxdaeqehfql.jpg,,,,,,,,,,,,,,,
79,56,Memory,1,,,,,,,sunaamsdyakblkfoydx.jpg,,,,,,,,,,,,,,,
80,56,Memory,1,,,,,,,00929960627fa.jpg,,,,,,,,,,,,,,,
81,56,Memory,1,,,,,,,00933960627fa.jpg,,,,,,,,,,,,,,,
82,56,Memory,1,,,,,,,00747941201fa.jpg,,,,,,,,,,,,,,,
83,56,Memory,1,,,,,,,00109931230fa.jpg,,,,,,,,,,,,,,,
84,56,Memory,1,,,,,,,sunaajuzribjrizdshh.jpg,,,,,,,,,,,,,,,
85,56,Memory,1,,,,,,,00828940307fa.jpg,,,,,,,,,,,,,,,
86,56,Memory,1,,,,,,,sunabzjxlmkwnwzimua.jpg,,,,,,,,,,,,,,,
87,56,Memory,1,,,,,,,sunaprnrbmgkomdbchr.jpg,,,,,,,,,,,,,,,
88,56,Memory,1,,,,,,,00977960627fa.jpg,,,,,,,,,,,,,,,
89,56,Memory,1,,,,,,,sunbloeoiozwjjsiamp.jpg,,,,,,,,,,,,,,,
90,56,Memory,1,,,,,,,00780960530fa.jpg,,,,,,,,,,,,,,,
91,56,Memory,1,,,,,,,sunbbxkanhzjgbwyxqs.jpg,,,,,,,,,,,,,,,
92,56,Memory,1,,,,,,,00133931230fa.jpg,,,,,,,,,,,,,,,
93,56,Memory,1,,,,,,,sunajawzbrlrwafowen.jpg,,,,,,,,,,,,,,,
94,56,Memory,1,,,,,,,sunaanlwnpqndclffxt.jpg,,,,,,,,,,,,,,,
95,56,Memory,1,,,,,,,00815941205fa.jpg,,,,,,,,,,,,,,,
96,56,Memory,1,,,,,,,00648941031fa.jpg,,,,,,,,,,,,,,,
97,56,Memory,1,,,,,,,sunaccdtpgenvcbcbcf.jpg,,,,,,,,,,,,,,,
98,56,Memory,1,,,,,,,sunaalcrrdbjgdztbiz.jpg,,,,,,,,,,,,,,,
99,56,Memory,1,,,,,,,sunadfndyrtqqiasoig.jpg,,,,,,,,,,,,,,,
100,56,Presentation,2,00978960627fa_sunbddbivbptlrlauhy.jpg,00834940307fa_sunaibnpvhkdpdnzcnz.jpg,,,,,,,<,Place,,,,,1,,,,,,,o
101,56,Presentation,2,00719941201fa_sunadvithllcgmfxsrn.jpg,00878960530fa_sunakgbnzxmfohgehnu.jpg,,,,,,,<,Face,,,,,1,,,,,,,o
102,56,Presentation,2,00719960620fa_sunadzuvtmtmgupotmf.jpg,00777941205fa_sunagcinxkccdtrjmlv.jpg,,,,,,,>,Face,,,,,1,,,,,,,x
103,56,Presentation,2,00598941031fa_sunacxtcahkymosigud.jpg,00988960627fa_sunbmaiocftdtvnzgap.jpg,,,,,,,>,Place,,,,,1,,,,,,,o
104,56,Presentation,2,00741941201fa_sunaemcowdozyphwknd.jpg,00784941205fb_sunagjzcrjvmxzqzljx.jpg,,,,,,,>,Face,,,,,1,,,,,,,x
105,56,Presentation,2,00296940422fa_sunabrwnslxalcohfre.jpg,00723941201fa_sunaedtgwjvvziytspa.jpg,,,,,,,<,Face,,,,,1,,,,,,,o
106,56,Presentation,2,00316940422fa_sunabxmguapjekttvwm.jpg,00540940519fa_sunacdnquypmsshhsbk.jpg,,,,,,,>,Place,,,,,1,,,,,,,x
107,56,Presentation,2,00891960530fa_sunalkiibhqpxfamlll.jpg,00663941121fa_sunadnjjzohjhbohlwq.jpg,,,,,,,<,Place,,,,,0,,,,,,,o
108,56,Presentation,2,00966960627fa_sunaygrtwrwfezqjizr.jpg,01005960627fa_sunbwyuesflwdpqtgoy.jpg,,,,,,,<,Face,,,,,1,,,,,,,o
109,56,Presentation,2,00069931230fb_sunaaeowapdkwzqpgqr.jpg,00092931230fa_sunaaheqzstzxuadglu.jpg,,,,,,,>,Place,,,,,1,,,,,,,x
110,56,Memory,2,,,,,,,00891960530fa.jpg,,,,,,,,,,,,,,,
111,56,Memory,2,,,,,,,00296940422fa.jpg,,,,,,,,,,,,,,,
112,56,Memory,2,,,,,,,00969960627fa.jpg,,,,,,,,,,,,,,,
113,56,Memory,2,,,,,,,sunakgbnzxmfohgehnu.jpg,,,,,,,,,,,,,,,
114,56,Memory,2,,,,,,,00723941201fa.jpg,,,,,,,,,,,,,,,
115,56,Memory,2,,,,,,,00264940128fb.jpg,,,,,,,,,,,,,,,
116,56,Memory,2,,,,,,,sunadnjjzohjhbohlwq.jpg,,,,,,,,,,,,,,,
117,56,Memory,2,,,,,,,sunaibnpvhkdpdnzcnz.jpg,,,,,,,,,,,,,,,
118,56,Memory,2,,,,,,,00878960530fa.jpg,,,,,,,,,,,,,,,
119,56,Memory,2,,,,,,,00663941121fa.jpg,,,,,,,,,,,,,,,
120,56,Memory,2,,,,,,,sunaedtgwjvvziytspa.jpg,,,,,,,,,,,,,,,
121,56,Memory,2,,,,,,,00834940307fa.jpg,,,,,,,,,,,,,,,
122,56,Memory,2,,,,,,,sunabrwnslxalcohfre.jpg,,,,,,,,,,,,,,,
123,56,Memory,2,,,,,,,00838940307fa.jpg,,,,,,,,,,,,,,,
124,56,Memory,2,,,,,,,sunaivflshbyfrfzhqb.jpg,,,,,,,,,,,,,,,
125,56,Memory,2,,,,,,,00102931230fa.jpg,,,,,,,,,,,,,,,
126,56,Memory,2,,,,,,,sunadvithllcgmfxsrn.jpg,,,,,,,,,,,,,,,
127,56,Memory,2,,,,,,,sunaajspcoepticvplv.jpg,,,,,,,,,,,,,,,
128,56,Memory,2,,,,,,,00719941201fa.jpg,,,,,,,,,,,,,,,
129,56,Memory,2,,,,,,,sunafvcflzhlqloapyo.jpg,,,,,,,,,,,,,,,
130,56,Memory,2,,,,,,,sunalkiibhqpxfamlll.jpg,,,,,,,,,,,,,,,
131,56,Memory,2,,,,,,,00773941201fa.jpg,,,,,,,,,,,,,,,
132,56,Memory,2,,,,,,,sunabjzyxcjnmztdonj.jpg,,,,,,,,,,,,,,,
133,56,Memory,2,,,,,,,sunbasypfgzjtomktmu.jpg,,,,,,,,,,,,,,,
134,56,Memory,2,,,,,,,00978960627fa.jpg,,,,,,,,,,,,,,,
135,56,Memory,2,,,,,,,00851940307fa.jpg,,,,,,,,,,,,,,,
136,56,Memory,2,,,,,,,sunacdnquypmsshhsbk.jpg,,,,,,,,,,,,,,,
137,56,Memory,2,,,,,,,00970960627fa.jpg,,,,,,,,,,,,,,,
138,56,Memory,2,,,,,,,00719960620fa.jpg,,,,,,,,,,,,,,,
139,56,Memory,2,,,,,,,00158931230fb.jpg,,,,,,,,,,,,,,,
140,56,Memory,2,,,,,,,sunaddtdkycxbqlpfqa.jpg,,,,,,,,,,,,,,,
141,56,Memory,2,,,,,,,00540940519fa.jpg,,,,,,,,,,,,,,,
142,56,Memory,2,,,,,,,sunbddbivbptlrlauhy.jpg,,,,,,,,,,,,,,,
143,56,Memory,2,,,,,,,sunadzuvtmtmgupotmf.jpg,,,,,,,,,,,,,,,
144,56,Memory,2,,,,,,,sunbaoizrfijvhpnnjn.jpg,,,,,,,,,,,,,,,
145,56,Memory,2,,,,,,,00636941031fa.jpg,,,,,,,,,,,,,,,
146,56,Memory,2,,,,,,,sunaavchcbptaerhcfy.jpg,,,,,,,,,,,,,,,
147,56,Memory,2,,,,,,,sunbprywzqxjcezkbch.jpg,,,,,,,,,,,,,,,
148,56,Memory,2,,,,,,,sunaiozxhxgtfrmoagh.jpg,,,,,,,,,,,,,,,
149,56,Memory,2,,,,,,,00993960627fa.jpg,,,,,,,,,,,,,,,
150,56,Presentation,3,00819940307fa_sunahqldjibofgsfdgb.jpg,00564941031fa_sunacsaovnjezqwbykf.jpg,,,,,,,>,Face,,,,,1,,,,,,,o
151,56,Presentation,3,00529940519fa_sunacbeefkxpymwevpk.jpg,00754941201fa_sunaffgsyyvoqdlkmnk.jpg,,,,,,,<,Place,,,,,1,,,,,,,o
152,56,Presentation,3,00804960530fa_sunagwswhkvnsmuszlz.jpg,00799941205fa_sunagutjvdvnhxejerz.jpg,,,,,,,>,Place,,,,,1,,,,,,,x
153,56,Presentation,3,00968960627fa_sunbagfpovqwbuexqdn.jpg,00163931230fb_sunaavodbcpygkggnfp.jpg,,,,,,,<,Face,,,,,1,,,,,,,o
154,56,Presentation,3,00999960627fa_sunbvbrvgbpanfrawft.jpg,00235940128fb_sunabclssnoeuigtawp.jpg,,,,,,,<,Place,,,,,1,,,,,,,o
155,56,Presentation,3,00771941205fa_sunafowswglhxcsufpo.jpg,00809960620fa_sunahbvlpavurqoxdeq.jpg,,,,,,,>,Face,,,,,1,,,,,,,x
156,56,Presentation,3,00803941205fa_sunagvxkjokqimstxpe.jpg,00191940128fb_sunaawsdjisukbbginm.jpg,,,,,,,<,Face,,,,,1,,,,,,,x
157,56,Presentation,3,00812941205fa_sunahgtbwgsmtqeodwh.jpg,00620940928fa_sunacypmnujalygkunp.jpg,,,,,,,>,Face,,,,,1,,,,,,,x
158,56,Presentation,3,00911960530fa_sunaooaqzputrowwbsw.jpg,00076931230fa_sunaafewhewbxmjiurz.jpg,,,,,,,>,Place,,,,,1,,,,,,,x
159,56,Presentation,3,00979960627fa_sunbdycacjfaujxitbw.jpg,00681941121fa_sunadqmjrhfjyuzyvdd.jpg,,,,,,,<,Place,,,,,1,,,,,,,x
160,56,Memory,3,,,,,,,sunaisiwfgppimtnmxl.jpg,,,,,,,,,,,,,,,
161,56,Memory,3,,,,,,,sunacsaovnjezqwbykf.jpg,,,,,,,,,,,,,,,
162,56,Memory,3,,,,,,,sunacfdkbsrughwqwtt.jpg,,,,,,,,,,,,,,,
163,56,Memory,3,,,,,,,sunaffgsyyvoqdlkmnk.jpg,,,,,,,,,,,,,,,
164,56,Memory,3,,,,,,,00221940128fa.jpg,,,,,,,,,,,,,,,
165,56,Memory,3,,,,,,,sunapqwoeotxshkukbh.jpg,,,,,,,,,,,,,,,
166,56,Memory,3,,,,,,,00841940307fa.jpg,,,,,,,,,,,,,,,
167,56,Memory,3,,,,,,,00076931230fa.jpg,,,,,,,,,,,,,,,
168,56,Memory,3,,,,,,,sunaafewhewbxmjiurz.jpg,,,,,,,,,,,,,,,
169,56,Memory,3,,,,,,,00819940307fa.jpg,,,,,,,,,,,,,,,
170,56,Memory,3,,,,,,,00925960627fa.jpg,,,,,,,,,,,,,,,
171,56,Memory,3,,,,,,,00136931230fb.jpg,,,,,,,,,,,,,,,
172,56,Memory,3,,,,,,,00564941031fa.jpg,,,,,,,,,,,,,,,
173,56,Memory,3,,,,,,,00235940128fb.jpg,,,,,,,,,,,,,,,
174,56,Memory,3,,,,,,,00926960627Fa.jpg,,,,,,,,,,,,,,,
175,56,Memory,3,,,,,,,00901960530fa.jpg,,,,,,,,,,,,,,,
176,56,Memory,3,,,,,,,00163931230fb.jpg,,,,,,,,,,,,,,,
177,56,Memory,3,,,,,,,sunabgfhvifeijihhjw.jpg,,,,,,,,,,,,,,,
178,56,Memory,3,,,,,,,00804960530fa.jpg,,,,,,,,,,,,,,,
179,56,Memory,3,,,,,,,00754941201fa.jpg,,,,,,,,,,,,,,,
180,56,Memory,3,,,,,,,sunammbnoambmhdxdwd.jpg,,,,,,,,,,,,,,,
181,56,Memory,3,,,,,,,sunaavodbcpygkggnfp.jpg,,,,,,,,,,,,,,,
182,56,Memory,3,,,,,,,00529940519fa.jpg,,,,,,,,,,,,,,,
183,56,Memory,3,,,,,,,sunafowswglhxcsufpo.jpg,,,,,,,,,,,,,,,
184,56,Memory,3,,,,,,,sunabclssnoeuigtawp.jpg,,,,,,,,,,,,,,,
185,56,Memory,3,,,,,,,sunahqldjibofgsfdgb.jpg,,,,,,,,,,,,,,,
186,56,Memory,3,,,,,,,sunabcfpwlpolnutyju.jpg,,,,,,,,,,,,,,,
187,56,Memory,3,,,,,,,sunapqwnqzxlsfvgsjm.jpg,,,,,,,,,,,,,,,
188,56,Memory,3,,,,,,,00898960530fa.jpg,,,,,,,,,,,,,,,
189,56,Memory,3,,,,,,,sunacbeefkxpymwevpk.jpg,,,,,,,,,,,,,,,
190,56,Memory,3,,,,,,,sunagmwxxwymwojbvgi.jpg,,,,,,,,,,,,,,,
191,56,Memory,3,,,,,,,00554940519fa.jpg,,,,,,,,,,,,,,,
192,56,Memory,3,,,,,,,sunagwswhkvnsmuszlz.jpg,,,,,,,,,,,,,,,
193,56,Memory,3,,,,,,,sunahgtbwgsmtqeodwh.jpg,,,,,,,,,,,,,,,
194,56,Memory,3,,,,,,,00260940128fa.jpg,,,,,,,,,,,,,,,
195,56,Memory,3,,,,,,,sunamkmeblgteyggink.jpg,,,,,,,,,,,,,,,
196,56,Memory,3,,,,,,,sunaanptmsknhirrzed.jpg,,,,,,,,,,,,,,,
197,56,Memory,3,,,,,,,00787941205fa.jpg,,,,,,,,,,,,,,,
198,56,Memory,3,,,,,,,00812941205fa.jpg,,,,,,,,,,,,,,,
199,56,Memory,3,,,,,,,00771941205fa.jpg,,,,,,,,,,,,,,,
200,56,Presentation,4,00876960620fa_sunajwqkfsykceonyig.jpg,00308940422fb_sunabwfvcqqidycwypa.jpg,,,,,,,>,Face,,,,,1,,,,,,,o
201,56,Presentation,4,00194940128fb_sunaayehfdqcyxggsej.jpg,00787960620fa_sunagoufulkpsxrmklt.jpg,,,,,,,>,Place,,,,,1,,,,,,,x
202,56,Presentation,4,00801941205fa_sunagvprlbprarvgdvj.jpg,00789960620fa_sunagpancjmxqfazssf.jpg,,,,,,,>,Face,,,,,1,,,,,,,o
203,56,Presentation,4,00071940128fa_sunaaexpnawiehinlpy.jpg,00077931230fb_sunaafgqutfaishsxyu.jpg,,,,,,,>,Place,,,,,1,,,,,,,o
204,56,Presentation,4,00144931230fb_sunaathajvxrgptwhoj.jpg,00112931230fa_sunaakjaacuzulqckgl.jpg,,,,,,,<,Face,,,,,1,,,,,,,o
205,56,Presentation,4,00942960627fa_sunarfdklgdnjgeqfjg.jpg,00957960627fa_sunavhxgmgrqsaptynb.jpg,,,,,,,<,Place,,,,,1,,,,,,,o
206,56,Presentation,4,00958960627fa_sunavspxmxubqaeidjt.jpg,00751960620fa_sunaezuszgtxnmsxdbk.jpg,,,,,,,<,Face,,,,,1,,,,,,,x
207,56,Presentation,4,00483940519fa_sunabyvpwkgsjtijdwj.jpg,00730960620fa_sunaekgzpfilgjxpeyq.jpg,,,,,,,<,Place,,,,,1,,,,,,,o
208,56,Presentation,4,00062931230fb_sunaaelotvjgibjtjhs.jpg,00581940928fa_sunacvzhvcksnwqcqbw.jpg,,,,,,,>,Place,,,,,1,,,,,,,x
209,56,Presentation,4,00288940422fa_sunabppokiyglaxpcha.jpg,00634940928fa_sunadcphrizvfpljiqt.jpg,,,,,,,<,Face,,,,,1,,,,,,,o
210,56,Memory,4,,,,,,,sunbbfqwjpdxniyhies.jpg,,,,,,,,,,,,,,,
211,56,Memory,4,,,,,,,00194940128fb.jpg,,,,,,,,,,,,,,,
212,56,Memory,4,,,,,,,00801941205fa.jpg,,,,,,,,,,,,,,,
213,56,Memory,4,,,,,,,00634940928fa.jpg,,,,,,,,,,,,,,,
214,56,Memory,4,,,,,,,sunavhxgmgrqsaptynb.jpg,,,,,,,,,,,,,,,
215,56,Memory,4,,,,,,,00082931230fa.jpg,,,,,,,,,,,,,,,
216,56,Memory,4,,,,,,,sunaaxjpzcnxligjtjq.jpg,,,,,,,,,,,,,,,
217,56,Memory,4,,,,,,,sunawotxrevnqvamsfp.jpg,,,,,,,,,,,,,,,
218,56,Memory,4,,,,,,,00288940422fa.jpg,,,,,,,,,,,,,,,
219,56,Memory,4,,,,,,,sunaayehfdqcyxggsej.jpg,,,,,,,,,,,,,,,
220,56,Memory,4,,,,,,,sunabcuurugvxwparpk.jpg,,,,,,,,,,,,,,,
221,56,Memory,4,,,,,,,00773960620fa.jpg,,,,,,,,,,,,,,,
222,56,Memory,4,,,,,,,sunasnqkkyhilqkxiqm.jpg,,,,,,,,,,,,,,,
223,56,Memory,4,,,,,,,sunagvprlbprarvgdvj.jpg,,,,,,,,,,,,,,,
224,56,Memory,4,,,,,,,01010960627fa.jpg,,,,,,,,,,,,,,,
225,56,Memory,4,,,,,,,sunaathajvxrgptwhoj.jpg,,,,,,,,,,,,,,,
226,56,Memory,4,,,,,,,00581940928fa.jpg,,,,,,,,,,,,,,,
227,56,Memory,4,,,,,,,00957960627fa.jpg,,,,,,,,,,,,,,,
228,56,Memory,4,,,,,,,sunacvzhvcksnwqcqbw.jpg,,,,,,,,,,,,,,,
229,56,Memory,4,,,,,,,sunaafvitpexrpvumsa.jpg,,,,,,,,,,,,,,,
230,56,Memory,4,,,,,,,sunadcphrizvfpljiqt.jpg,,,,,,,,,,,,,,,
231,56,Memory,4,,,,,,,00062931230fb.jpg,,,,,,,,,,,,,,,
232,56,Memory,4,,,,,,,sunaeisnjeetzmkbuad.jpg,,,,,,,,,,,,,,,
233,56,Memory,4,,,,,,,00727941205fa.jpg,,,,,,,,,,,,,,,
234,56,Memory,4,,,,,,,00308940422fb.jpg,,,,,,,,,,,,,,,
235,56,Memory,4,,,,,,,sunafvsxtzaizojicxx.jpg,,,,,,,,,,,,,,,
236,56,Memory,4,,,,,,,00112931230fa.jpg,,,,,,,,,,,,,,,
237,56,Memory,4,,,,,,,suncnkvbhypnivcohyx.jpg,,,,,,,,,,,,,,,
238,56,Memory,4,,,,,,,sunaakjaacuzulqckgl.jpg,,,,,,,,,,,,,,,
239,56,Memory,4,,,,,,,00242940128fa.jpg,,,,,,,,,,,,,,,
240,56,Memory,4,,,,,,,sunaaelotvjgibjtjhs.jpg,,,,,,,,,,,,,,,
241,56,Memory,4,,,,,,,00144931230fb.jpg,,,,,,,,,,,,,,,
242,56,Memory,4,,,,,,,00972960627fa.jpg,,,,,,,,,,,,,,,
243,56,Memory,4,,,,,,,00193940928fa.jpg,,,,,,,,,,,,,,,
244,56,Memory,4,,,,,,,sunabppokiyglaxpcha.jpg,,,,,,,,,,,,,,,
245,56,Memory,4,,,,,,,sunasrjlmglmjzbmqxb.jpg,,,,,,,,,,,,,,,
246,56,Memory,4,,,,,,,00961960627fa.jpg,,,,,,,,,,,,,,,
247,56,Memory,4,,,,,,,sunabwfvcqqidycwypa.jpg,,,,,,,,,,,,,,,
248,56,Memory,4,,,,,,,00950960627fa.jpg,,,,,,,,,,,,,,,
249,56,Memory,4,,,,,,,00949960627fb.jpg,,,,,,,,,,,,,,,
250,56,Presentation,5,00847940307fa_sunaivdjruhkrfywfed.jpg,00910960530fa_sunaofikylqtxphvdem.jpg,,,,,,,>,Face,,,,,1,,,,,,,x
251,56,Presentation,5,00989960627fa_sunbondbduabvijnmch.jpg,00985960627fa_sunbgklxeqjhdbyfhhy.jpg,,,,,,,>,Place,,,,,1,,,,,,,o
252,56,Presentation,5,00071941031fa_sunaaexqbtdswxrqjvz.jpg,00829940307fa_sunahwgbqkqcrwprgvh.jpg,,,,,,,>,Face,,,,,1,,,,,,,x
253,56,Presentation,5,00093931230fa_sunaahwnmtqsrhocysw.jpg,00884960530fa_sunakodkcslgqhqlgwl.jpg,,,,,,,<,Face,,,,,1,,,,,,,o
254,56,Presentation,5,00153931230fa_sunaauhozyxzeeqstxi.jpg,00816941205fa_sunahmhrncocyhsjpxk.jpg,,,,,,,<,Place,,,,,1,,,,,,,o
255,56,Presentation,5,00785941205fa_sunaglqunwuycxydmyu.jpg,00081941031fa_sunaaftlyfudyzuhqzf.jpg,,,,,,,>,Face,,,,,1,,,,,,,x
256,56,Presentation,5,00115931230fa_sunaakmxzhuceuiryah.jpg,00984960627fa_sunbfzchmomnvzhbxdg.jpg,,,,,,,<,Place,,,,,1,,,,,,,o
257,56,Presentation,5,00080931230fb_sunaafjszryxyavjzln.jpg,01207940128fa_sundbixjudsgeuuehrn.jpg,,,,,,,<,Face,,,,,0,,,,,,,x
258,56,Presentation,5,00266940128fb_sunabkngeblodihjvbk.jpg,00913960530fa_sunaooffzffbhcpirmm.jpg,,,,,,,>,Place,,,,,1,,,,,,,x
259,56,Presentation,5,00866940307fa_sunajbwkywmsqkldfml.jpg,00786941205fa_sunagmhildamktmqjss.jpg,,,,,,,<,Place,,,,,1,,,,,,,x
260,56,Memory,5,,,,,,,00805941205fa.jpg,,,,,,,,,,,,,,,
261,56,Memory,5,,,,,,,sunbfzchmomnvzhbxdg.jpg,,,,,,,,,,,,,,,
262,56,Memory,5,,,,,,,sunafvtpfczkzopbgue.jpg,,,,,,,,,,,,,,,
263,56,Memory,5,,,,,,,sunaglqunwuycxydmyu.jpg,,,,,,,,,,,,,,,
264,56,Memory,5,,,,,,,00265940128fb.jpg,,,,,,,,,,,,,,,
265,56,Memory,5,,,,,,,00089931230fa.jpg,,,,,,,,,,,,,,,
266,56,Memory,5,,,,,,,sunaivdjruhkrfywfed.jpg,,,,,,,,,,,,,,,
267,56,Memory,5,,,,,,,sunbwtlihsuptkrckid.jpg,,,,,,,,,,,,,,,
268,56,Memory,5,,,,,,,00889960530fa.jpg,,,,,,,,,,,,,,,
269,56,Memory,5,,,,,,,00266940128fb.jpg,,,,,,,,,,,,,,,
270,56,Memory,5,,,,,,,00752960620fa.jpg,,,,,,,,,,,,,,,
271,56,Memory,5,,,,,,,00847940307fa.jpg,,,,,,,,,,,,,,,
272,56,Memory,5,,,,,,,sunabkngeblodihjvbk.jpg,,,,,,,,,,,,,,,
273,56,Memory,5,,,,,,,sunafbwnojpqeyzssoe.jpg,,,,,,,,,,,,,,,
274,56,Memory,5,,,,,,,sunaahwnmtqsrhocysw.jpg,,,,,,,,,,,,,,,
275,56,Memory,5,,,,,,,sunaagcpoejbuzyvddd.jpg,,,,,,,,,,,,,,,
276,56,Memory,5,,,,,,,00294940422fb.jpg,,,,,,,,,,,,,,,
277,56,Memory,5,,,,,,,sunaaexqbtdswxrqjvz.jpg,,,,,,,,,,,,,,,
278,56,Memory,5,,,,,,,00774941201fa.jpg,,,,,,,,,,,,,,,
279,56,Memory,5,,,,,,,00071941031fa.jpg,,,,,,,,,,,,,,,
280,56,Memory,5,,,,,,,00785941205fa.jpg,,,,,,,,,,,,,,,
281,56,Memory,5,,,,,,,00816941205fa.jpg,,,,,,,,,,,,,,,
282,56,Memory,5,,,,,,,00913960530fa.jpg,,,,,,,,,,,,,,,
283,56,Memory,5,,,,,,,00800941205fb.jpg,,,,,,,,,,,,,,,
284,56,Memory,5,,,,,,,sunagwzdbtlixdhgolm.jpg,,,,,,,,,,,,,,,
285,56,Memory,5,,,,,,,sunakodkcslgqhqlgwl.jpg,,,,,,,,,,,,,,,
286,56,Memory,5,,,,,,,00910960530fa.jpg,,,,,,,,,,,,,,,
287,56,Memory,5,,,,,,,sunabkmdplkdbvxriff.jpg,,,,,,,,,,,,,,,
288,56,Memory,5,,,,,,,sunabrlndkruqokhury.jpg,,,,,,,,,,,,,,,
289,56,Memory,5,,,,,,,sunaooffzffbhcpirmm.jpg,,,,,,,,,,,,,,,
290,56,Memory,5,,,,,,,sunaletopenvvozhpxc.jpg,,,,,,,,,,,,,,,
291,56,Memory,5,,,,,,,sunahmhrncocyhsjpxk.jpg,,,,,,,,,,,,,,,
292,56,Memory,5,,,,,,,sunacvbrcejzwmcgnoq.jpg,,,,,,,,,,,,,,,
293,56,Memory,5,,,,,,,00984960627fa.jpg,,,,,,,,,,,,,,,
294,56,Memory,5,,,,,,,00574940928fa.jpg,,,,,,,,,,,,,,,
295,56,Memory,5,,,,,,,01004960627fa.jpg,,,,,,,,,,,,,,,
296,56,Memory,5,,,,,,,sunagvjurcwdbixvnyi.jpg,,,,,,,,,,,,,,,
297,56,Memory,5,,,,,,,sunaofikylqtxphvdem.jpg,,,,,,,,,,,,,,,
298,56,Memory,5,,,,,,,00093931230fa.jpg,,,,,,,,,,,,,,,
299,56,Memory,5,,,,,,,00884960530fa.jpg,,,,,,,,,,,,,,,
300,56,Presentation,6,00111931230fb_sunaakgekhjklxmvulj.jpg,00676941121fa_sunadpnqovzckyikrjo.jpg,,,,,,,<,Face,,,,,1,,,,,,,x
301,56,Presentation,6,00306940422fa_sunabueyoajufbkraki.jpg,00140931230fb_sunaapllqyqlykszopd.jpg,,,,,,,>,Face,,,,,1,,,,,,,x
302,56,Presentation,6,00868960307fa_sunajjxttslobudoqbv.jpg,00858940307fa_sunaixpqndlwhwjtjek.jpg,,,,,,,<,Face,,,,,1,,,,,,,x
303,56,Presentation,6,00313940422fa_sunabwjvmoaddlyxfjr.jpg,00807941205fa_sunahawfngukizslzsd.jpg,,,,,,,>,Face,,,,,1,,,,,,,o
304,56,Presentation,6,00598940928fa_sunacxeheuiigkcgquf.jpg,01009960627fa_sunbxzweleltykebgan.jpg,,,,,,,<,Place,,,,,0,,,,,,,x
305,56,Presentation,6,00063931230fa_sunaaelyvurpntclgau.jpg,00877960530fa_sunajxpkuhbizeveguy.jpg,,,,,,,>,Place,,,,,1,,,,,,,o
306,56,Presentation,6,00096931230fa_sunaaiqiqcggrskoqgy.jpg,00142931230fb_sunaapxkpvrhpjplsok.jpg,,,,,,,<,Place,,,,,1,,,,,,,x
307,56,Presentation,6,00675941121fa_sunadoxcchtmsxewsau.jpg,00543940519fa_sunacepzfrmtkiqonpy.jpg,,,,,,,>,Place,,,,,0,,,,,,,x
308,56,Presentation,6,00848940307fa_sunaivdylrawbmhryfp.jpg,00482940519fa_sunabyfxcxhdebvdyfd.jpg,,,,,,,>,Face,,,,,1,,,,,,,x
309,56,Presentation,6,00746941201fa_sunaetydippjxikifsb.jpg,00700941121fa_sunadsgmtznewzyasnk.jpg,,,,,,,<,Place,,,,,1,,,,,,,x
310,56,Memory,6,,,,,,,sunajjxttslobudoqbv.jpg,,,,,,,,,,,,,,,
311,56,Memory,6,,,,,,,00868960307fa.jpg,,,,,,,,,,,,,,,
312,56,Memory,6,,,,,,,sunaenwuebvlpdmntju.jpg,,,,,,,,,,,,,,,
313,56,Memory,6,,,,,,,00482940519fa.jpg,,,,,,,,,,,,,,,
314,56,Memory,6,,,,,,,00971960627fa.jpg,,,,,,,,,,,,,,,
315,56,Memory,6,,,,,,,sunapqkpqdfvxlbqwyo.jpg,,,,,,,,,,,,,,,
316,56,Memory,6,,,,,,,00742941201fa.jpg,,,,,,,,,,,,,,,
317,56,Memory,6,,,,,,,sunaqyylsngywqzwfmx.jpg,,,,,,,,,,,,,,,
318,56,Memory,6,,,,,,,sunaaylzyqlqrsmfwif.jpg,,,,,,,,,,,,,,,
319,56,Memory,6,,,,,,,00197940128fa.jpg,,,,,,,,,,,,,,,
320,56,Memory,6,,,,,,,00676941121fa.jpg,,,,,,,,,,,,,,,
321,56,Memory,6,,,,,,,00306940422fa.jpg,,,,,,,,,,,,,,,
322,56,Memory,6,,,,,,,00126931230fb.jpg,,,,,,,,,,,,,,,
323,56,Memory,6,,,,,,,sunaetydippjxikifsb.jpg,,,,,,,,,,,,,,,
324,56,Memory,6,,,,,,,sunabueyoajufbkraki.jpg,,,,,,,,,,,,,,,
325,56,Memory,6,,,,,,,sunbbegcweqnetpdlrh.jpg,,,,,,,,,,,,,,,
326,56,Memory,6,,,,,,,sunaakgekhjklxmvulj.jpg,,,,,,,,,,,,,,,
327,56,Memory,6,,,,,,,sunabwjvmoaddlyxfjr.jpg,,,,,,,,,,,,,,,
328,56,Memory,6,,,,,,,00914960620fa.jpg,,,,,,,,,,,,,,,
329,56,Memory,6,,,,,,,00142931230fb.jpg,,,,,,,,,,,,,,,
330,56,Memory,6,,,,,,,00877960530fa.jpg,,,,,,,,,,,,,,,
331,56,Memory,6,,,,,,,00101931230fb.jpg,,,,,,,,,,,,,,,
332,56,Memory,6,,,,,,,00858940307fa.jpg,,,,,,,,,,,,,,,
333,56,Memory,6,,,,,,,sunaixpqndlwhwjtjek.jpg,,,,,,,,,,,,,,,
334,56,Memory,6,,,,,,,00116931230fa.jpg,,,,,,,,,,,,,,,
335,56,Memory,6,,,,,,,00313940422fa.jpg,,,,,,,,,,,,,,,
336,56,Memory,6,,,,,,,sunaamdjwemxpmmtypi.jpg,,,,,,,,,,,,,,,
337,56,Memory,6,,,,,,,00921960627fa.jpg,,,,,,,,,,,,,,,
338,56,Memory,6,,,,,,,00111931230fb.jpg,,,,,,,,,,,,,,,
339,56,Memory,6,,,,,,,sunajxpkuhbizeveguy.jpg,,,,,,,,,,,,,,,
340,56,Memory,6,,,,,,,00746941201fa.jpg,,,,,,,,,,,,,,,
341,56,Memory,6,,,,,,,01007960627fa.jpg,,,,,,,,,,,,,,,
342,56,Memory,6,,,,,,,sunaapxkpvrhpjplsok.jpg,,,,,,,,,,,,,,,
343,56,Memory,6,,,,,,,sunaozisvwfbmlkfhzv.jpg,,,,,,,,,,,,,,,
344,56,Memory,6,,,,,,,00938960627fa.jpg,,,,,,,,,,,,,,,
345,56,Memory,6,,,,,,,sunadpnqovzckyikrjo.jpg,,,,,,,,,,,,,,,
346,56,Memory,6,,,,,,,sunbxarcshsnqsefemx.jpg,,,,,,,,,,,,,,,
347,56,Memory,6,,,,,,,sunaakqepfoeqomfgxf.jpg,,,,,,,,,,,,,,,
348,56,Memory,6,,,,,,,sunaajqmsaavkmgbsth.jpg,,,,,,,,,,,,,,,
349,56,Memory,6,,,,,,,sunabyfxcxhdebvdyfd.jpg,,,,,,,,,,,,,,,
350,56,Presentation,7,00952960627fa_sunathzzbcwjykldrem.jpg,00791941205fa_sunagrmyoovzukhxmlo.jpg,,,,,,,>,Place,,,,,1,,,,,,,o
351,56,Presentation,7,00909960530_sunaobtizabegtwfwul.jpg,00576941031fa_sunacvjlsylseoghjup.jpg,,,,,,,<,Place,,,,,1,,,,,,,x
352,56,Presentation,7,00839940307fa_sunaipyohrqlwngaqif.jpg,00794960620fa_sunagtqhhwxjeuxdebe.jpg,,,,,,,>,Place,,,,,0,,,,,,,x
353,56,Presentation,7,00239940128fa_sunabctlikybqabezjv.jpg,00915960620fa_sunapileznnbbmrwoei.jpg,,,,,,,>,Face,,,,,1,,,,,,,o
354,56,Presentation,7,00276940422fa_sunabmytpyhsgigllxu.jpg,00835940307fa_sunaijsqpvodplbwxkf.jpg,,,,,,,>,Place,,,,,1,,,,,,,o
355,56,Presentation,7,00870940307fa_sunajrgtewnualfcerj.jpg,00630941031fa_sunadakkdovnuzlycvp.jpg,,,,,,,<,Face,,,,,1,,,,,,,x
356,56,Presentation,7,00983960627fa_sunbfyvfqiimvdaxlqn.jpg,00290940422fa_sunabqowuarvqqcnipn.jpg,,,,,,,>,Face,,,,,1,,,,,,,o
357,56,Presentation,7,00895960530fa_sunamczizlzavhzhpay.jpg,00822940307fa_sunahqrxievfeusiqlt.jpg,,,,,,,<,Face,,,,,0,,,,,,,o
358,56,Presentation,7,00097931230fa_sunaajayojuslbbnneg.jpg,00292940422fb_sunabrjdpmoedcdjbpo.jpg,,,,,,,<,Place,,,,,1,,,,,,,o
359,56,Presentation,7,00210940128fb_sunabanoxjtqxamkucc.jpg,00271940422fa_sunabmbnddafmywtjjj.jpg,,,,,,,<,Face,,,,,1,,,,,,,o
360,56,Memory,7,,,,,,,sunajrgtewnualfcerj.jpg,,,,,,,,,,,,,,,
361,56,Memory,7,,,,,,,sunabctlikybqabezjv.jpg,,,,,,,,,,,,,,,
362,56,Memory,7,,,,,,,00944960627fa.jpg,,,,,,,,,,,,,,,
363,56,Memory,7,,,,,,,sunabbwggenhfbftyvi.jpg,,,,,,,,,,,,,,,
364,56,Memory,7,,,,,,,00839940307fa.jpg,,,,,,,,,,,,,,,
365,56,Memory,7,,,,,,,00915960620fa.jpg,,,,,,,,,,,,,,,
366,56,Memory,7,,,,,,,sunaizgnnplsvajzhkc.jpg,,,,,,,,,,,,,,,
367,56,Memory,7,,,,,,,00239940128fa.jpg,,,,,,,,,,,,,,,
368,56,Memory,7,,,,,,,00935960627fa.jpg,,,,,,,,,,,,,,,
369,56,Memory,7,,,,,,,sunamczizlzavhzhpay.jpg,,,,,,,,,,,,,,,
370,56,Memory,7,,,,,,,sunabrjdpmoedcdjbpo.jpg,,,,,,,,,,,,,,,
371,56,Memory,7,,,,,,,00794960620fa.jpg,,,,,,,,,,,,,,,
372,56,Memory,7,,,,,,,sunafxokyavhgptyfye.jpg,,,,,,,,,,,,,,,
373,56,Memory,7,,,,,,,sunaobtizabegtwfwul.jpg,,,,,,,,,,,,,,,
374,56,Memory,7,,,,,,,sunaqbmgkgqucajzrkp.jpg,,,,,,,,,,,,,,,
375,56,Memory,7,,,,,,,sunacerqowiaeoqkmsq.jpg,,,,,,,,,,,,,,,
376,56,Memory,7,,,,,,,sunabohxbskznglnrhv.jpg,,,,,,,,,,,,,,,
377,56,Memory,7,,,,,,,00997960627fa.jpg,,,,,,,,,,,,,,,
378,56,Memory,7,,,,,,,sunagtqhhwxjeuxdebe.jpg,,,,,,,,,,,,,,,
379,56,Memory,7,,,,,,,00776941205fa.jpg,,,,,,,,,,,,,,,
380,56,Memory,7,,,,,,,00280940422fb.jpg,,,,,,,,,,,,,,,
381,56,Memory,7,,,,,,,00630941031fa.jpg,,,,,,,,,,,,,,,
382,56,Memory,7,,,,,,,sunafvwfsmqkjrutjta.jpg,,,,,,,,,,,,,,,
383,56,Memory,7,,,,,,,sunaipyohrqlwngaqif.jpg,,,,,,,,,,,,,,,
384,56,Memory,7,,,,,,,00548940519fa.jpg,,,,,,,,,,,,,,,
385,56,Memory,7,,,,,,,00870940307fa.jpg,,,,,,,,,,,,,,,
386,56,Memory,7,,,,,,,sunacvjlsylseoghjup.jpg,,,,,,,,,,,,,,,
387,56,Memory,7,,,,,,,sunapileznnbbmrwoei.jpg,,,,,,,,,,,,,,,
388,56,Memory,7,,,,,,,00909960530.jpg,,,,,,,,,,,,,,,
389,56,Memory,7,,,,,,,00960960627fa.jpg,,,,,,,,,,,,,,,
390,56,Memory,7,,,,,,,00576941031fa.jpg,,,,,,,,,,,,,,,
391,56,Memory,7,,,,,,,sunadakkdovnuzlycvp.jpg,,,,,,,,,,,,,,,
392,56,Memory,7,,,,,,,00292940422fb.jpg,,,,,,,,,,,,,,,
393,56,Memory,7,,,,,,,00775941205fa.jpg,,,,,,,,,,,,,,,
394,56,Memory,7,,,,,,,sunasbbntuiheekqyaq.jpg,,,,,,,,,,,,,,,
395,56,Memory,7,,,,,,,sunbtpilbhhbmhmeuzq.jpg,,,,,,,,,,,,,,,
396,56,Memory,7,,,,,,,sunawksfbacycuhbrsc.jpg,,,,,,,,,,,,,,,
397,56,Memory,7,,,,,,,00218940128fa.jpg,,,,,,,,,,,,,,,
398,56,Memory,7,,,,,,,00862940307fa.jpg,,,,,,,,,,,,,,,
399,56,Memory,7,,,,,,,00895960530fa.jpg,,,,,,,,,,,,,,,
