,Subject,Trial Type,Run,Cued Composite,Uncued Composite,Cued Face,Cued Place,Uncued Face,Uncued Place,Memory Image,Category,Cued Side,Cued Category,Attention Response Time (s),Familiarity Reaction Time (s),Familiarity Rating,Attention Level,Cue Validity,Post Invalid Cue,Pre Invalid Cue,Attention Button,Rating History,Stimulus Onset,Stimulus End,Attention Probe
0,28,Presentation,0,00280940422fb_sunabohxbskznglnrhv.jpg,00719960620fa_sunadzuvtmtmgupotmf.jpg,,,,,,,>,Place,,,,,1,,,,,,,o
1,28,Presentation,0,00743941201fa_sunaeoghzrjarigmwua.jpg,00082931230fa_sunaafvitpexrpvumsa.jpg,,,,,,,<,Face,,,,,1,,,,,,,x
2,28,Presentation,0,00265940128fb_sunabkmdplkdbvxriff.jpg,00749941201fa_sunaeuvjbmdpknaqqaj.jpg,,,,,,,<,Place,,,,,1,,,,,,,x
3,28,Presentation,0,00957960627fa_sunavhxgmgrqsaptynb.jpg,00894960620fa_sunalqmfgeadpqsyzpd.jpg,,,,,,,>,Place,,,,,1,,,,,,,x
4,28,Presentation,0,00098931230fa_sunaajpqmulidejvjsr.jpg,00670941121fa_sunadochqcucscehsgk.jpg,,,,,,,>,Face,,,,,1,,,,,,,x
5,28,Presentation,0,00949960627fb_sunasnqkkyhilqkxiqm.jpg,00070940307fa_sunaaeplwsfslcbtojr.jpg,,,,,,,<,Face,,,,,1,,,,,,,x
6,28,Presentation,0,01000960627fa_sunbvzmgrdvaakxusbu.jpg,00859940307fa_sunaiycurtqsfkvcaso.jpg,,,,,,,<,Place,,,,,0,,,,,,,x
7,28,Presentation,0,00131931230fb_sunaangbuylfvckqqoo.jpg,00663941121fa_sunadnjjzohjhbohlwq.jpg,,,,,,,>,Face,,,,,1,,,,,,,o
8,28,Presentation,0,00635941031fa_sunaddsaeicthrfbkhe.jpg,00784941205fb_sunagjzcrjvmxzqzljx.jpg,,,,,,,<,Face,,,,,1,,,,,,,x
9,28,Presentation,0,00630940928fa_sunaczwgyukesaajxnx.jpg,00988960627fa_sunbmaiocftdtvnzgap.jpg,,,,,,,>,Place,,,,,1,,,,,,,x
10,28,Memory,0,,,,,,,sunaletopenvvozhpxc.jpg,,,,,,,,,,,,,,,
11,28,Memory,0,,,,,,,00576941031fa.jpg,,,,,,,,,,,,,,,
12,28,Memory,0,,,,,,,sunaeoghzrjarigmwua.jpg,,,,,,,,,,,,,,,
13,28,Memory,0,,,,,,,sunaecpkgfewqqreqwe.jpg,,,,,,,,,,,,,,,
14,28,Memory,0,,,,,,,00720960620fa.jpg,,,,,,,,,,,,,,,
15,28,Memory,0,,,,,,,00270940422fb.jpg,,,,,,,,,,,,,,,
16,28,Memory,0,,,,,,,00854940307fa.jpg,,,,,,,,,,,,,,,
17,28,Memory,0,,,,,,,sunacvjlsylseoghjup.jpg,,,,,,,,,,,,,,,
18,28,Memory,0,,,,,,,sunaooffzffbhcpirmm.jpg,,,,,,,,,,,,,,,
19,28,Memory,0,,,,,,,00961960627fa.jpg,,,,,,,,,,,,,,,
20,28,Memory,0,,,,,,,00913960530fa.jpg,,,,,,,,,,,,,,,
21,28,Memory,0,,,,,,,sunabzuqsrgcsonqlkz.jpg,,,,,,,,,,,,,,,
22,28,Memory,0,,,,,,,sunaefgzwiramypjvtd.jpg,,,,,,,,,,,,,,,
23,28,Memory,0,,,,,,,sunadnjjzohjhbohlwq.jpg,,,,,,,,,,,,,,,
24,28,Memory,0,,,,,,,sunagjeesomrwjsfqie.jpg,,,,,,,,,,,,,,,
25,28,Memory,0,,,,,,,sunasnqkkyhilqkxiqm.jpg,,,,,,,,,,,,,,,
26,28,Memory,0,,,,,,,sunaeuvjbmdpknaqqaj.jpg,,,,,,,,,,,,,,,
27,28,Memory,0,,,,,,,sunabkmdplkdbvxriff.jpg,,,,,,,,,,,,,,,
28,28,Memory,0,,,,,,,00082931230fa.jpg,,,,,,,,,,,,,,,
29,28,Memory,0,,,,,,,sunaafvitpexrpvumsa.jpg,,,,,,,,,,,,,,,
30,28,Memory,0,,,,,,,00505960627fa.jpg,,,,,,,,,,,,,,,
31,28,Memory,0,,,,,,,sunawotxrevnqvamsfp.jpg,,,,,,,,,,,,,,,
32,28,Memory,0,,,,,,,00957960627fa.jpg,,,,,,,,,,,,,,,
33,28,Memory,0,,,,,,,00749941201fa.jpg,,,,,,,,,,,,,,,
34,28,Memory,0,,,,,,,00663941121fa.jpg,,,,,,,,,,,,,,,
35,28,Memory,0,,,,,,,sunaddsaeicthrfbkhe.jpg,,,,,,,,,,,,,,,
36,28,Memory,0,,,,,,,00725941201fa.jpg,,,,,,,,,,,,,,,
37,28,Memory,0,,,,,,,sunadochqcucscehsgk.jpg,,,,,,,,,,,,,,,
38,28,Memory,0,,,,,,,sunaiwduelojtwaqeyh.jpg,,,,,,,,,,,,,,,
39,28,Memory,0,,,,,,,00783941205fa.jpg,,,,,,,,,,,,,,,
40,28,Memory,0,,,,,,,00949960627fb.jpg,,,,,,,,,,,,,,,
41,28,Memory,0,,,,,,,sunabllobxadqcyttej.jpg,,,,,,,,,,,,,,,
42,28,Memory,0,,,,,,,00265940128fb.jpg,,,,,,,,,,,,,,,
43,28,Memory,0,,,,,,,sunbmaiocftdtvnzgap.jpg,,,,,,,,,,,,,,,
44,28,Memory,0,,,,,,,00889960530fa.jpg,,,,,,,,,,,,,,,
45,28,Memory,0,,,,,,,00670941121fa.jpg,,,,,,,,,,,,,,,
46,28,Memory,0,,,,,,,00635941031fa.jpg,,,,,,,,,,,,,,,
47,28,Memory,0,,,,,,,00743941201fa.jpg,,,,,,,,,,,,,,,
48,28,Memory,0,,,,,,,00988960627fa.jpg,,,,,,,,,,,,,,,
49,28,Memory,0,,,,,,,sunavhxgmgrqsaptynb.jpg,,,,,,,,,,,,,,,
50,28,Presentation,1,00943960627fa_sunarpsxqkduedrrzyi.jpg,00797960620fa_sunagufzbeteqdjxais.jpg,,,,,,,>,Place,,,,,1,,,,,,,x
51,28,Presentation,1,00763941205fa_sunafhmnhsdurlvddpw.jpg,00754941201fa_sunaffgsyyvoqdlkmnk.jpg,,,,,,,<,Face,,,,,1,,,,,,,o
52,28,Presentation,1,00071940128fa_sunaaexpnawiehinlpy.jpg,00543940519fa_sunacepzfrmtkiqonpy.jpg,,,,,,,>,Face,,,,,1,,,,,,,o
53,28,Presentation,1,00775941205fa_sunafvwfsmqkjrutjta.jpg,00880960530fa_sunakmnfgklupjijsgf.jpg,,,,,,,<,Place,,,,,0,,,,,,,x
54,28,Presentation,1,00146960620fb_sunaatpeezlljqaxlhj.jpg,00955960627fb_sunauburywlkjszngcq.jpg,,,,,,,>,Place,,,,,1,,,,,,,x
55,28,Presentation,1,00952960627fa_sunathzzbcwjykldrem.jpg,00235940128fb_sunabclssnoeuigtawp.jpg,,,,,,,<,Face,,,,,1,,,,,,,o
56,28,Presentation,1,00559940519fa_sunacjkmnpawfzbyvae.jpg,00482940519fa_sunabyfxcxhdebvdyfd.jpg,,,,,,,>,Face,,,,,1,,,,,,,x
57,28,Presentation,1,00777941205fa_sunagcinxkccdtrjmlv.jpg,00129931230fb_sunaamsdyakblkfoydx.jpg,,,,,,,<,Place,,,,,1,,,,,,,x
58,28,Presentation,1,00882960530fa_sunaknlirqjqiwbbeeg.jpg,00929960627fa_sunaprnrbmgkomdbchr.jpg,,,,,,,>,Face,,,,,0,,,,,,,x
59,28,Presentation,1,00609940928fa_sunacycdoztxoluxjyk.jpg,00968960627fa_sunbagfpovqwbuexqdn.jpg,,,,,,,<,Place,,,,,1,,,,,,,x
60,28,Memory,1,,,,,,,00115931230fa.jpg,,,,,,,,,,,,,,,
61,28,Memory,1,,,,,,,00882960530fa.jpg,,,,,,,,,,,,,,,
62,28,Memory,1,,,,,,,00071940128fa.jpg,,,,,,,,,,,,,,,
63,28,Memory,1,,,,,,,00955960627fb.jpg,,,,,,,,,,,,,,,
64,28,Memory,1,,,,,,,sunacepzfrmtkiqonpy.jpg,,,,,,,,,,,,,,,
65,28,Memory,1,,,,,,,sunaakmxzhuceuiryah.jpg,,,,,,,,,,,,,,,
66,28,Memory,1,,,,,,,sunacjkmnpawfzbyvae.jpg,,,,,,,,,,,,,,,
67,28,Memory,1,,,,,,,sunagcinxkccdtrjmlv.jpg,,,,,,,,,,,,,,,
68,28,Memory,1,,,,,,,00089931230fa.jpg,,,,,,,,,,,,,,,
69,28,Memory,1,,,,,,,sunabclssnoeuigtawp.jpg,,,,,,,,,,,,,,,
70,28,Memory,1,,,,,,,sunaeutbrtswvsozxyk.jpg,,,,,,,,,,,,,,,
71,28,Memory,1,,,,,,,00543940519fa.jpg,,,,,,,,,,,,,,,
72,28,Memory,1,,,,,,,00870940307fa.jpg,,,,,,,,,,,,,,,
73,28,Memory,1,,,,,,,sunaknlirqjqiwbbeeg.jpg,,,,,,,,,,,,,,,
74,28,Memory,1,,,,,,,sunagufzbeteqdjxais.jpg,,,,,,,,,,,,,,,
75,28,Memory,1,,,,,,,sunaaexpnawiehinlpy.jpg,,,,,,,,,,,,,,,
76,28,Memory,1,,,,,,,00235940128fb.jpg,,,,,,,,,,,,,,,
77,28,Memory,1,,,,,,,sunaloffvbvysigxent.jpg,,,,,,,,,,,,,,,
78,28,Memory,1,,,,,,,00634940928fa.jpg,,,,,,,,,,,,,,,
79,28,Memory,1,,,,,,,00777941205fa.jpg,,,,,,,,,,,,,,,
80,28,Memory,1,,,,,,,00754941201fa.jpg,,,,,,,,,,,,,,,
81,28,Memory,1,,,,,,,sunafvwfsmqkjrutjta.jpg,,,,,,,,,,,,,,,
82,28,Memory,1,,,,,,,sunaffgsyyvoqdlkmnk.jpg,,,,,,,,,,,,,,,
83,28,Memory,1,,,,,,,00885960530fa.jpg,,,,,,,,,,,,,,,
84,28,Memory,1,,,,,,,sunajrgtewnualfcerj.jpg,,,,,,,,,,,,,,,
85,28,Memory,1,,,,,,,00797960620fa.jpg,,,,,,,,,,,,,,,
86,28,Memory,1,,,,,,,sunacfdkbsrughwqwtt.jpg,,,,,,,,,,,,,,,
87,28,Memory,1,,,,,,,00779941205fa.jpg,,,,,,,,,,,,,,,
88,28,Memory,1,,,,,,,sunauburywlkjszngcq.jpg,,,,,,,,,,,,,,,
89,28,Memory,1,,,,,,,00893960530Fa.jpg,,,,,,,,,,,,,,,
90,28,Memory,1,,,,,,,sunajawzbrlrwafowen.jpg,,,,,,,,,,,,,,,
91,28,Memory,1,,,,,,,00554940519fa.jpg,,,,,,,,,,,,,,,
92,28,Memory,1,,,,,,,00559940519fa.jpg,,,,,,,,,,,,,,,
93,28,Memory,1,,,,,,,sunadcphrizvfpljiqt.jpg,,,,,,,,,,,,,,,
94,28,Memory,1,,,,,,,sunagdzlvkqtpnfxfcg.jpg,,,,,,,,,,,,,,,
95,28,Memory,1,,,,,,,00747941201fa.jpg,,,,,,,,,,,,,,,
96,28,Memory,1,,,,,,,00775941205fa.jpg,,,,,,,,,,,,,,,
97,28,Memory,1,,,,,,,00864940307fa.jpg,,,,,,,,,,,,,,,
98,28,Memory,1,,,,,,,sunakwlvxjpddialozd.jpg,,,,,,,,,,,,,,,
99,28,Memory,1,,,,,,,sunaagcpoejbuzyvddd.jpg,,,,,,,,,,,,,,,
100,28,Presentation,2,00745941205fa_sunaeouogqolxvggaoq.jpg,01004960627fa_sunbwtlihsuptkrckid.jpg,,,,,,,<,Place,,,,,1,,,,,,,o
101,28,Presentation,2,01007960627fa_sunbxarcshsnqsefemx.jpg,00302940422fa_sunabtlfmiwtljmoues.jpg,,,,,,,<,Face,,,,,1,,,,,,,x
102,28,Presentation,2,00976960627fa_sunbbhqyyzmsxhsbjmp.jpg,00910960530fa_sunaofikylqtxphvdem.jpg,,,,,,,<,Place,,,,,0,,,,,,,o
103,28,Presentation,2,00791941205fa_sunagrmyoovzukhxmlo.jpg,00788941205fa_sunagountlxpzkytsmp.jpg,,,,,,,>,Face,,,,,1,,,,,,,o
104,28,Presentation,2,00925960627fa_sunapqwnqzxlsfvgsjm.jpg,00892960530fa_sunalntxqqadigcletd.jpg,,,,,,,<,Place,,,,,1,,,,,,,x
105,28,Presentation,2,00564941031fa_sunacsaovnjezqwbykf.jpg,00828940307fa_sunahuynahneraqftyz.jpg,,,,,,,<,Face,,,,,1,,,,,,,o
106,28,Presentation,2,00996960627fa_sunbpvgllfdejxcpjqp.jpg,00681941121fa_sunadqmjrhfjyuzyvdd.jpg,,,,,,,>,Place,,,,,1,,,,,,,x
107,28,Presentation,2,00841940307fa_sunaisiwfgppimtnmxl.jpg,00953960627fa_sunatstrpjxhvtbaczf.jpg,,,,,,,>,Face,,,,,1,,,,,,,x
108,28,Presentation,2,00898960530fa_sunamkmeblgteyggink.jpg,00752960620fa_sunafbwnojpqeyzssoe.jpg,,,,,,,>,Place,,,,,1,,,,,,,x
109,28,Presentation,2,00804960530fa_sunagwswhkvnsmuszlz.jpg,00868960307fa_sunajjxttslobudoqbv.jpg,,,,,,,>,Face,,,,,1,,,,,,,o
110,28,Memory,2,,,,,,,sunafxokyavhgptyfye.jpg,,,,,,,,,,,,,,,
111,28,Memory,2,,,,,,,00963960627fa.jpg,,,,,,,,,,,,,,,
112,28,Memory,2,,,,,,,sunagwswhkvnsmuszlz.jpg,,,,,,,,,,,,,,,
113,28,Memory,2,,,,,,,sunaajspcoepticvplv.jpg,,,,,,,,,,,,,,,
114,28,Memory,2,,,,,,,sunamkmeblgteyggink.jpg,,,,,,,,,,,,,,,
115,28,Memory,2,,,,,,,00807941205fa.jpg,,,,,,,,,,,,,,,
116,28,Memory,2,,,,,,,sunaakvmbftkrgqhjun.jpg,,,,,,,,,,,,,,,
117,28,Memory,2,,,,,,,00302940422fa.jpg,,,,,,,,,,,,,,,
118,28,Memory,2,,,,,,,00752960620fa.jpg,,,,,,,,,,,,,,,
119,28,Memory,2,,,,,,,00564941031fa.jpg,,,,,,,,,,,,,,,
120,28,Memory,2,,,,,,,00898960530fa.jpg,,,,,,,,,,,,,,,
121,28,Memory,2,,,,,,,00119931230fb.jpg,,,,,,,,,,,,,,,
122,28,Memory,2,,,,,,,00125931230fa.jpg,,,,,,,,,,,,,,,
123,28,Memory,2,,,,,,,00773960620fa.jpg,,,,,,,,,,,,,,,
124,28,Memory,2,,,,,,,sunbwtlihsuptkrckid.jpg,,,,,,,,,,,,,,,
125,28,Memory,2,,,,,,,sunayaepykrqvenaqqy.jpg,,,,,,,,,,,,,,,
126,28,Memory,2,,,,,,,sunabqowuarvqqcnipn.jpg,,,,,,,,,,,,,,,
127,28,Memory,2,,,,,,,00868960307fa.jpg,,,,,,,,,,,,,,,
128,28,Memory,2,,,,,,,sunafbwnojpqeyzssoe.jpg,,,,,,,,,,,,,,,
129,28,Memory,2,,,,,,,sunajjxttslobudoqbv.jpg,,,,,,,,,,,,,,,
130,28,Memory,2,,,,,,,00102931230fa.jpg,,,,,,,,,,,,,,,
131,28,Memory,2,,,,,,,sunacsaovnjezqwbykf.jpg,,,,,,,,,,,,,,,
132,28,Memory,2,,,,,,,00123931230fb.jpg,,,,,,,,,,,,,,,
133,28,Memory,2,,,,,,,sunaalcrrdbjgdztbiz.jpg,,,,,,,,,,,,,,,
134,28,Memory,2,,,,,,,sunafvsxtzaizojicxx.jpg,,,,,,,,,,,,,,,
135,28,Memory,2,,,,,,,sunaalltyvjhbzhkmvg.jpg,,,,,,,,,,,,,,,
136,28,Memory,2,,,,,,,00925960627fa.jpg,,,,,,,,,,,,,,,
137,28,Memory,2,,,,,,,sunaofikylqtxphvdem.jpg,,,,,,,,,,,,,,,
138,28,Memory,2,,,,,,,00910960530fa.jpg,,,,,,,,,,,,,,,
139,28,Memory,2,,,,,,,01004960627fa.jpg,,,,,,,,,,,,,,,
140,28,Memory,2,,,,,,,sunaeouogqolxvggaoq.jpg,,,,,,,,,,,,,,,
141,28,Memory,2,,,,,,,00290940422fa.jpg,,,,,,,,,,,,,,,
142,28,Memory,2,,,,,,,00745941205fa.jpg,,,,,,,,,,,,,,,
143,28,Memory,2,,,,,,,00149931230fa.jpg,,,,,,,,,,,,,,,
144,28,Memory,2,,,,,,,sunabtlfmiwtljmoues.jpg,,,,,,,,,,,,,,,
145,28,Memory,2,,,,,,,00776941205fa.jpg,,,,,,,,,,,,,,,
146,28,Memory,2,,,,,,,sunahawfngukizslzsd.jpg,,,,,,,,,,,,,,,
147,28,Memory,2,,,,,,,sunaauglwmctnkxyird.jpg,,,,,,,,,,,,,,,
148,28,Memory,2,,,,,,,sunapqwnqzxlsfvgsjm.jpg,,,,,,,,,,,,,,,
149,28,Memory,2,,,,,,,00804960530fa.jpg,,,,,,,,,,,,,,,
150,28,Presentation,3,00239940128fa_sunabctlikybqabezjv.jpg,00812941205fa_sunahgtbwgsmtqeodwh.jpg,,,,,,,<,Face,,,,,1,,,,,,,o
151,28,Presentation,3,00774941201fa_sunafvtpfczkzopbgue.jpg,00218940128fa_sunabbwggenhfbftyvi.jpg,,,,,,,<,Place,,,,,1,,,,,,,o
152,28,Presentation,3,00210940128fb_sunabanoxjtqxamkucc.jpg,00768941205fa_sunafkmnlytenlsywia.jpg,,,,,,,>,Place,,,,,1,,,,,,,o
153,28,Presentation,3,00296940422fa_sunabrwnslxalcohfre.jpg,00997960627fa_sunbtpilbhhbmhmeuzq.jpg,,,,,,,<,Place,,,,,1,,,,,,,x
154,28,Presentation,3,00822940307fa_sunahqrxievfeusiqlt.jpg,00093931230fa_sunaahwnmtqsrhocysw.jpg,,,,,,,>,Face,,,,,1,,,,,,,x
155,28,Presentation,3,00598941031fa_sunacxtcahkymosigud.jpg,00574940928fa_sunacvbrcejzwmcgnoq.jpg,,,,,,,>,Place,,,,,1,,,,,,,o
156,28,Presentation,3,00090931230fa_sunaahedjlmtqekgyvj.jpg,00589940928fa_sunacwggadqsfpovdjv.jpg,,,,,,,>,Face,,,,,1,,,,,,,o
157,28,Presentation,3,00162931230fb_sunaavjinpnkappuonm.jpg,00766960620fa_sunafijbgncijwykrnl.jpg,,,,,,,<,Face,,,,,1,,,,,,,x
158,28,Presentation,3,00081941031fa_sunaaftlyfudyzuhqzf.jpg,00936960627fa_sunaqgjuuwvdcyiccjt.jpg,,,,,,,<,Place,,,,,1,,,,,,,o
159,28,Presentation,3,00884960530fa_sunakodkcslgqhqlgwl.jpg,00571940928fa_sunacuatpqpqhyjhjqk.jpg,,,,,,,>,Face,,,,,1,,,,,,,o
160,28,Memory,3,,,,,,,sunaahwnmtqsrhocysw.jpg,,,,,,,,,,,,,,,
161,28,Memory,3,,,,,,,sunakgbnzxmfohgehnu.jpg,,,,,,,,,,,,,,,
162,28,Memory,3,,,,,,,00062931230fb.jpg,,,,,,,,,,,,,,,
163,28,Memory,3,,,,,,,sunaaemixhfquhnxxlm.jpg,,,,,,,,,,,,,,,
164,28,Memory,3,,,,,,,00774941201fa.jpg,,,,,,,,,,,,,,,
165,28,Memory,3,,,,,,,sunakodkcslgqhqlgwl.jpg,,,,,,,,,,,,,,,
166,28,Memory,3,,,,,,,sunabbwggenhfbftyvi.jpg,,,,,,,,,,,,,,,
167,28,Memory,3,,,,,,,sunaooaqzputrowwbsw.jpg,,,,,,,,,,,,,,,
168,28,Memory,3,,,,,,,00571940928fa.jpg,,,,,,,,,,,,,,,
169,28,Memory,3,,,,,,,sunacvbrcejzwmcgnoq.jpg,,,,,,,,,,,,,,,
170,28,Memory,3,,,,,,,00065931230fb.jpg,,,,,,,,,,,,,,,
171,28,Memory,3,,,,,,,00911960530fa.jpg,,,,,,,,,,,,,,,
172,28,Memory,3,,,,,,,sunbtpilbhhbmhmeuzq.jpg,,,,,,,,,,,,,,,
173,28,Memory,3,,,,,,,00162931230fb.jpg,,,,,,,,,,,,,,,
174,28,Memory,3,,,,,,,00772941201fa.jpg,,,,,,,,,,,,,,,
175,28,Memory,3,,,,,,,00742941201fa.jpg,,,,,,,,,,,,,,,
176,28,Memory,3,,,,,,,sunaanptmsknhirrzed.jpg,,,,,,,,,,,,,,,
177,28,Memory,3,,,,,,,00208940128fa.jpg,,,,,,,,,,,,,,,
178,28,Memory,3,,,,,,,00884960530fa.jpg,,,,,,,,,,,,,,,
179,28,Memory,3,,,,,,,sunaazzyhbvqjpmazjq.jpg,,,,,,,,,,,,,,,
180,28,Memory,3,,,,,,,00136931230fb.jpg,,,,,,,,,,,,,,,
181,28,Memory,3,,,,,,,00997960627fa.jpg,,,,,,,,,,,,,,,
182,28,Memory,3,,,,,,,00210940128fb.jpg,,,,,,,,,,,,,,,
183,28,Memory,3,,,,,,,sunaavjinpnkappuonm.jpg,,,,,,,,,,,,,,,
184,28,Memory,3,,,,,,,00816941205fa.jpg,,,,,,,,,,,,,,,
185,28,Memory,3,,,,,,,00093931230fa.jpg,,,,,,,,,,,,,,,
186,28,Memory,3,,,,,,,sunabanoxjtqxamkucc.jpg,,,,,,,,,,,,,,,
187,28,Memory,3,,,,,,,sunahmhrncocyhsjpxk.jpg,,,,,,,,,,,,,,,
188,28,Memory,3,,,,,,,sunabrwnslxalcohfre.jpg,,,,,,,,,,,,,,,
189,28,Memory,3,,,,,,,sunafpfpiiujzoesnqg.jpg,,,,,,,,,,,,,,,
190,28,Memory,3,,,,,,,00218940128fa.jpg,,,,,,,,,,,,,,,
191,28,Memory,3,,,,,,,sunadtlxenqqxsyjvix.jpg,,,,,,,,,,,,,,,
192,28,Memory,3,,,,,,,00705941205fa.jpg,,,,,,,,,,,,,,,
193,28,Memory,3,,,,,,,sunafvtpfczkzopbgue.jpg,,,,,,,,,,,,,,,
194,28,Memory,3,,,,,,,sunaaelotvjgibjtjhs.jpg,,,,,,,,,,,,,,,
195,28,Memory,3,,,,,,,00296940422fa.jpg,,,,,,,,,,,,,,,
196,28,Memory,3,,,,,,,00574940928fa.jpg,,,,,,,,,,,,,,,
197,28,Memory,3,,,,,,,sunaenwuebvlpdmntju.jpg,,,,,,,,,,,,,,,
198,28,Memory,3,,,,,,,sunacuatpqpqhyjhjqk.jpg,,,,,,,,,,,,,,,
199,28,Memory,3,,,,,,,00878960530fa.jpg,,,,,,,,,,,,,,,
200,28,Presentation,4,00937960627fa_sunaqsolmfydodnakub.jpg,00909960530_sunaobtizabegtwfwul.jpg,,,,,,,<,Place,,,,,1,,,,,,,o
201,28,Presentation,4,00985960627fa_sunbgklxeqjhdbyfhhy.jpg,00793941205fa_sunagtjwilqjvxohypn.jpg,,,,,,,>,Place,,,,,1,,,,,,,x
202,28,Presentation,4,00965960627fa_sunaydywdmvlfddbxbk.jpg,00153931230fa_sunaauhozyxzeeqstxi.jpg,,,,,,,<,Place,,,,,1,,,,,,,x
203,28,Presentation,4,00857940307fa_sunaiwfobocrruqznsv.jpg,00063931230fa_sunaaelyvurpntclgau.jpg,,,,,,,>,Face,,,,,1,,,,,,,o
204,28,Presentation,4,00751960620fa_sunaezuszgtxnmsxdbk.jpg,00076931230fa_sunaafewhewbxmjiurz.jpg,,,,,,,<,Face,,,,,1,,,,,,,o
205,28,Presentation,4,00197940128fa_sunaaylzyqlqrsmfwif.jpg,01011960627fa_sundahdxwmcdluscvot.jpg,,,,,,,>,Face,,,,,1,,,,,,,x
206,28,Presentation,4,00694941121fa_sunadrmfzmstgdjdcod.jpg,00479940519fa_sunabxsbfwjccqxxzxq.jpg,,,,,,,<,Place,,,,,1,,,,,,,x
207,28,Presentation,4,00662941121fa_sunadkazmlajmohnwfl.jpg,00077931230fb_sunaafgqutfaishsxyu.jpg,,,,,,,>,Face,,,,,1,,,,,,,o
208,28,Presentation,4,00263940128fb_sunabjuovqvyfuzvqwt.jpg,00598940928fa_sunacxeheuiigkcgquf.jpg,,,,,,,<,Face,,,,,1,,,,,,,o
209,28,Presentation,4,00811960530fa_sunahedfrhtcwpneund.jpg,00101931230fb_sunaajqmsaavkmgbsth.jpg,,,,,,,>,Place,,,,,1,,,,,,,o
210,28,Memory,4,,,,,,,sunaauhozyxzeeqstxi.jpg,,,,,,,,,,,,,,,
211,28,Memory,4,,,,,,,00086931230fa.jpg,,,,,,,,,,,,,,,
212,28,Memory,4,,,,,,,sunagtjwilqjvxohypn.jpg,,,,,,,,,,,,,,,
213,28,Memory,4,,,,,,,00267940128fb.jpg,,,,,,,,,,,,,,,
214,28,Memory,4,,,,,,,00263940128fb.jpg,,,,,,,,,,,,,,,
215,28,Memory,4,,,,,,,00076931230fa.jpg,,,,,,,,,,,,,,,
216,28,Memory,4,,,,,,,sunajtrfunvzdfticna.jpg,,,,,,,,,,,,,,,
217,28,Memory,4,,,,,,,sunalcrtwiycqobgelp.jpg,,,,,,,,,,,,,,,
218,28,Memory,4,,,,,,,00966960627fa.jpg,,,,,,,,,,,,,,,
219,28,Memory,4,,,,,,,00483940519fa.jpg,,,,,,,,,,,,,,,
220,28,Memory,4,,,,,,,sunaygrtwrwfezqjizr.jpg,,,,,,,,,,,,,,,
221,28,Memory,4,,,,,,,00793941205fa.jpg,,,,,,,,,,,,,,,
222,28,Memory,4,,,,,,,sunaafgqutfaishsxyu.jpg,,,,,,,,,,,,,,,
223,28,Memory,4,,,,,,,sunadkazmlajmohnwfl.jpg,,,,,,,,,,,,,,,
224,28,Memory,4,,,,,,,sunaajqmsaavkmgbsth.jpg,,,,,,,,,,,,,,,
225,28,Memory,4,,,,,,,00077931230fb.jpg,,,,,,,,,,,,,,,
226,28,Memory,4,,,,,,,00901960530fa.jpg,,,,,,,,,,,,,,,
227,28,Memory,4,,,,,,,00887960530.jpg,,,,,,,,,,,,,,,
228,28,Memory,4,,,,,,,00947960627fa.jpg,,,,,,,,,,,,,,,
229,28,Memory,4,,,,,,,sunaafewhewbxmjiurz.jpg,,,,,,,,,,,,,,,
230,28,Memory,4,,,,,,,00985960627fa.jpg,,,,,,,,,,,,,,,
231,28,Memory,4,,,,,,,00965960627fa.jpg,,,,,,,,,,,,,,,
232,28,Memory,4,,,,,,,00662941121fa.jpg,,,,,,,,,,,,,,,
233,28,Memory,4,,,,,,,sunablfqiwfqomjarht.jpg,,,,,,,,,,,,,,,
234,28,Memory,4,,,,,,,00874940307fa.jpg,,,,,,,,,,,,,,,
235,28,Memory,4,,,,,,,sunabyvpwkgsjtijdwj.jpg,,,,,,,,,,,,,,,
236,28,Memory,4,,,,,,,sunabizydfotqddlnjp.jpg,,,,,,,,,,,,,,,
237,28,Memory,4,,,,,,,sunaydywdmvlfddbxbk.jpg,,,,,,,,,,,,,,,
238,28,Memory,4,,,,,,,sunbgklxeqjhdbyfhhy.jpg,,,,,,,,,,,,,,,
239,28,Memory,4,,,,,,,sunahedfrhtcwpneund.jpg,,,,,,,,,,,,,,,
240,28,Memory,4,,,,,,,00095931230fa.jpg,,,,,,,,,,,,,,,
241,28,Memory,4,,,,,,,00101931230fb.jpg,,,,,,,,,,,,,,,
242,28,Memory,4,,,,,,,sunaafynehyrzpsoaml.jpg,,,,,,,,,,,,,,,
243,28,Memory,4,,,,,,,00153931230fa.jpg,,,,,,,,,,,,,,,
244,28,Memory,4,,,,,,,00262940128fa.jpg,,,,,,,,,,,,,,,
245,28,Memory,4,,,,,,,sunaahzooisqkwlxwoz.jpg,,,,,,,,,,,,,,,
246,28,Memory,4,,,,,,,sunabjuovqvyfuzvqwt.jpg,,,,,,,,,,,,,,,
247,28,Memory,4,,,,,,,00811960530fa.jpg,,,,,,,,,,,,,,,
248,28,Memory,4,,,,,,,sunasmmcxdddtmtazwx.jpg,,,,,,,,,,,,,,,
249,28,Memory,4,,,,,,,sunammbnoambmhdxdwd.jpg,,,,,,,,,,,,,,,
250,28,Presentation,5,00860940307fa_sunaizeyhvjzknwjudw.jpg,01010960627fa_suncnkvbhypnivcohyx.jpg,,,,,,,>,Face,,,,,1,,,,,,,o
251,28,Presentation,5,00778941205fa_sunagcthdfirrcawoic.jpg,00989960627fa_sunbondbduabvijnmch.jpg,,,,,,,>,Place,,,,,1,,,,,,,o
252,28,Presentation,5,00650941031fa_sunadikxpvqeabxrvvc.jpg,00292940422fb_sunabrjdpmoedcdjbpo.jpg,,,,,,,<,Place,,,,,1,,,,,,,x
253,28,Presentation,5,00919960620fa_sunapmfmzadmosuogaz.jpg,00647941031fa_sunadflbrkckmepztql.jpg,,,,,,,>,Place,,,,,1,,,,,,,o
254,28,Presentation,5,00073931230fa_sunaafbmtoniaasysgu.jpg,00727941205fa_sunaeisnjeetzmkbuad.jpg,,,,,,,<,Face,,,,,1,,,,,,,x
255,28,Presentation,5,00120931230fa_sunaakxgygjfqrzpyoz.jpg,00848940307fa_sunaivdylrawbmhryfp.jpg,,,,,,,>,Face,,,,,1,,,,,,,o
256,28,Presentation,5,00092931230fa_sunaaheqzstzxuadglu.jpg,00288940422fa_sunabppokiyglaxpcha.jpg,,,,,,,<,Face,,,,,0,,,,,,,x
257,28,Presentation,5,00838940307fa_sunaiozxhxgtfrmoagh.jpg,00730960620fa_sunaekgzpfilgjxpeyq.jpg,,,,,,,>,Place,,,,,0,,,,,,,x
258,28,Presentation,5,00792941205fa_sunagsiwrmuixqgdimb.jpg,00993960627fa_sunbprywzqxjcezkbch.jpg,,,,,,,<,Place,,,,,1,,,,,,,o
259,28,Presentation,5,00970960627fa_sunbasypfgzjtomktmu.jpg,00557940519fa_sunachtuarilwyqnvjx.jpg,,,,,,,<,Face,,,,,0,,,,,,,o
260,28,Memory,5,,,,,,,00092931230fa.jpg,,,,,,,,,,,,,,,
261,28,Memory,5,,,,,,,00970960627fa.jpg,,,,,,,,,,,,,,,
262,28,Memory,5,,,,,,,sunbpflsdaxnddnwcqi.jpg,,,,,,,,,,,,,,,
263,28,Memory,5,,,,,,,sunagwzdbtlixdhgolm.jpg,,,,,,,,,,,,,,,
264,28,Memory,5,,,,,,,00805941205fa.jpg,,,,,,,,,,,,,,,
265,28,Memory,5,,,,,,,sunaekgzpfilgjxpeyq.jpg,,,,,,,,,,,,,,,
266,28,Memory,5,,,,,,,sunbondbduabvijnmch.jpg,,,,,,,,,,,,,,,
267,28,Memory,5,,,,,,,00989960627fa.jpg,,,,,,,,,,,,,,,
268,28,Memory,5,,,,,,,00919960620fa.jpg,,,,,,,,,,,,,,,
269,28,Memory,5,,,,,,,00990960627fa.jpg,,,,,,,,,,,,,,,
270,28,Memory,5,,,,,,,00120931230fa.jpg,,,,,,,,,,,,,,,
271,28,Memory,5,,,,,,,sunamlotskmmsjeogby.jpg,,,,,,,,,,,,,,,
272,28,Memory,5,,,,,,,sunadikxpvqeabxrvvc.jpg,,,,,,,,,,,,,,,
273,28,Memory,5,,,,,,,00836940307fa.jpg,,,,,,,,,,,,,,,
274,28,Memory,5,,,,,,,sunabeyhmxodahoieyk.jpg,,,,,,,,,,,,,,,
275,28,Memory,5,,,,,,,sunamczizlzavhzhpay.jpg,,,,,,,,,,,,,,,
276,28,Memory,5,,,,,,,sunaaheqzstzxuadglu.jpg,,,,,,,,,,,,,,,
277,28,Memory,5,,,,,,,00245940128fa.jpg,,,,,,,,,,,,,,,
278,28,Memory,5,,,,,,,sunachtuarilwyqnvjx.jpg,,,,,,,,,,,,,,,
279,28,Memory,5,,,,,,,00973960627fa.jpg,,,,,,,,,,,,,,,
280,28,Memory,5,,,,,,,01010960627fa.jpg,,,,,,,,,,,,,,,
281,28,Memory,5,,,,,,,sunaakxgygjfqrzpyoz.jpg,,,,,,,,,,,,,,,
282,28,Memory,5,,,,,,,00790941205fa.jpg,,,,,,,,,,,,,,,
283,28,Memory,5,,,,,,,sunagpjzsbltchlwvou.jpg,,,,,,,,,,,,,,,
284,28,Memory,5,,,,,,,sunanwjjyqqwzqrqagd.jpg,,,,,,,,,,,,,,,
285,28,Memory,5,,,,,,,00900960530fa.jpg,,,,,,,,,,,,,,,
286,28,Memory,5,,,,,,,sunadbhmrgrrpyzglxs.jpg,,,,,,,,,,,,,,,
287,28,Memory,5,,,,,,,00895960530fa.jpg,,,,,,,,,,,,,,,
288,28,Memory,5,,,,,,,00730960620fa.jpg,,,,,,,,,,,,,,,
289,28,Memory,5,,,,,,,sunainqelldeebvxtcz.jpg,,,,,,,,,,,,,,,
290,28,Memory,5,,,,,,,sunbasypfgzjtomktmu.jpg,,,,,,,,,,,,,,,
291,28,Memory,5,,,,,,,00557940519fa.jpg,,,,,,,,,,,,,,,
292,28,Memory,5,,,,,,,00908960530fa.jpg,,,,,,,,,,,,,,,
293,28,Memory,5,,,,,,,00633940928fa.jpg,,,,,,,,,,,,,,,
294,28,Memory,5,,,,,,,00650941031fa.jpg,,,,,,,,,,,,,,,
295,28,Memory,5,,,,,,,00288940422fa.jpg,,,,,,,,,,,,,,,
296,28,Memory,5,,,,,,,suncnkvbhypnivcohyx.jpg,,,,,,,,,,,,,,,
297,28,Memory,5,,,,,,,sunbbgtoeuzierkkajt.jpg,,,,,,,,,,,,,,,
298,28,Memory,5,,,,,,,sunapmfmzadmosuogaz.jpg,,,,,,,,,,,,,,,
299,28,Memory,5,,,,,,,sunabppokiyglaxpcha.jpg,,,,,,,,,,,,,,,
300,28,Presentation,6,00266940128fb_sunabkngeblodihjvbk.jpg,00061931230fb_sunaaekxzjzrfgtkwjf.jpg,,,,,,,<,Place,,,,,1,,,,,,,o
301,28,Presentation,6,00795941205fa_sunagtumacdlmciqamz.jpg,00214940128fa_sunabbafjowbzcvbucc.jpg,,,,,,,>,Place,,,,,1,,,,,,,x
302,28,Presentation,6,00972960627fa_sunbbfqwjpdxniyhies.jpg,00922960627fa_sunapqkyghktgtosuuk.jpg,,,,,,,<,Face,,,,,1,,,,,,,o
303,28,Presentation,6,00163931230fb_sunaavodbcpygkggnfp.jpg,00127931230fa_sunaampvucecsfbdafn.jpg,,,,,,,>,Place,,,,,1,,,,,,,o
304,28,Presentation,6,00648941031fa_sunadfndyrtqqiasoig.jpg,00921960627fa_sunapqkpqdfvxlbqwyo.jpg,,,,,,,<,Face,,,,,1,,,,,,,x
305,28,Presentation,6,00140931230fb_sunaapllqyqlykszopd.jpg,00935960627fa_sunaqbmgkgqucajzrkp.jpg,,,,,,,>,Face,,,,,1,,,,,,,x
306,28,Presentation,6,00771941205fa_sunafowswglhxcsufpo.jpg,00564940928fa_sunacmpqqfbsvlzinzl.jpg,,,,,,,<,Face,,,,,1,,,,,,,x
307,28,Presentation,6,00866940307fa_sunajbwkywmsqkldfml.jpg,00097931230fa_sunaajayojuslbbnneg.jpg,,,,,,,>,Place,,,,,1,,,,,,,o
308,28,Presentation,6,00959960627fa_sunavxokzybtomhbmvm.jpg,00839940307fa_sunaipyohrqlwngaqif.jpg,,,,,,,<,Place,,,,,1,,,,,,,o
309,28,Presentation,6,00124931230fa_sunaalhlvzmjmitybdn.jpg,00723941201fa_sunaedtgwjvvziytspa.jpg,,,,,,,>,Face,,,,,1,,,,,,,x
310,28,Memory,6,,,,,,,sunadakkdovnuzlycvp.jpg,,,,,,,,,,,,,,,
311,28,Memory,6,,,,,,,sunaalhlvzmjmitybdn.jpg,,,,,,,,,,,,,,,
312,28,Memory,6,,,,,,,sunagtumacdlmciqamz.jpg,,,,,,,,,,,,,,,
313,28,Memory,6,,,,,,,00750941201fa.jpg,,,,,,,,,,,,,,,
314,28,Memory,6,,,,,,,00507940519fa.jpg,,,,,,,,,,,,,,,
315,28,Memory,6,,,,,,,sunbfzchmomnvzhbxdg.jpg,,,,,,,,,,,,,,,
316,28,Memory,6,,,,,,,00921960627fa.jpg,,,,,,,,,,,,,,,
317,28,Memory,6,,,,,,,01009960627fa.jpg,,,,,,,,,,,,,,,
318,28,Memory,6,,,,,,,sunaemcowdozyphwknd.jpg,,,,,,,,,,,,,,,
319,28,Memory,6,,,,,,,00839940307fa.jpg,,,,,,,,,,,,,,,
320,28,Memory,6,,,,,,,00548940519fa.jpg,,,,,,,,,,,,,,,
321,28,Memory,6,,,,,,,00972960627fa.jpg,,,,,,,,,,,,,,,
322,28,Memory,6,,,,,,,sunaeuzwggvibufclwf.jpg,,,,,,,,,,,,,,,
323,28,Memory,6,,,,,,,00987960627fa.jpg,,,,,,,,,,,,,,,
324,28,Memory,6,,,,,,,00753941201fa.jpg,,,,,,,,,,,,,,,
325,28,Memory,6,,,,,,,00741941201fa.jpg,,,,,,,,,,,,,,,
326,28,Memory,6,,,,,,,sunaipyohrqlwngaqif.jpg,,,,,,,,,,,,,,,
327,28,Memory,6,,,,,,,00124931230fa.jpg,,,,,,,,,,,,,,,
328,28,Memory,6,,,,,,,sunapileznnbbmrwoei.jpg,,,,,,,,,,,,,,,
329,28,Memory,6,,,,,,,sunacerqowiaeoqkmsq.jpg,,,,,,,,,,,,,,,
330,28,Memory,6,,,,,,,00630941031fa.jpg,,,,,,,,,,,,,,,
331,28,Memory,6,,,,,,,00723941201fa.jpg,,,,,,,,,,,,,,,
332,28,Memory,6,,,,,,,00915960620fa.jpg,,,,,,,,,,,,,,,
333,28,Memory,6,,,,,,,sunaedtgwjvvziytspa.jpg,,,,,,,,,,,,,,,
334,28,Memory,6,,,,,,,sunafcofuuzebuadceo.jpg,,,,,,,,,,,,,,,
335,28,Memory,6,,,,,,,sunajbwkywmsqkldfml.jpg,,,,,,,,,,,,,,,
336,28,Memory,6,,,,,,,00061931230fb.jpg,,,,,,,,,,,,,,,
337,28,Memory,6,,,,,,,00163931230fb.jpg,,,,,,,,,,,,,,,
338,28,Memory,6,,,,,,,sunaavodbcpygkggnfp.jpg,,,,,,,,,,,,,,,
339,28,Memory,6,,,,,,,sunaaekxzjzrfgtkwjf.jpg,,,,,,,,,,,,,,,
340,28,Memory,6,,,,,,,00984960627fa.jpg,,,,,,,,,,,,,,,
341,28,Memory,6,,,,,,,sunbxzweleltykebgan.jpg,,,,,,,,,,,,,,,
342,28,Memory,6,,,,,,,sunacacflqoyxhsqzhe.jpg,,,,,,,,,,,,,,,
343,28,Memory,6,,,,,,,sunaqbmgkgqucajzrkp.jpg,,,,,,,,,,,,,,,
344,28,Memory,6,,,,,,,sunapqkpqdfvxlbqwyo.jpg,,,,,,,,,,,,,,,
345,28,Memory,6,,,,,,,00795941205fa.jpg,,,,,,,,,,,,,,,
346,28,Memory,6,,,,,,,00935960627fa.jpg,,,,,,,,,,,,,,,
347,28,Memory,6,,,,,,,sunbbfqwjpdxniyhies.jpg,,,,,,,,,,,,,,,
348,28,Memory,6,,,,,,,sunbloeoiozwjjsiamp.jpg,,,,,,,,,,,,,,,
349,28,Memory,6,,,,,,,00866940307fa.jpg,,,,,,,,,,,,,,,
350,28,Presentation,7,00906960530fa_sunantryfbloeaomfta.jpg,00158931230fb_sunaavchcbptaerhcfy.jpg,,,,,,,<,Face,,,,,1,,,,,,,x
351,28,Presentation,7,00958960627fa_sunavspxmxubqaeidjt.jpg,00827940307fa_sunahtfxgsrmkiulnwk.jpg,,,,,,,<,Place,,,,,1,,,,,,,o
352,28,Presentation,7,00112931230fa_sunaakjaacuzulqckgl.jpg,00914960620fa_sunaozisvwfbmlkfhzv.jpg,,,,,,,>,Face,,,,,1,,,,,,,o
353,28,Presentation,7,00306940422fa_sunabueyoajufbkraki.jpg,00198940128fb_sunaazezcsunmhttzxz.jpg,,,,,,,<,Face,,,,,1,,,,,,,x
354,28,Presentation,7,00096931230fa_sunaaiqiqcggrskoqgy.jpg,00130931230fa_sunaamvxnvouicstkjb.jpg,,,,,,,>,Place,,,,,1,,,,,,,o
355,28,Presentation,7,00999960627fa_sunbvbrvgbpanfrawft.jpg,00719941201fa_sunadvithllcgmfxsrn.jpg,,,,,,,>,Face,,,,,0,,,,,,,x
356,28,Presentation,7,00276940422fa_sunabmytpyhsgigllxu.jpg,00728941205fa_sunaejnvnpltdmhbcsi.jpg,,,,,,,>,Place,,,,,1,,,,,,,o
357,28,Presentation,7,00242940128fa_sunabcuurugvxwparpk.jpg,00080931230fb_sunaafjszryxyavjzln.jpg,,,,,,,<,Face,,,,,1,,,,,,,o
358,28,Presentation,7,00834940307fa_sunaibnpvhkdpdnzcnz.jpg,00787960620fa_sunagoufulkpsxrmklt.jpg,,,,,,,>,Place,,,,,1,,,,,,,o
359,28,Presentation,7,00675941121fa_sunadoxcchtmsxewsau.jpg,00154931230fa_sunaauueuhhvklldjik.jpg,,,,,,,<,Place,,,,,1,,,,,,,x
360,28,Memory,7,,,,,,,00631940928fa.jpg,,,,,,,,,,,,,,,
361,28,Memory,7,,,,,,,sunaafjszryxyavjzln.jpg,,,,,,,,,,,,,,,
362,28,Memory,7,,,,,,,sunagutjvdvnhxejerz.jpg,,,,,,,,,,,,,,,
363,28,Memory,7,,,,,,,sunahiphsekjihkafsl.jpg,,,,,,,,,,,,,,,
364,28,Memory,7,,,,,,,sunanainkqdvktzoxyl.jpg,,,,,,,,,,,,,,,
365,28,Memory,7,,,,,,,00306940422fa.jpg,,,,,,,,,,,,,,,
366,28,Memory,7,,,,,,,00810941205fa.jpg,,,,,,,,,,,,,,,
367,28,Memory,7,,,,,,,sunaaiqiqcggrskoqgy.jpg,,,,,,,,,,,,,,,
368,28,Memory,7,,,,,,,sunabueyoajufbkraki.jpg,,,,,,,,,,,,,,,
369,28,Memory,7,,,,,,,sunaivflshbyfrfzhqb.jpg,,,,,,,,,,,,,,,
370,28,Memory,7,,,,,,,sunaduslxfzlbxlllnz.jpg,,,,,,,,,,,,,,,
371,28,Memory,7,,,,,,,sunaakjaacuzulqckgl.jpg,,,,,,,,,,,,,,,
372,28,Memory,7,,,,,,,sunadvithllcgmfxsrn.jpg,,,,,,,,,,,,,,,
373,28,Memory,7,,,,,,,00903960620fa.jpg,,,,,,,,,,,,,,,
374,28,Memory,7,,,,,,,00999960627fa.jpg,,,,,,,,,,,,,,,
375,28,Memory,7,,,,,,,00154931230fa.jpg,,,,,,,,,,,,,,,
376,28,Memory,7,,,,,,,00112931230fa.jpg,,,,,,,,,,,,,,,
377,28,Memory,7,,,,,,,00914960620fa.jpg,,,,,,,,,,,,,,,
378,28,Memory,7,,,,,,,00815941205fa.jpg,,,,,,,,,,,,,,,
379,28,Memory,7,,,,,,,00851940307fa.jpg,,,,,,,,,,,,,,,
380,28,Memory,7,,,,,,,sunadbdqzigzwipuipr.jpg,,,,,,,,,,,,,,,
381,28,Memory,7,,,,,,,00080931230fb.jpg,,,,,,,,,,,,,,,
382,28,Memory,7,,,,,,,sunaozisvwfbmlkfhzv.jpg,,,,,,,,,,,,,,,
383,28,Memory,7,,,,,,,00096931230fa.jpg,,,,,,,,,,,,,,,
384,28,Memory,7,,,,,,,sunbvbrvgbpanfrawft.jpg,,,,,,,,,,,,,,,
385,28,Memory,7,,,,,,,00787941205fa.jpg,,,,,,,,,,,,,,,
386,28,Memory,7,,,,,,,sunaanjcbzdvtvblsdy.jpg,,,,,,,,,,,,,,,
387,28,Memory,7,,,,,,,00728941205fa.jpg,,,,,,,,,,,,,,,
388,28,Memory,7,,,,,,,sunagmwxxwymwojbvgi.jpg,,,,,,,,,,,,,,,
389,28,Memory,7,,,,,,,sunaejnvnpltdmhbcsi.jpg,,,,,,,,,,,,,,,
390,28,Memory,7,,,,,,,sunabmytpyhsgigllxu.jpg,,,,,,,,,,,,,,,
391,28,Memory,7,,,,,,,00799941205fa.jpg,,,,,,,,,,,,,,,
392,28,Memory,7,,,,,,,00719941201fa.jpg,,,,,,,,,,,,,,,
393,28,Memory,7,,,,,,,00746941201fa.jpg,,,,,,,,,,,,,,,
394,28,Memory,7,,,,,,,00276940422fa.jpg,,,,,,,,,,,,,,,
395,28,Memory,7,,,,,,,sunahctntqrunhdxhtb.jpg,,,,,,,,,,,,,,,
396,28,Memory,7,,,,,,,00705960530fa.jpg,,,,,,,,,,,,,,,
397,28,Memory,7,,,,,,,00132931230fb.jpg,,,,,,,,,,,,,,,
398,28,Memory,7,,,,,,,sunaetydippjxikifsb.jpg,,,,,,,,,,,,,,,
399,28,Memory,7,,,,,,,sunaauueuhhvklldjik.jpg,,,,,,,,,,,,,,,
