,Subject,Trial Type,Run,Cued Composite,Uncued Composite,Cued Face,Cued Place,Uncued Face,Uncued Place,Memory Image,Category,Cued Side,Cued Category,Attention Reaction Time (s),Familiarity Reaction Time (s),Familiarity Rating,Attention Level,Cue Validity,Post Invalid Cue,Pre Invalid Cue,Attention Button,Rating History,Stimulus Onset,Stimulus End,Attention Probe
110,20,Memory,2,,,,,,,00482940519fa.jpg,,,,,1.518,3.0,,,,,,,1539534590.41101,1539534592.811518,
111,20,Memory,2,,,,,,,sunaaeowapdkwzqpgqr.jpg,,,,,1.72,1.0,,,,,,,1539534594.211564,1539534596.612634,
112,20,Memory,2,,,,,,,00950960627fa.jpg,,,,,0.0,,,,,,,,1539534597.964179,1539534600.385265,
113,20,Memory,2,,,,,,,sunafvtpfczkzopbgue.jpg,,,,,1.434,3.0,,,,,,,1539534601.848286,1539534604.165411,
114,20,Memory,2,,,,,,,00750941201fa.jpg,,,,,1.319,2.0,,,,,,,1539534605.649455,1539534608.267815,
115,20,Memory,2,,,,,,,00791941205fa.jpg,,,,,1.687,3.0,,,,,,,1539534609.850213,1539534612.18481,
116,20,Memory,2,,,,,,,sunagrmyoovzukhxmlo.jpg,,,,,1.87,3.0,,,,,,,1539534613.668068,1539534616.269659,
117,20,Memory,2,,,,,,,00953960627fa.jpg,,,,,1.252,2.0,,,,,,,1539534617.63663,1539534620.136134,
118,20,Memory,2,,,,,,,sunanmoqeyprjjjfxjt.jpg,,,,,1.936,2.0,,,,,,,1539534621.554418,1539534623.938681,
119,20,Memory,2,,,,,,,00874940307fa.jpg,,,,,1.638,1.0,,,,,,,1539534625.372327,1539534627.922795,
120,20,Memory,2,,,,,,,sunacuatpqpqhyjhjqk.jpg,,,,,1.136,4.0,,,,,,,1539534629.341236,1539534631.840791,
121,20,Memory,2,,,,,,,sunajtrfunvzdfticna.jpg,,,,,2.088,2.0,,,,,,,1539534633.224758,1539534635.659026,
122,20,Memory,2,,,,,,,sunaauhozyxzeeqstxi.jpg,,,,,1.236,4.0,,,,,,,1539534637.076184,1539534639.509857,
123,20,Memory,2,,,,,,,00548940519fa.jpg,,,,,1.603,2.0,,,,,,,1539534641.111427,1539534643.511294,
124,20,Memory,2,,,,,,,sunachtuarilwyqnvjx.jpg,,,,,1.305,3.0,,,,,,,1539534644.912195,1539534647.379622,
125,20,Memory,2,,,,,,,sunahmhrncocyhsjpxk.jpg,,,,,2.138,2.0,,,,,,,1539534648.77983,1539534651.264691,
126,20,Memory,2,,,,,,,00774941201fa.jpg,,,,,1.553,1.0,,,,,,,1539534652.580936,1539534654.981723,
127,20,Memory,2,,,,,,,00860940307fa.jpg,,,,,1.82,1.0,,,,,,,1539534656.399798,1539534658.916123,
128,20,Memory,2,,,,,,,sunatstrpjxhvtbaczf.jpg,,,,,1.753,2.0,,,,,,,1539534660.433944,1539534662.868397,
129,20,Memory,2,,,,,,,00905960530fa.jpg,,,,,1.653,2.0,,,,,,,1539534664.218498,1539534666.585713,
130,20,Memory,2,,,,,,,00571940928fa.jpg,,,,,1.487,3.0,,,,,,,1539534667.969634,1539534670.386407,
131,20,Memory,2,,,,,,,sunasrjlmglmjzbmqxb.jpg,,,,,1.686,4.0,,,,,,,1539534671.936914,1539534674.421052,
132,20,Memory,2,,,,,,,00910960530fa.jpg,,,,,1.539,2.0,,,,,,,1539534676.022221,1539534678.640024,
133,20,Memory,2,,,,,,,00069931230fb.jpg,,,,,2.102,2.0,,,,,,,1539534680.074377,1539534682.373542,
134,20,Memory,2,,,,,,,00153931230fa.jpg,,,,,1.735,1.0,,,,,,,1539534683.791297,1539534686.35879,
135,20,Memory,2,,,,,,,sunaeuzwggvibufclwf.jpg,,,,,1.117,1.0,,,,,,,1539534687.776874,1539534690.159016,
136,20,Memory,2,,,,,,,00816941205fa.jpg,,,,,1.851,2.0,,,,,,,1539534691.610744,1539534693.894661,
137,20,Memory,2,,,,,,,00914960620fa.jpg,,,,,1.238,1.0,,,,,,,1539534695.360932,1539534697.796049,
138,20,Memory,2,,,,,,,00557940519fa.jpg,,,,,1.987,2.0,,,,,,,1539534699.329154,1539534701.713801,
139,20,Memory,2,,,,,,,sunaozisvwfbmlkfhzv.jpg,,,,,2.12,3.0,,,,,,,1539534703.215504,1539534705.6814,
140,20,Memory,2,,,,,,,00723941201fa.jpg,,,,,1.687,2.0,,,,,,,1539534707.114584,1539534709.498844,
141,20,Memory,2,,,,,,,sunbprywzqxjcezkbch.jpg,,,,,1.704,3.0,,,,,,,1539534710.900771,1539534713.234096,
142,20,Memory,2,,,,,,,sunaofikylqtxphvdem.jpg,,,,,1.388,1.0,,,,,,,1539534714.701258,1539534717.068972,
143,20,Memory,2,,,,,,,sunaedtgwjvvziytspa.jpg,,,,,1.42,2.0,,,,,,,1539534718.502411,1539534720.986221,
144,20,Memory,2,,,,,,,00093931230fa.jpg,,,,,1.119,1.0,,,,,,,1539534722.35293,1539534724.803716,
145,20,Memory,2,,,,,,,00993960627fa.jpg,,,,,1.017,1.0,,,,,,,1539534726.337979,1539534728.689637,
146,20,Memory,2,,,,,,,sunabyfxcxhdebvdyfd.jpg,,,,,1.404,2.0,,,,,,,1539534730.271305,1539534732.790749,
147,20,Memory,2,,,,,,,sunaahwnmtqsrhocysw.jpg,,,,,1.405,2.0,,,,,,,1539534734.273583,1539534736.625413,
148,20,Memory,2,,,,,,,sunacerqowiaeoqkmsq.jpg,,,,,1.717,3.0,,,,,,,1539534738.025167,1539534740.392554,
149,20,Memory,2,,,,,,,sunaizeyhvjzknwjudw.jpg,,,,,1.219,1.0,,,,,,,1539534741.777443,1539534744.277582,
