,Subject,Trial Type,Run,Cued Composite,Uncued Composite,Cued Face,Cued Place,Uncued Face,Uncued Place,Memory Image,Category,Cued Side,Cued Category,Attention Reaction Time (s),Familiarity Reaction Time (s),Familiarity Rating,Attention Level,Cue Validity,Post Invalid Cue,Pre Invalid Cue,Attention Button,Rating History,Stimulus Onset,Stimulus End,Attention Probe
0,8,Presentation,0,00774941201fa_sunafvtpfczkzopbgue.jpg,00807941205fa_sunahawfngukizslzsd.jpg,00774941201fa.jpg,sunafvtpfczkzopbgue.jpg,00807941205fa.jpg,sunahawfngukizslzsd.jpg,,,>,Face,,,,,1,,,,,,,o
1,8,Presentation,0,00564940928fa_sunacmpqqfbsvlzinzl.jpg,01007960627fa_sunbxarcshsnqsefemx.jpg,00564940928fa.jpg,sunacmpqqfbsvlzinzl.jpg,01007960627fa.jpg,sunbxarcshsnqsefemx.jpg,,,>,Face,,,,,1,,,,,,,o
2,8,Presentation,0,00898960530fa_sunamkmeblgteyggink.jpg,00069931230fb_sunaaeowapdkwzqpgqr.jpg,00898960530fa.jpg,sunamkmeblgteyggink.jpg,00069931230fb.jpg,sunaaeowapdkwzqpgqr.jpg,,,>,Face,,,,,1,,,,,,,x
3,8,Presentation,0,00140931230fb_sunaapllqyqlykszopd.jpg,00529940519fa_sunacbeefkxpymwevpk.jpg,00140931230fb.jpg,sunaapllqyqlykszopd.jpg,00529940519fa.jpg,sunacbeefkxpymwevpk.jpg,,,>,Face,,,,,1,,,,,,,x
4,8,Presentation,0,00568940928fa_sunacsdhbbsybcyxnel.jpg,00070940307fa_sunaaeplwsfslcbtojr.jpg,00568940928fa.jpg,sunacsdhbbsybcyxnel.jpg,00070940307fa.jpg,sunaaeplwsfslcbtojr.jpg,,,>,Face,,,,,1,,,,,,,o
5,8,Presentation,0,00149931230fa_sunaauglwmctnkxyird.jpg,00860940307fa_sunaizeyhvjzknwjudw.jpg,00149931230fa.jpg,sunaauglwmctnkxyird.jpg,00860940307fa.jpg,sunaizeyhvjzknwjudw.jpg,,,>,Face,,,,,1,,,,,,,x
6,8,Presentation,0,00663941121fa_sunadnjjzohjhbohlwq.jpg,00638941031fa_sunadfktsqjthoglcsm.jpg,00663941121fa.jpg,sunadnjjzohjhbohlwq.jpg,00638941031fa.jpg,sunadfktsqjthoglcsm.jpg,,,>,Face,,,,,1,,,,,,,o
7,8,Presentation,0,00124931230fa_sunaalhlvzmjmitybdn.jpg,00727941205fa_sunaeisnjeetzmkbuad.jpg,00124931230fa.jpg,sunaalhlvzmjmitybdn.jpg,00727941205fa.jpg,sunaeisnjeetzmkbuad.jpg,,,>,Face,,,,,1,,,,,,,x
8,8,Presentation,0,00967960627fa_sunbaejotfklekvpxcz.jpg,00892960530fa_sunalntxqqadigcletd.jpg,00967960627fa.jpg,sunbaejotfklekvpxcz.jpg,00892960530fa.jpg,sunalntxqqadigcletd.jpg,,,>,Face,,,,,1,,,,,,,o
9,8,Presentation,0,00776941205fa_sunafxokyavhgptyfye.jpg,00112931230fa_sunaakjaacuzulqckgl.jpg,00776941205fa.jpg,sunafxokyavhgptyfye.jpg,00112931230fa.jpg,sunaakjaacuzulqckgl.jpg,,,>,Face,,,,,1,,,,,,,o
10,8,Memory,0,,,,,,,00112931230fa.jpg,,,,,,,,,,,,,,,
11,8,Memory,0,,,,,,,00776941205fa.jpg,,,,,,,,,,,,,,,
12,8,Memory,0,,,,,,,sunamkmeblgteyggink.jpg,,,,,,,,,,,,,,,
13,8,Memory,0,,,,,,,00882960530fa.jpg,,,,,,,,,,,,,,,
14,8,Memory,0,,,,,,,sunapqwnqzxlsfvgsjm.jpg,,,,,,,,,,,,,,,
15,8,Memory,0,,,,,,,sunabbwggenhfbftyvi.jpg,,,,,,,,,,,,,,,
16,8,Memory,0,,,,,,,sunaauglwmctnkxyird.jpg,,,,,,,,,,,,,,,
17,8,Memory,0,,,,,,,sunaknlirqjqiwbbeeg.jpg,,,,,,,,,,,,,,,
18,8,Memory,0,,,,,,,00727941205fa.jpg,,,,,,,,,,,,,,,
19,8,Memory,0,,,,,,,sunabmbnddafmywtjjj.jpg,,,,,,,,,,,,,,,
20,8,Memory,0,,,,,,,00581940928fa.jpg,,,,,,,,,,,,,,,
21,8,Memory,0,,,,,,,00271940422fa.jpg,,,,,,,,,,,,,,,
22,8,Memory,0,,,,,,,sunaaeowapdkwzqpgqr.jpg,,,,,,,,,,,,,,,
23,8,Memory,0,,,,,,,sunaaeplwsfslcbtojr.jpg,,,,,,,,,,,,,,,
24,8,Memory,0,,,,,,,00124931230fa.jpg,,,,,,,,,,,,,,,
25,8,Memory,0,,,,,,,sunahawfngukizslzsd.jpg,,,,,,,,,,,,,,,
26,8,Memory,0,,,,,,,00218940128fa.jpg,,,,,,,,,,,,,,,
27,8,Memory,0,,,,,,,sunafgzgbisbopcyslr.jpg,,,,,,,,,,,,,,,
28,8,Memory,0,,,,,,,00149931230fa.jpg,,,,,,,,,,,,,,,
29,8,Memory,0,,,,,,,sunacmpqqfbsvlzinzl.jpg,,,,,,,,,,,,,,,
30,8,Memory,0,,,,,,,00898960530fa.jpg,,,,,,,,,,,,,,,
31,8,Memory,0,,,,,,,sunaalhlvzmjmitybdn.jpg,,,,,,,,,,,,,,,
32,8,Memory,0,,,,,,,sunaafewhewbxmjiurz.jpg,,,,,,,,,,,,,,,
33,8,Memory,0,,,,,,,00564940928fa.jpg,,,,,,,,,,,,,,,
34,8,Memory,0,,,,,,,sunaakjaacuzulqckgl.jpg,,,,,,,,,,,,,,,
35,8,Memory,0,,,,,,,00070940307fa.jpg,,,,,,,,,,,,,,,
36,8,Memory,0,,,,,,,sunafxokyavhgptyfye.jpg,,,,,,,,,,,,,,,
37,8,Memory,0,,,,,,,sunaeisnjeetzmkbuad.jpg,,,,,,,,,,,,,,,
38,8,Memory,0,,,,,,,00069931230fb.jpg,,,,,,,,,,,,,,,
39,8,Memory,0,,,,,,,sunaanlwnpqndclffxt.jpg,,,,,,,,,,,,,,,
40,8,Memory,0,,,,,,,sunacvzhvcksnwqcqbw.jpg,,,,,,,,,,,,,,,
41,8,Memory,0,,,,,,,sunaflojskatpeqyzqp.jpg,,,,,,,,,,,,,,,
42,8,Memory,0,,,,,,,00762941201fa.jpg,,,,,,,,,,,,,,,
43,8,Memory,0,,,,,,,00133931230fa.jpg,,,,,,,,,,,,,,,
44,8,Memory,0,,,,,,,00770941201fa.jpg,,,,,,,,,,,,,,,
45,8,Memory,0,,,,,,,00828940307fa.jpg,,,,,,,,,,,,,,,
46,8,Memory,0,,,,,,,00807941205fa.jpg,,,,,,,,,,,,,,,
47,8,Memory,0,,,,,,,sunahuynahneraqftyz.jpg,,,,,,,,,,,,,,,
48,8,Memory,0,,,,,,,00925960627fa.jpg,,,,,,,,,,,,,,,
49,8,Memory,0,,,,,,,00076931230fa.jpg,,,,,,,,,,,,,,,
50,8,Presentation,1,00725941201fa_sunaefgzwiramypjvtd.jpg,00264940128fb_sunabjzyxcjnmztdonj.jpg,00725941201fa.jpg,sunaefgzwiramypjvtd.jpg,00264940128fb.jpg,sunabjzyxcjnmztdonj.jpg,,,<,Face,,,,,1,,,,,,,x
51,8,Presentation,1,00773941201fa_sunafvcflzhlqloapyo.jpg,00162931230fb_sunaavjinpnkappuonm.jpg,00773941201fa.jpg,sunafvcflzhlqloapyo.jpg,00162931230fb.jpg,sunaavjinpnkappuonm.jpg,,,<,Face,,,,,0,,,,,,,x
52,8,Presentation,1,00676941121fa_sunadpnqovzckyikrjo.jpg,00819940307fa_sunahqldjibofgsfdgb.jpg,00676941121fa.jpg,sunadpnqovzckyikrjo.jpg,00819940307fa.jpg,sunahqldjibofgsfdgb.jpg,,,<,Face,,,,,0,,,,,,,x
53,8,Presentation,1,00481940519fa_sunabxsuqbleluwczoy.jpg,00784941205fb_sunagjzcrjvmxzqzljx.jpg,00481940519fa.jpg,sunabxsuqbleluwczoy.jpg,00784941205fb.jpg,sunagjzcrjvmxzqzljx.jpg,,,<,Face,,,,,1,,,,,,,x
54,8,Presentation,1,00126931230fb_sunaamdjwemxpmmtypi.jpg,00871940307_sunajrujcsdxmfbssmc.jpg,00126931230fb.jpg,sunaamdjwemxpmmtypi.jpg,00871940307.jpg,sunajrujcsdxmfbssmc.jpg,,,<,Face,,,,,1,,,,,,,x
55,8,Presentation,1,00743941201fa_sunaeoghzrjarigmwua.jpg,00061931230fb_sunaaekxzjzrfgtkwjf.jpg,00743941201fa.jpg,sunaeoghzrjarigmwua.jpg,00061931230fb.jpg,sunaaekxzjzrfgtkwjf.jpg,,,<,Face,,,,,0,,,,,,,o
56,8,Presentation,1,00938960627fa_sunaqyylsngywqzwfmx.jpg,00768941205fa_sunafkmnlytenlsywia.jpg,00938960627fa.jpg,sunaqyylsngywqzwfmx.jpg,00768941205fa.jpg,sunafkmnlytenlsywia.jpg,,,<,Face,,,,,1,,,,,,,x
57,8,Presentation,1,00098931230fa_sunaajpqmulidejvjsr.jpg,00071941031fa_sunaaexqbtdswxrqjvz.jpg,00098931230fa.jpg,sunaajpqmulidejvjsr.jpg,00071941031fa.jpg,sunaaexqbtdswxrqjvz.jpg,,,<,Face,,,,,1,,,,,,,o
58,8,Presentation,1,00891960530fa_sunalkiibhqpxfamlll.jpg,00129931230fb_sunaamsdyakblkfoydx.jpg,00891960530fa.jpg,sunalkiibhqpxfamlll.jpg,00129931230fb.jpg,sunaamsdyakblkfoydx.jpg,,,<,Face,,,,,1,,,,,,,o
59,8,Presentation,1,00507940519fa_sunacacflqoyxhsqzhe.jpg,00221940128fa_sunabcfpwlpolnutyju.jpg,00507940519fa.jpg,sunacacflqoyxhsqzhe.jpg,00221940128fa.jpg,sunabcfpwlpolnutyju.jpg,,,<,Face,,,,,1,,,,,,,x
60,8,Memory,1,,,,,,,00507940519fa.jpg,,,,,,,,,,,,,,,
61,8,Memory,1,,,,,,,00942960627fa.jpg,,,,,,,,,,,,,,,
62,8,Memory,1,,,,,,,sunadflbrkckmepztql.jpg,,,,,,,,,,,,,,,
63,8,Memory,1,,,,,,,00743941201fa.jpg,,,,,,,,,,,,,,,
64,8,Memory,1,,,,,,,00705941205fa.jpg,,,,,,,,,,,,,,,
65,8,Memory,1,,,,,,,00264940128fb.jpg,,,,,,,,,,,,,,,
66,8,Memory,1,,,,,,,00871940307.jpg,,,,,,,,,,,,,,,
67,8,Memory,1,,,,,,,sunacacflqoyxhsqzhe.jpg,,,,,,,,,,,,,,,
68,8,Memory,1,,,,,,,00127931230fa.jpg,,,,,,,,,,,,,,,
69,8,Memory,1,,,,,,,00773941201fa.jpg,,,,,,,,,,,,,,,
70,8,Memory,1,,,,,,,sunabxsuqbleluwczoy.jpg,,,,,,,,,,,,,,,
71,8,Memory,1,,,,,,,sunbddbivbptlrlauhy.jpg,,,,,,,,,,,,,,,
72,8,Memory,1,,,,,,,sunaqyylsngywqzwfmx.jpg,,,,,,,,,,,,,,,
73,8,Memory,1,,,,,,,00819940307fa.jpg,,,,,,,,,,,,,,,
74,8,Memory,1,,,,,,,00985960627fa.jpg,,,,,,,,,,,,,,,
75,8,Memory,1,,,,,,,sunajrujcsdxmfbssmc.jpg,,,,,,,,,,,,,,,
76,8,Memory,1,,,,,,,00221940128fa.jpg,,,,,,,,,,,,,,,
77,8,Memory,1,,,,,,,sunabjzyxcjnmztdonj.jpg,,,,,,,,,,,,,,,
78,8,Memory,1,,,,,,,sunaydywdmvlfddbxbk.jpg,,,,,,,,,,,,,,,
79,8,Memory,1,,,,,,,sunabcfpwlpolnutyju.jpg,,,,,,,,,,,,,,,
80,8,Memory,1,,,,,,,00481940519fa.jpg,,,,,,,,,,,,,,,
81,8,Memory,1,,,,,,,sunarfdklgdnjgeqfjg.jpg,,,,,,,,,,,,,,,
82,8,Memory,1,,,,,,,sunagjzcrjvmxzqzljx.jpg,,,,,,,,,,,,,,,
83,8,Memory,1,,,,,,,00796941205fa.jpg,,,,,,,,,,,,,,,
84,8,Memory,1,,,,,,,00929960627fa.jpg,,,,,,,,,,,,,,,
85,8,Memory,1,,,,,,,sunaprnrbmgkomdbchr.jpg,,,,,,,,,,,,,,,
86,8,Memory,1,,,,,,,00938960627fa.jpg,,,,,,,,,,,,,,,
87,8,Memory,1,,,,,,,00784941205fb.jpg,,,,,,,,,,,,,,,
88,8,Memory,1,,,,,,,sunaeoghzrjarigmwua.jpg,,,,,,,,,,,,,,,
89,8,Memory,1,,,,,,,sunadtlxenqqxsyjvix.jpg,,,,,,,,,,,,,,,
90,8,Memory,1,,,,,,,00978960627fa.jpg,,,,,,,,,,,,,,,
91,8,Memory,1,,,,,,,sunahqldjibofgsfdgb.jpg,,,,,,,,,,,,,,,
92,8,Memory,1,,,,,,,sunaampvucecsfbdafn.jpg,,,,,,,,,,,,,,,
93,8,Memory,1,,,,,,,sunaafynehyrzpsoaml.jpg,,,,,,,,,,,,,,,
94,8,Memory,1,,,,,,,00086931230fa.jpg,,,,,,,,,,,,,,,
95,8,Memory,1,,,,,,,sunafvcflzhlqloapyo.jpg,,,,,,,,,,,,,,,
96,8,Memory,1,,,,,,,00965960627fa.jpg,,,,,,,,,,,,,,,
97,8,Memory,1,,,,,,,sunbgklxeqjhdbyfhhy.jpg,,,,,,,,,,,,,,,
98,8,Memory,1,,,,,,,sunaguchqqnrtodtezq.jpg,,,,,,,,,,,,,,,
99,8,Memory,1,,,,,,,00647941031fa.jpg,,,,,,,,,,,,,,,
100,8,Presentation,2,00876960620fa_sunajwqkfsykceonyig.jpg,00571940928fa_sunacuatpqpqhyjhjqk.jpg,00876960620fa.jpg,sunajwqkfsykceonyig.jpg,00571940928fa.jpg,sunacuatpqpqhyjhjqk.jpg,,,>,Place,,,,,1,,,,,,,o
101,8,Presentation,2,00108960530fa_sunaajtnvzzpsjdzres.jpg,00986960627fa_sunbgzjryivyczuvkvm.jpg,00108960530fa.jpg,sunaajtnvzzpsjdzres.jpg,00986960627fa.jpg,sunbgzjryivyczuvkvm.jpg,,,>,Place,,,,,1,,,,,,,o
102,8,Presentation,2,00308940422fb_sunabwfvcqqidycwypa.jpg,00753941201fa_sunafcofuuzebuadceo.jpg,00308940422fb.jpg,sunabwfvcqqidycwypa.jpg,00753941201fa.jpg,sunafcofuuzebuadceo.jpg,,,>,Place,,,,,1,,,,,,,x
103,8,Presentation,2,00874940307fa_sunajtrfunvzdfticna.jpg,00302940422fa_sunabtlfmiwtljmoues.jpg,00874940307fa.jpg,sunajtrfunvzdfticna.jpg,00302940422fa.jpg,sunabtlfmiwtljmoues.jpg,,,>,Place,,,,,1,,,,,,,o
104,8,Presentation,2,00983960627fa_sunbfyvfqiimvdaxlqn.jpg,00862940307fa_sunaizgnnplsvajzhkc.jpg,00983960627fa.jpg,sunbfyvfqiimvdaxlqn.jpg,00862940307fa.jpg,sunaizgnnplsvajzhkc.jpg,,,>,Place,,,,,1,,,,,,,o
105,8,Presentation,2,00812941205fa_sunahgtbwgsmtqeodwh.jpg,00775941205fa_sunafvwfsmqkjrutjta.jpg,00812941205fa.jpg,sunahgtbwgsmtqeodwh.jpg,00775941205fa.jpg,sunafvwfsmqkjrutjta.jpg,,,>,Place,,,,,0,,,,,,,o
106,8,Presentation,2,00987960627fa_sunbloeoiozwjjsiamp.jpg,00227940128fa_sunabckqabszusgcykj.jpg,00987960627fa.jpg,sunbloeoiozwjjsiamp.jpg,00227940128fa.jpg,sunabckqabszusgcykj.jpg,,,>,Place,,,,,1,,,,,,,x
107,8,Presentation,2,00803941205fa_sunagvxkjokqimstxpe.jpg,00787941205fa_sunagmwxxwymwojbvgi.jpg,00803941205fa.jpg,sunagvxkjokqimstxpe.jpg,00787941205fa.jpg,sunagmwxxwymwojbvgi.jpg,,,>,Place,,,,,0,,,,,,,o
108,8,Presentation,2,00102931230fa_sunaajspcoepticvplv.jpg,00901960530fa_sunammbnoambmhdxdwd.jpg,00102931230fa.jpg,sunaajspcoepticvplv.jpg,00901960530fa.jpg,sunammbnoambmhdxdwd.jpg,,,>,Place,,,,,1,,,,,,,x
109,8,Presentation,2,00950960627fa_sunasrjlmglmjzbmqxb.jpg,00859940307fa_sunaiycurtqsfkvcaso.jpg,00950960627fa.jpg,sunasrjlmglmjzbmqxb.jpg,00859940307fa.jpg,sunaiycurtqsfkvcaso.jpg,,,>,Place,,,,,1,,,,,,,o
110,8,Memory,2,,,,,,,sunaatjesvdupctftmn.jpg,,,,,,,,,,,,,,,
111,8,Memory,2,,,,,,,00302940422fa.jpg,,,,,,,,,,,,,,,
112,8,Memory,2,,,,,,,00805941205fa.jpg,,,,,,,,,,,,,,,
113,8,Memory,2,,,,,,,00902960530fa.jpg,,,,,,,,,,,,,,,
114,8,Memory,2,,,,,,,00950960627fa.jpg,,,,,,,,,,,,,,,
115,8,Memory,2,,,,,,,sunammbnoambmhdxdwd.jpg,,,,,,,,,,,,,,,
116,8,Memory,2,,,,,,,00142931230fb.jpg,,,,,,,,,,,,,,,
117,8,Memory,2,,,,,,,sunajtrfunvzdfticna.jpg,,,,,,,,,,,,,,,
118,8,Memory,2,,,,,,,sunaekgzpfilgjxpeyq.jpg,,,,,,,,,,,,,,,
119,8,Memory,2,,,,,,,00803941205fa.jpg,,,,,,,,,,,,,,,
120,8,Memory,2,,,,,,,sunafcofuuzebuadceo.jpg,,,,,,,,,,,,,,,
121,8,Memory,2,,,,,,,sunasrjlmglmjzbmqxb.jpg,,,,,,,,,,,,,,,
122,8,Memory,2,,,,,,,sunaajtnvzzpsjdzres.jpg,,,,,,,,,,,,,,,
123,8,Memory,2,,,,,,,00812941205fa.jpg,,,,,,,,,,,,,,,
124,8,Memory,2,,,,,,,00753941201fa.jpg,,,,,,,,,,,,,,,
125,8,Memory,2,,,,,,,00108960530fa.jpg,,,,,,,,,,,,,,,
126,8,Memory,2,,,,,,,sunaooffzffbhcpirmm.jpg,,,,,,,,,,,,,,,
127,8,Memory,2,,,,,,,00874940307fa.jpg,,,,,,,,,,,,,,,
128,8,Memory,2,,,,,,,sunagjeesomrwjsfqie.jpg,,,,,,,,,,,,,,,
129,8,Memory,2,,,,,,,00145931230fb.jpg,,,,,,,,,,,,,,,
130,8,Memory,2,,,,,,,sunahgtbwgsmtqeodwh.jpg,,,,,,,,,,,,,,,
131,8,Memory,2,,,,,,,sunabtlfmiwtljmoues.jpg,,,,,,,,,,,,,,,
132,8,Memory,2,,,,,,,sunbgzjryivyczuvkvm.jpg,,,,,,,,,,,,,,,
133,8,Memory,2,,,,,,,00997960627fa.jpg,,,,,,,,,,,,,,,
134,8,Memory,2,,,,,,,sunaapxkpvrhpjplsok.jpg,,,,,,,,,,,,,,,
135,8,Memory,2,,,,,,,sunagwzdbtlixdhgolm.jpg,,,,,,,,,,,,,,,
136,8,Memory,2,,,,,,,sunbtpilbhhbmhmeuzq.jpg,,,,,,,,,,,,,,,
137,8,Memory,2,,,,,,,00783941205fa.jpg,,,,,,,,,,,,,,,
138,8,Memory,2,,,,,,,00598941031fa.jpg,,,,,,,,,,,,,,,
139,8,Memory,2,,,,,,,00730960620fa.jpg,,,,,,,,,,,,,,,
140,8,Memory,2,,,,,,,sunaizgnnplsvajzhkc.jpg,,,,,,,,,,,,,,,
141,8,Memory,2,,,,,,,00109931230fa.jpg,,,,,,,,,,,,,,,
142,8,Memory,2,,,,,,,00862940307fa.jpg,,,,,,,,,,,,,,,
143,8,Memory,2,,,,,,,sunaajuzribjrizdshh.jpg,,,,,,,,,,,,,,,
144,8,Memory,2,,,,,,,sunagvxkjokqimstxpe.jpg,,,,,,,,,,,,,,,
145,8,Memory,2,,,,,,,sunacxtcahkymosigud.jpg,,,,,,,,,,,,,,,
146,8,Memory,2,,,,,,,00986960627fa.jpg,,,,,,,,,,,,,,,
147,8,Memory,2,,,,,,,00901960530fa.jpg,,,,,,,,,,,,,,,
148,8,Memory,2,,,,,,,00913960530fa.jpg,,,,,,,,,,,,,,,
149,8,Memory,2,,,,,,,sunanaacmmosxrfwmvl.jpg,,,,,,,,,,,,,,,
150,8,Presentation,3,00984960627fa_sunbfzchmomnvzhbxdg.jpg,00185940422fb_sunaawqdbpihmlbwyyn.jpg,00984960627fa.jpg,sunbfzchmomnvzhbxdg.jpg,00185940422fb.jpg,sunaawqdbpihmlbwyyn.jpg,,,>,Place,,,,,1,,,,,,,o
151,8,Presentation,3,00847940307fa_sunaivdjruhkrfywfed.jpg,00763941205fa_sunafhmnhsdurlvddpw.jpg,00847940307fa.jpg,sunaivdjruhkrfywfed.jpg,00763941205fa.jpg,sunafhmnhsdurlvddpw.jpg,,,>,Place,,,,,1,,,,,,,o
152,8,Presentation,3,00792941205fa_sunagsiwrmuixqgdimb.jpg,00835940307fa_sunaijsqpvodplbwxkf.jpg,00792941205fa.jpg,sunagsiwrmuixqgdimb.jpg,00835940307fa.jpg,sunaijsqpvodplbwxkf.jpg,,,>,Place,,,,,1,,,,,,,x
153,8,Presentation,3,00096931230fa_sunaaiqiqcggrskoqgy.jpg,00971960627fa_sunbbegcweqnetpdlrh.jpg,00096931230fa.jpg,sunaaiqiqcggrskoqgy.jpg,00971960627fa.jpg,sunbbegcweqnetpdlrh.jpg,,,>,Place,,,,,1,,,,,,,x
154,8,Presentation,3,00132931230fb_sunaanjcbzdvtvblsdy.jpg,00894960620fa_sunalqmfgeadpqsyzpd.jpg,00132931230fb.jpg,sunaanjcbzdvtvblsdy.jpg,00894960620fa.jpg,sunalqmfgeadpqsyzpd.jpg,,,>,Place,,,,,1,,,,,,,x
155,8,Presentation,3,01010960627fa_suncnkvbhypnivcohyx.jpg,00723941201fa_sunaedtgwjvvziytspa.jpg,01010960627fa.jpg,suncnkvbhypnivcohyx.jpg,00723941201fa.jpg,sunaedtgwjvvziytspa.jpg,,,>,Place,,,,,1,,,,,,,x
156,8,Presentation,3,00793941205fa_sunagtjwilqjvxohypn.jpg,00540940519fa_sunacdnquypmsshhsbk.jpg,00793941205fa.jpg,sunagtjwilqjvxohypn.jpg,00540940519fa.jpg,sunacdnquypmsshhsbk.jpg,,,>,Place,,,,,1,,,,,,,o
157,8,Presentation,3,00741941201fa_sunaemcowdozyphwknd.jpg,00801941205fa_sunagvprlbprarvgdvj.jpg,00741941201fa.jpg,sunaemcowdozyphwknd.jpg,00801941205fa.jpg,sunagvprlbprarvgdvj.jpg,,,>,Place,,,,,1,,,,,,,x
158,8,Presentation,3,00146960620fb_sunaatpeezlljqaxlhj.jpg,00921960627fa_sunapqkpqdfvxlbqwyo.jpg,00146960620fb.jpg,sunaatpeezlljqaxlhj.jpg,00921960627fa.jpg,sunapqkpqdfvxlbqwyo.jpg,,,>,Place,,,,,1,,,,,,,x
159,8,Presentation,3,00857940307fa_sunaiwfobocrruqznsv.jpg,00694941121fa_sunadrmfzmstgdjdcod.jpg,00857940307fa.jpg,sunaiwfobocrruqznsv.jpg,00694941121fa.jpg,sunadrmfzmstgdjdcod.jpg,,,>,Place,,,,,1,,,,,,,x
160,8,Memory,3,,,,,,,00894960620fa.jpg,,,,,,,,,,,,,,,
161,8,Memory,3,,,,,,,sunafhmnhsdurlvddpw.jpg,,,,,,,,,,,,,,,
162,8,Memory,3,,,,,,,00292940422fb.jpg,,,,,,,,,,,,,,,
163,8,Memory,3,,,,,,,sunasbbntuiheekqyaq.jpg,,,,,,,,,,,,,,,
164,8,Memory,3,,,,,,,00792941205fa.jpg,,,,,,,,,,,,,,,
165,8,Memory,3,,,,,,,01004960627fa.jpg,,,,,,,,,,,,,,,
166,8,Memory,3,,,,,,,00971960627fa.jpg,,,,,,,,,,,,,,,
167,8,Memory,3,,,,,,,00132931230fb.jpg,,,,,,,,,,,,,,,
168,8,Memory,3,,,,,,,00976960627fa.jpg,,,,,,,,,,,,,,,
169,8,Memory,3,,,,,,,sunbvzmgrdvaakxusbu.jpg,,,,,,,,,,,,,,,
170,8,Memory,3,,,,,,,00675941121fa.jpg,,,,,,,,,,,,,,,
171,8,Memory,3,,,,,,,sunaiwfobocrruqznsv.jpg,,,,,,,,,,,,,,,
172,8,Memory,3,,,,,,,00893960530Fa.jpg,,,,,,,,,,,,,,,
173,8,Memory,3,,,,,,,00944960627fa.jpg,,,,,,,,,,,,,,,
174,8,Memory,3,,,,,,,sunabrjdpmoedcdjbpo.jpg,,,,,,,,,,,,,,,
175,8,Memory,3,,,,,,,00857940307fa.jpg,,,,,,,,,,,,,,,
176,8,Memory,3,,,,,,,00120931230fa.jpg,,,,,,,,,,,,,,,
177,8,Memory,3,,,,,,,00749941201fa.jpg,,,,,,,,,,,,,,,
178,8,Memory,3,,,,,,,sunalqmfgeadpqsyzpd.jpg,,,,,,,,,,,,,,,
179,8,Memory,3,,,,,,,sunapqwoeotxshkukbh.jpg,,,,,,,,,,,,,,,
180,8,Memory,3,,,,,,,00835940307fa.jpg,,,,,,,,,,,,,,,
181,8,Memory,3,,,,,,,sunbfzchmomnvzhbxdg.jpg,,,,,,,,,,,,,,,
182,8,Memory,3,,,,,,,sunaloffvbvysigxent.jpg,,,,,,,,,,,,,,,
183,8,Memory,3,,,,,,,00540940519fa.jpg,,,,,,,,,,,,,,,
184,8,Memory,3,,,,,,,00146960620fb.jpg,,,,,,,,,,,,,,,
185,8,Memory,3,,,,,,,sunagsiwrmuixqgdimb.jpg,,,,,,,,,,,,,,,
186,8,Memory,3,,,,,,,00984960627fa.jpg,,,,,,,,,,,,,,,
187,8,Memory,3,,,,,,,sunaijsqpvodplbwxkf.jpg,,,,,,,,,,,,,,,
188,8,Memory,3,,,,,,,00763941205fa.jpg,,,,,,,,,,,,,,,
189,8,Memory,3,,,,,,,sunbwtlihsuptkrckid.jpg,,,,,,,,,,,,,,,
190,8,Memory,3,,,,,,,sunaanjcbzdvtvblsdy.jpg,,,,,,,,,,,,,,,
191,8,Memory,3,,,,,,,sunacdnquypmsshhsbk.jpg,,,,,,,,,,,,,,,
192,8,Memory,3,,,,,,,sunaatpeezlljqaxlhj.jpg,,,,,,,,,,,,,,,
193,8,Memory,3,,,,,,,01000960627fa.jpg,,,,,,,,,,,,,,,
194,8,Memory,3,,,,,,,sunadoxcchtmsxewsau.jpg,,,,,,,,,,,,,,,
195,8,Memory,3,,,,,,,00926960627Fa.jpg,,,,,,,,,,,,,,,
196,8,Memory,3,,,,,,,sunaeuvjbmdpknaqqaj.jpg,,,,,,,,,,,,,,,
197,8,Memory,3,,,,,,,sunbbhqyyzmsxhsbjmp.jpg,,,,,,,,,,,,,,,
198,8,Memory,3,,,,,,,sunbbegcweqnetpdlrh.jpg,,,,,,,,,,,,,,,
199,8,Memory,3,,,,,,,sunaakxgygjfqrzpyoz.jpg,,,,,,,,,,,,,,,
200,8,Presentation,4,01005960627fa_sunbwyuesflwdpqtgoy.jpg,00794960620fa_sunagtqhhwxjeuxdebe.jpg,01005960627fa.jpg,sunbwyuesflwdpqtgoy.jpg,00794960620fa.jpg,sunagtqhhwxjeuxdebe.jpg,,,<,Place,,,,,1,,,,,,,o
201,8,Presentation,4,00943960627fa_sunarpsxqkduedrrzyi.jpg,00754941201fa_sunaffgsyyvoqdlkmnk.jpg,00943960627fa.jpg,sunarpsxqkduedrrzyi.jpg,00754941201fa.jpg,sunaffgsyyvoqdlkmnk.jpg,,,<,Place,,,,,1,,,,,,,o
202,8,Presentation,4,00316940422fa_sunabxmguapjekttvwm.jpg,00505960627fa_sunabzuqsrgcsonqlkz.jpg,00316940422fa.jpg,sunabxmguapjekttvwm.jpg,00505960627fa.jpg,sunabzuqsrgcsonqlkz.jpg,,,<,Place,,,,,1,,,,,,,x
203,8,Presentation,4,00864940307fa_sunajawzbrlrwafowen.jpg,00825940307fa_sunahrltmuwbiehihpe.jpg,00864940307fa.jpg,sunajawzbrlrwafowen.jpg,00825940307fa.jpg,sunahrltmuwbiehihpe.jpg,,,<,Place,,,,,0,,,,,,,o
204,8,Presentation,4,00130931230fa_sunaamvxnvouicstkjb.jpg,00851940307fa_sunaivflshbyfrfzhqb.jpg,00130931230fa.jpg,sunaamvxnvouicstkjb.jpg,00851940307fa.jpg,sunaivflshbyfrfzhqb.jpg,,,<,Place,,,,,1,,,,,,,x
205,8,Presentation,4,00989960627fa_sunbondbduabvijnmch.jpg,00922960627fa_sunapqkyghktgtosuuk.jpg,00989960627fa.jpg,sunbondbduabvijnmch.jpg,00922960627fa.jpg,sunapqkyghktgtosuuk.jpg,,,<,Place,,,,,1,,,,,,,o
206,8,Presentation,4,01003960627fb_sunbwdrdvsweerwsdrj.jpg,00936960627fa_sunaqgjuuwvdcyiccjt.jpg,01003960627fb.jpg,sunbwdrdvsweerwsdrj.jpg,00936960627fa.jpg,sunaqgjuuwvdcyiccjt.jpg,,,<,Place,,,,,1,,,,,,,o
207,8,Presentation,4,00747941201fa_sunaeutbrtswvsozxyk.jpg,00239940128fa_sunabctlikybqabezjv.jpg,00747941201fa.jpg,sunaeutbrtswvsozxyk.jpg,00239940128fa.jpg,sunabctlikybqabezjv.jpg,,,<,Place,,,,,1,,,,,,,x
208,8,Presentation,4,00620940928fa_sunacypmnujalygkunp.jpg,00766960620fa_sunafijbgncijwykrnl.jpg,00620940928fa.jpg,sunacypmnujalygkunp.jpg,00766960620fa.jpg,sunafijbgncijwykrnl.jpg,,,<,Place,,,,,1,,,,,,,x
209,8,Presentation,4,00779941205fa_sunagdzlvkqtpnfxfcg.jpg,00961960627fa_sunawotxrevnqvamsfp.jpg,00779941205fa.jpg,sunagdzlvkqtpnfxfcg.jpg,00961960627fa.jpg,sunawotxrevnqvamsfp.jpg,,,<,Place,,,,,1,,,,,,,x
210,8,Memory,4,,,,,,,sunajawzbrlrwafowen.jpg,,,,,,,,,,,,,,,
211,8,Memory,4,,,,,,,sunabxmguapjekttvwm.jpg,,,,,,,,,,,,,,,
212,8,Memory,4,,,,,,,sunacjkmnpawfzbyvae.jpg,,,,,,,,,,,,,,,
213,8,Memory,4,,,,,,,sunajxpkuhbizeveguy.jpg,,,,,,,,,,,,,,,
214,8,Memory,4,,,,,,,00745941205fa.jpg,,,,,,,,,,,,,,,
215,8,Memory,4,,,,,,,00868960307fa.jpg,,,,,,,,,,,,,,,
216,8,Memory,4,,,,,,,00851940307fa.jpg,,,,,,,,,,,,,,,
217,8,Memory,4,,,,,,,sunacypmnujalygkunp.jpg,,,,,,,,,,,,,,,
218,8,Memory,4,,,,,,,00779941205fa.jpg,,,,,,,,,,,,,,,
219,8,Memory,4,,,,,,,00316940422fa.jpg,,,,,,,,,,,,,,,
220,8,Memory,4,,,,,,,sunbdycacjfaujxitbw.jpg,,,,,,,,,,,,,,,
221,8,Memory,4,,,,,,,00922960627fa.jpg,,,,,,,,,,,,,,,
222,8,Memory,4,,,,,,,00242940128fa.jpg,,,,,,,,,,,,,,,
223,8,Memory,4,,,,,,,00989960627fa.jpg,,,,,,,,,,,,,,,
224,8,Memory,4,,,,,,,sunaeouogqolxvggaoq.jpg,,,,,,,,,,,,,,,
225,8,Memory,4,,,,,,,00880960530fa.jpg,,,,,,,,,,,,,,,
226,8,Memory,4,,,,,,,sunabohxbskznglnrhv.jpg,,,,,,,,,,,,,,,
227,8,Memory,4,,,,,,,00505960627fa.jpg,,,,,,,,,,,,,,,
228,8,Memory,4,,,,,,,sunapqkyghktgtosuuk.jpg,,,,,,,,,,,,,,,
229,8,Memory,4,,,,,,,sunajjxttslobudoqbv.jpg,,,,,,,,,,,,,,,
230,8,Memory,4,,,,,,,sunawksfbacycuhbrsc.jpg,,,,,,,,,,,,,,,
231,8,Memory,4,,,,,,,00620940928fa.jpg,,,,,,,,,,,,,,,
232,8,Memory,4,,,,,,,00979960627fa.jpg,,,,,,,,,,,,,,,
233,8,Memory,4,,,,,,,00877960530fa.jpg,,,,,,,,,,,,,,,
234,8,Memory,4,,,,,,,sunahrltmuwbiehihpe.jpg,,,,,,,,,,,,,,,
235,8,Memory,4,,,,,,,00804960530fa.jpg,,,,,,,,,,,,,,,
236,8,Memory,4,,,,,,,00559940519fa.jpg,,,,,,,,,,,,,,,
237,8,Memory,4,,,,,,,sunagtqhhwxjeuxdebe.jpg,,,,,,,,,,,,,,,
238,8,Memory,4,,,,,,,sunaivflshbyfrfzhqb.jpg,,,,,,,,,,,,,,,
239,8,Memory,4,,,,,,,sunabzuqsrgcsonqlkz.jpg,,,,,,,,,,,,,,,
240,8,Memory,4,,,,,,,00960960627fa.jpg,,,,,,,,,,,,,,,
241,8,Memory,4,,,,,,,sunagwswhkvnsmuszlz.jpg,,,,,,,,,,,,,,,
242,8,Memory,4,,,,,,,sunakmnfgklupjijsgf.jpg,,,,,,,,,,,,,,,
243,8,Memory,4,,,,,,,00280940422fb.jpg,,,,,,,,,,,,,,,
244,8,Memory,4,,,,,,,sunabcuurugvxwparpk.jpg,,,,,,,,,,,,,,,
245,8,Memory,4,,,,,,,sunagdzlvkqtpnfxfcg.jpg,,,,,,,,,,,,,,,
246,8,Memory,4,,,,,,,00825940307fa.jpg,,,,,,,,,,,,,,,
247,8,Memory,4,,,,,,,sunbondbduabvijnmch.jpg,,,,,,,,,,,,,,,
248,8,Memory,4,,,,,,,00864940307fa.jpg,,,,,,,,,,,,,,,
249,8,Memory,4,,,,,,,00794960620fa.jpg,,,,,,,,,,,,,,,
250,8,Presentation,5,00903960620fa_sunanainkqdvktzoxyl.jpg,00742941201fa_sunaenwuebvlpdmntju.jpg,00903960620fa.jpg,sunanainkqdvktzoxyl.jpg,00742941201fa.jpg,sunaenwuebvlpdmntju.jpg,,,>,Face,,,,,1,,,,,,,o
251,8,Presentation,5,00909960530_sunaobtizabegtwfwul.jpg,00197940128fa_sunaaylzyqlqrsmfwif.jpg,00909960530.jpg,sunaobtizabegtwfwul.jpg,00197940128fa.jpg,sunaaylzyqlqrsmfwif.jpg,,,>,Face,,,,,1,,,,,,,o
252,8,Presentation,5,00267940128fb_sunablfqiwfqomjarht.jpg,00973960627fa_sunbbgtoeuzierkkajt.jpg,00267940128fb.jpg,sunablfqiwfqomjarht.jpg,00973960627fa.jpg,sunbbgtoeuzierkkajt.jpg,,,>,Face,,,,,1,,,,,,,x
253,8,Presentation,5,00719941201fa_sunadvithllcgmfxsrn.jpg,00115931230fa_sunaakmxzhuceuiryah.jpg,00719941201fa.jpg,sunadvithllcgmfxsrn.jpg,00115931230fa.jpg,sunaakmxzhuceuiryah.jpg,,,>,Face,,,,,1,,,,,,,x
254,8,Presentation,5,00209940128fb_sunabaergayifsgacxt.jpg,00080931230fb_sunaafjszryxyavjzln.jpg,00209940128fb.jpg,sunabaergayifsgacxt.jpg,00080931230fb.jpg,sunaafjszryxyavjzln.jpg,,,>,Face,,,,,0,,,,,,,x
255,8,Presentation,5,00970960627fa_sunbasypfgzjtomktmu.jpg,00071940128fa_sunaaexpnawiehinlpy.jpg,00970960627fa.jpg,sunbasypfgzjtomktmu.jpg,00071940128fa.jpg,sunaaexpnawiehinlpy.jpg,,,>,Face,,,,,0,,,,,,,o
256,8,Presentation,5,00719960620fa_sunadzuvtmtmgupotmf.jpg,00532960627fa_sunaccdtpgenvcbcbcf.jpg,00719960620fa.jpg,sunadzuvtmtmgupotmf.jpg,00532960627fa.jpg,sunaccdtpgenvcbcbcf.jpg,,,>,Face,,,,,1,,,,,,,o
257,8,Presentation,5,00136931230fb_sunaanptmsknhirrzed.jpg,00752960620fa_sunafbwnojpqeyzssoe.jpg,00136931230fb.jpg,sunaanptmsknhirrzed.jpg,00752960620fa.jpg,sunafbwnojpqeyzssoe.jpg,,,>,Face,,,,,1,,,,,,,x
258,8,Presentation,5,00785941205fa_sunaglqunwuycxydmyu.jpg,00829940307fa_sunahwgbqkqcrwprgvh.jpg,00785941205fa.jpg,sunaglqunwuycxydmyu.jpg,00829940307fa.jpg,sunahwgbqkqcrwprgvh.jpg,,,>,Face,,,,,1,,,,,,,o
259,8,Presentation,5,00214940128fa_sunabbafjowbzcvbucc.jpg,00787960620fa_sunagoufulkpsxrmklt.jpg,00214940128fa.jpg,sunabbafjowbzcvbucc.jpg,00787960620fa.jpg,sunagoufulkpsxrmklt.jpg,,,>,Face,,,,,1,,,,,,,o
260,8,Memory,5,,,,,,,00750941201fa.jpg,,,,,,,,,,,,,,,
261,8,Memory,5,,,,,,,00111931230fb.jpg,,,,,,,,,,,,,,,
262,8,Memory,5,,,,,,,00780960530fa.jpg,,,,,,,,,,,,,,,
263,8,Memory,5,,,,,,,sunabbafjowbzcvbucc.jpg,,,,,,,,,,,,,,,
264,8,Memory,5,,,,,,,sunaaylzyqlqrsmfwif.jpg,,,,,,,,,,,,,,,
265,8,Memory,5,,,,,,,sunaanptmsknhirrzed.jpg,,,,,,,,,,,,,,,
266,8,Memory,5,,,,,,,00532960627fa.jpg,,,,,,,,,,,,,,,
267,8,Memory,5,,,,,,,sunaobtizabegtwfwul.jpg,,,,,,,,,,,,,,,
268,8,Memory,5,,,,,,,sunaeuzwggvibufclwf.jpg,,,,,,,,,,,,,,,
269,8,Memory,5,,,,,,,00681941121fa.jpg,,,,,,,,,,,,,,,
270,8,Memory,5,,,,,,,sunafvsxtzaizojicxx.jpg,,,,,,,,,,,,,,,
271,8,Memory,5,,,,,,,sunaccdtpgenvcbcbcf.jpg,,,,,,,,,,,,,,,
272,8,Memory,5,,,,,,,sunaglqunwuycxydmyu.jpg,,,,,,,,,,,,,,,
273,8,Memory,5,,,,,,,00752960620fa.jpg,,,,,,,,,,,,,,,
274,8,Memory,5,,,,,,,00773960620fa.jpg,,,,,,,,,,,,,,,
275,8,Memory,5,,,,,,,00799941205fa.jpg,,,,,,,,,,,,,,,
276,8,Memory,5,,,,,,,sunadqmjrhfjyuzyvdd.jpg,,,,,,,,,,,,,,,
277,8,Memory,5,,,,,,,00909960530.jpg,,,,,,,,,,,,,,,
278,8,Memory,5,,,,,,,00214940128fa.jpg,,,,,,,,,,,,,,,
279,8,Memory,5,,,,,,,00115931230fa.jpg,,,,,,,,,,,,,,,
280,8,Memory,5,,,,,,,00787960620fa.jpg,,,,,,,,,,,,,,,
281,8,Memory,5,,,,,,,sunaalltyvjhbzhkmvg.jpg,,,,,,,,,,,,,,,
282,8,Memory,5,,,,,,,sunagetqixeypsysbpn.jpg,,,,,,,,,,,,,,,
283,8,Memory,5,,,,,,,sunaaelyvurpntclgau.jpg,,,,,,,,,,,,,,,
284,8,Memory,5,,,,,,,sunafbwnojpqeyzssoe.jpg,,,,,,,,,,,,,,,
285,8,Memory,5,,,,,,,sunbaoizrfijvhpnnjn.jpg,,,,,,,,,,,,,,,
286,8,Memory,5,,,,,,,sunaletopenvvozhpxc.jpg,,,,,,,,,,,,,,,
287,8,Memory,5,,,,,,,00197940128fa.jpg,,,,,,,,,,,,,,,
288,8,Memory,5,,,,,,,sunaakmxzhuceuiryah.jpg,,,,,,,,,,,,,,,
289,8,Memory,5,,,,,,,sunadvithllcgmfxsrn.jpg,,,,,,,,,,,,,,,
290,8,Memory,5,,,,,,,00889960530fa.jpg,,,,,,,,,,,,,,,
291,8,Memory,5,,,,,,,00136931230fb.jpg,,,,,,,,,,,,,,,
292,8,Memory,5,,,,,,,sunaakgekhjklxmvulj.jpg,,,,,,,,,,,,,,,
293,8,Memory,5,,,,,,,sunagutjvdvnhxejerz.jpg,,,,,,,,,,,,,,,
294,8,Memory,5,,,,,,,00969960627fa.jpg,,,,,,,,,,,,,,,
295,8,Memory,5,,,,,,,00125931230fa.jpg,,,,,,,,,,,,,,,
296,8,Memory,5,,,,,,,00785941205fa.jpg,,,,,,,,,,,,,,,
297,8,Memory,5,,,,,,,00719941201fa.jpg,,,,,,,,,,,,,,,
298,8,Memory,5,,,,,,,00063931230fa.jpg,,,,,,,,,,,,,,,
299,8,Memory,5,,,,,,,sunagoufulkpsxrmklt.jpg,,,,,,,,,,,,,,,
300,8,Presentation,6,00153931230fa_sunaauhozyxzeeqstxi.jpg,00093931230fa_sunaahwnmtqsrhocysw.jpg,00153931230fa.jpg,sunaauhozyxzeeqstxi.jpg,00093931230fa.jpg,sunaahwnmtqsrhocysw.jpg,,,<,Place,,,,,1,,,,,,,x
301,8,Presentation,6,00574940928fa_sunacvbrcejzwmcgnoq.jpg,00790941205fa_sunagpjzsbltchlwvou.jpg,00574940928fa.jpg,sunacvbrcejzwmcgnoq.jpg,00790941205fa.jpg,sunagpjzsbltchlwvou.jpg,,,<,Place,,,,,1,,,,,,,x
302,8,Presentation,6,00786941205fa_sunagmhildamktmqjss.jpg,00564941031fa_sunacsaovnjezqwbykf.jpg,00786941205fa.jpg,sunagmhildamktmqjss.jpg,00564941031fa.jpg,sunacsaovnjezqwbykf.jpg,,,<,Place,,,,,1,,,,,,,o
303,8,Presentation,6,00720960620fa_sunaecpkgfewqqreqwe.jpg,00839940307fa_sunaipyohrqlwngaqif.jpg,00720960620fa.jpg,sunaecpkgfewqqreqwe.jpg,00839940307fa.jpg,sunaipyohrqlwngaqif.jpg,,,<,Place,,,,,1,,,,,,,o
304,8,Presentation,6,00482940519fa_sunabyfxcxhdebvdyfd.jpg,00184940128fa_sunaavtbadenwnzeutj.jpg,00482940519fa.jpg,sunabyfxcxhdebvdyfd.jpg,00184940128fa.jpg,sunaavtbadenwnzeutj.jpg,,,<,Place,,,,,1,,,,,,,o
305,8,Presentation,6,00670941121fa_sunadochqcucscehsgk.jpg,00290940422fa_sunabqowuarvqqcnipn.jpg,00670941121fa.jpg,sunadochqcucscehsgk.jpg,00290940422fa.jpg,sunabqowuarvqqcnipn.jpg,,,<,Place,,,,,1,,,,,,,o
306,8,Presentation,6,00557940519fa_sunachtuarilwyqnvjx.jpg,00260940128fa_sunabgfhvifeijihhjw.jpg,00557940519fa.jpg,sunachtuarilwyqnvjx.jpg,00260940128fa.jpg,sunabgfhvifeijihhjw.jpg,,,<,Place,,,,,1,,,,,,,x
307,8,Presentation,6,00858940307fa_sunaixpqndlwhwjtjek.jpg,00815941205fa_sunahiphsekjihkafsl.jpg,00858940307fa.jpg,sunaixpqndlwhwjtjek.jpg,00815941205fa.jpg,sunahiphsekjihkafsl.jpg,,,<,Place,,,,,1,,,,,,,o
308,8,Presentation,6,00869940307fa_sunajoveqhiprwqgoco.jpg,00947960627fa_sunasmmcxdddtmtazwx.jpg,00869940307fa.jpg,sunajoveqhiprwqgoco.jpg,00947960627fa.jpg,sunasmmcxdddtmtazwx.jpg,,,<,Place,,,,,1,,,,,,,x
309,8,Presentation,6,00158931230fb_sunaavchcbptaerhcfy.jpg,00990960627fa_sunbpflsdaxnddnwcqi.jpg,00158931230fb.jpg,sunaavchcbptaerhcfy.jpg,00990960627fa.jpg,sunbpflsdaxnddnwcqi.jpg,,,<,Place,,,,,1,,,,,,,x
310,8,Memory,6,,,,,,,00290940422fa.jpg,,,,,,,,,,,,,,,
311,8,Memory,6,,,,,,,00081941031fa.jpg,,,,,,,,,,,,,,,
312,8,Memory,6,,,,,,,00760960620fa.jpg,,,,,,,,,,,,,,,
313,8,Memory,6,,,,,,,sunaipyohrqlwngaqif.jpg,,,,,,,,,,,,,,,
314,8,Memory,6,,,,,,,sunachtuarilwyqnvjx.jpg,,,,,,,,,,,,,,,
315,8,Memory,6,,,,,,,sunacsaovnjezqwbykf.jpg,,,,,,,,,,,,,,,
316,8,Memory,6,,,,,,,00972960627fa.jpg,,,,,,,,,,,,,,,
317,8,Memory,6,,,,,,,sunaaelotvjgibjtjhs.jpg,,,,,,,,,,,,,,,
318,8,Memory,6,,,,,,,sunaathajvxrgptwhoj.jpg,,,,,,,,,,,,,,,
319,8,Memory,6,,,,,,,00144931230fb.jpg,,,,,,,,,,,,,,,
320,8,Memory,6,,,,,,,sunatstrpjxhvtbaczf.jpg,,,,,,,,,,,,,,,
321,8,Memory,6,,,,,,,sunagpjzsbltchlwvou.jpg,,,,,,,,,,,,,,,
322,8,Memory,6,,,,,,,sunaaftlyfudyzuhqzf.jpg,,,,,,,,,,,,,,,
323,8,Memory,6,,,,,,,00953960627fa.jpg,,,,,,,,,,,,,,,
324,8,Memory,6,,,,,,,sunaauhozyxzeeqstxi.jpg,,,,,,,,,,,,,,,
325,8,Memory,6,,,,,,,00564941031fa.jpg,,,,,,,,,,,,,,,
326,8,Memory,6,,,,,,,00818940307fa.jpg,,,,,,,,,,,,,,,
327,8,Memory,6,,,,,,,00858940307fa.jpg,,,,,,,,,,,,,,,
328,8,Memory,6,,,,,,,00839940307fa.jpg,,,,,,,,,,,,,,,
329,8,Memory,6,,,,,,,00790941205fa.jpg,,,,,,,,,,,,,,,
330,8,Memory,6,,,,,,,sunbbfqwjpdxniyhies.jpg,,,,,,,,,,,,,,,
331,8,Memory,6,,,,,,,sunagmhildamktmqjss.jpg,,,,,,,,,,,,,,,
332,8,Memory,6,,,,,,,sunabrwnslxalcohfre.jpg,,,,,,,,,,,,,,,
333,8,Memory,6,,,,,,,sunahpblecxtmuzkmxb.jpg,,,,,,,,,,,,,,,
334,8,Memory,6,,,,,,,00786941205fa.jpg,,,,,,,,,,,,,,,
335,8,Memory,6,,,,,,,00093931230fa.jpg,,,,,,,,,,,,,,,
336,8,Memory,6,,,,,,,sunacepzfrmtkiqonpy.jpg,,,,,,,,,,,,,,,
337,8,Memory,6,,,,,,,00158931230fb.jpg,,,,,,,,,,,,,,,
338,8,Memory,6,,,,,,,sunaavchcbptaerhcfy.jpg,,,,,,,,,,,,,,,
339,8,Memory,6,,,,,,,sunaffstbkappprzxnv.jpg,,,,,,,,,,,,,,,
340,8,Memory,6,,,,,,,00062931230fb.jpg,,,,,,,,,,,,,,,
341,8,Memory,6,,,,,,,sunabqowuarvqqcnipn.jpg,,,,,,,,,,,,,,,
342,8,Memory,6,,,,,,,sunaahwnmtqsrhocysw.jpg,,,,,,,,,,,,,,,
343,8,Memory,6,,,,,,,00296940422fa.jpg,,,,,,,,,,,,,,,
344,8,Memory,6,,,,,,,00557940519fa.jpg,,,,,,,,,,,,,,,
345,8,Memory,6,,,,,,,sunaixpqndlwhwjtjek.jpg,,,,,,,,,,,,,,,
346,8,Memory,6,,,,,,,00153931230fa.jpg,,,,,,,,,,,,,,,
347,8,Memory,6,,,,,,,sunaofikylqtxphvdem.jpg,,,,,,,,,,,,,,,
348,8,Memory,6,,,,,,,00910960530fa.jpg,,,,,,,,,,,,,,,
349,8,Memory,6,,,,,,,00543940519fa.jpg,,,,,,,,,,,,,,,
350,8,Presentation,7,01009960627fa_sunbxzweleltykebgan.jpg,00797960620fa_sunagufzbeteqdjxais.jpg,01009960627fa.jpg,sunbxzweleltykebgan.jpg,00797960620fa.jpg,sunagufzbeteqdjxais.jpg,,,<,Face,,,,,1,,,,,,,x
351,8,Presentation,7,00933960627fa_sunapwjkcxdaeqehfql.jpg,00123931230fb_sunaalcrrdbjgdztbiz.jpg,00933960627fa.jpg,sunapwjkcxdaeqehfql.jpg,00123931230fb.jpg,sunaalcrrdbjgdztbiz.jpg,,,<,Face,,,,,1,,,,,,,x
352,8,Presentation,7,00194940128fb_sunaayehfdqcyxggsej.jpg,00811960530fa_sunahedfrhtcwpneund.jpg,00194940128fb.jpg,sunaayehfdqcyxggsej.jpg,00811960530fa.jpg,sunahedfrhtcwpneund.jpg,,,<,Face,,,,,1,,,,,,,o
353,8,Presentation,7,00834940307fa_sunaibnpvhkdpdnzcnz.jpg,00097931230fa_sunaajayojuslbbnneg.jpg,00834940307fa.jpg,sunaibnpvhkdpdnzcnz.jpg,00097931230fa.jpg,sunaajayojuslbbnneg.jpg,,,<,Face,,,,,1,,,,,,,x
354,8,Presentation,7,00788941205fa_sunagountlxpzkytsmp.jpg,00884960530fa_sunakodkcslgqhqlgwl.jpg,00788941205fa.jpg,sunagountlxpzkytsmp.jpg,00884960530fa.jpg,sunakodkcslgqhqlgwl.jpg,,,<,Face,,,,,1,,,,,,,o
355,8,Presentation,7,00154931230fa_sunaauueuhhvklldjik.jpg,00270940422fb_sunabllobxadqcyttej.jpg,00154931230fa.jpg,sunaauueuhhvklldjik.jpg,00270940422fb.jpg,sunabllobxadqcyttej.jpg,,,<,Face,,,,,1,,,,,,,o
356,8,Presentation,7,00077931230fb_sunaafgqutfaishsxyu.jpg,00266940128fb_sunabkngeblodihjvbk.jpg,00077931230fb.jpg,sunaafgqutfaishsxyu.jpg,00266940128fb.jpg,sunabkngeblodihjvbk.jpg,,,<,Face,,,,,1,,,,,,,o
357,8,Presentation,7,00848940307fa_sunaivdylrawbmhryfp.jpg,00914960620fa_sunaozisvwfbmlkfhzv.jpg,00848940307fa.jpg,sunaivdylrawbmhryfp.jpg,00914960620fa.jpg,sunaozisvwfbmlkfhzv.jpg,,,<,Face,,,,,1,,,,,,,x
358,8,Presentation,7,00966960627fa_sunaygrtwrwfezqjizr.jpg,00210940128fb_sunabanoxjtqxamkucc.jpg,00966960627fa.jpg,sunaygrtwrwfezqjizr.jpg,00210940128fb.jpg,sunabanoxjtqxamkucc.jpg,,,<,Face,,,,,1,,,,,,,o
359,8,Presentation,7,00816941205fa_sunahmhrncocyhsjpxk.jpg,00771941205fa_sunafowswglhxcsufpo.jpg,00816941205fa.jpg,sunahmhrncocyhsjpxk.jpg,00771941205fa.jpg,sunafowswglhxcsufpo.jpg,,,<,Face,,,,,1,,,,,,,x
360,8,Memory,7,,,,,,,sunaayehfdqcyxggsej.jpg,,,,,,,,,,,,,,,
361,8,Memory,7,,,,,,,00147931230fb.jpg,,,,,,,,,,,,,,,
362,8,Memory,7,,,,,,,00270940422fb.jpg,,,,,,,,,,,,,,,
363,8,Memory,7,,,,,,,sunahmhrncocyhsjpxk.jpg,,,,,,,,,,,,,,,
364,8,Memory,7,,,,,,,00795941205fa.jpg,,,,,,,,,,,,,,,
365,8,Memory,7,,,,,,,00977960627fa.jpg,,,,,,,,,,,,,,,
366,8,Memory,7,,,,,,,00210940128fb.jpg,,,,,,,,,,,,,,,
367,8,Memory,7,,,,,,,00194940128fb.jpg,,,,,,,,,,,,,,,
368,8,Memory,7,,,,,,,sunaalcrrdbjgdztbiz.jpg,,,,,,,,,,,,,,,
369,8,Memory,7,,,,,,,00816941205fa.jpg,,,,,,,,,,,,,,,
370,8,Memory,7,,,,,,,sunapwjkcxdaeqehfql.jpg,,,,,,,,,,,,,,,
371,8,Memory,7,,,,,,,sunabanoxjtqxamkucc.jpg,,,,,,,,,,,,,,,
372,8,Memory,7,,,,,,,sunajrgtewnualfcerj.jpg,,,,,,,,,,,,,,,
373,8,Memory,7,,,,,,,sunagtumacdlmciqamz.jpg,,,,,,,,,,,,,,,
374,8,Memory,7,,,,,,,sunacwggadqsfpovdjv.jpg,,,,,,,,,,,,,,,
375,8,Memory,7,,,,,,,00276940422fa.jpg,,,,,,,,,,,,,,,
376,8,Memory,7,,,,,,,00827940307fa.jpg,,,,,,,,,,,,,,,
377,8,Memory,7,,,,,,,sunahtfxgsrmkiulnwk.jpg,,,,,,,,,,,,,,,
378,8,Memory,7,,,,,,,00789960620fa.jpg,,,,,,,,,,,,,,,
379,8,Memory,7,,,,,,,00870940307fa.jpg,,,,,,,,,,,,,,,
380,8,Memory,7,,,,,,,sunadfndyrtqqiasoig.jpg,,,,,,,,,,,,,,,
381,8,Memory,7,,,,,,,00933960627fa.jpg,,,,,,,,,,,,,,,
382,8,Memory,7,,,,,,,00123931230fb.jpg,,,,,,,,,,,,,,,
383,8,Memory,7,,,,,,,sunaazzyhbvqjpmazjq.jpg,,,,,,,,,,,,,,,
384,8,Memory,7,,,,,,,00208940128fa.jpg,,,,,,,,,,,,,,,
385,8,Memory,7,,,,,,,00648941031fa.jpg,,,,,,,,,,,,,,,
386,8,Memory,7,,,,,,,sunabllobxadqcyttej.jpg,,,,,,,,,,,,,,,
387,8,Memory,7,,,,,,,sunaatpkocdkocwxpkb.jpg,,,,,,,,,,,,,,,
388,8,Memory,7,,,,,,,sunbbxkanhzjgbwyxqs.jpg,,,,,,,,,,,,,,,
389,8,Memory,7,,,,,,,sunagpancjmxqfazssf.jpg,,,,,,,,,,,,,,,
390,8,Memory,7,,,,,,,sunaygrtwrwfezqjizr.jpg,,,,,,,,,,,,,,,
391,8,Memory,7,,,,,,,00589940928fa.jpg,,,,,,,,,,,,,,,
392,8,Memory,7,,,,,,,00797960620fa.jpg,,,,,,,,,,,,,,,
393,8,Memory,7,,,,,,,sunaajayojuslbbnneg.jpg,,,,,,,,,,,,,,,
394,8,Memory,7,,,,,,,00966960627fa.jpg,,,,,,,,,,,,,,,
395,8,Memory,7,,,,,,,sunaibnpvhkdpdnzcnz.jpg,,,,,,,,,,,,,,,
396,8,Memory,7,,,,,,,00834940307fa.jpg,,,,,,,,,,,,,,,
397,8,Memory,7,,,,,,,sunagufzbeteqdjxais.jpg,,,,,,,,,,,,,,,
398,8,Memory,7,,,,,,,sunabmytpyhsgigllxu.jpg,,,,,,,,,,,,,,,
399,8,Memory,7,,,,,,,00097931230fa.jpg,,,,,,,,,,,,,,,
