,Subject,Trial Type,Run,Cued Composite,Uncued Composite,Cued Face,Cued Place,Uncued Face,Uncued Place,Memory Image,Category,Cued Side,Cued Category,Attention Response Time (s),Familiarity Reaction Time (s),Familiarity Rating,Attention Level,Cue Validity,Post Invalid Cue,Pre Invalid Cue,Attention Button,Rating History,Stimulus Onset,Stimulus End,Attention Probe
0,2,Presentation,0,00782941205fa_sunagfvluwixdsozaql.jpg,00773941201fa_sunafvcflzhlqloapyo.jpg,00782941205fa.jpg,sunagfvluwixdsozaql.jpg,00773941201fa.jpg,sunafvcflzhlqloapyo.jpg,,,<,Face,,,,,1,,,,,,,o
1,2,Presentation,0,00082931230fa_sunaafvitpexrpvumsa.jpg,00123931230fb_sunaalcrrdbjgdztbiz.jpg,00082931230fa.jpg,sunaafvitpexrpvumsa.jpg,00123931230fb.jpg,sunaalcrrdbjgdztbiz.jpg,,,<,Face,,,,,1,,,,,,,o
2,2,Presentation,0,00670941121fa_sunadochqcucscehsgk.jpg,00973960627fa_sunbbgtoeuzierkkajt.jpg,00670941121fa.jpg,sunadochqcucscehsgk.jpg,00973960627fa.jpg,sunbbgtoeuzierkkajt.jpg,,,<,Face,,,,,1,,,,,,,x
3,2,Presentation,0,00898960530fa_sunamkmeblgteyggink.jpg,00705960530fa_sunaduslxfzlbxlllnz.jpg,00898960530fa.jpg,sunamkmeblgteyggink.jpg,00705960530fa.jpg,sunaduslxfzlbxlllnz.jpg,,,<,Face,,,,,1,,,,,,,o
4,2,Presentation,0,00227940128fa_sunabckqabszusgcykj.jpg,00984960627fa_sunbfzchmomnvzhbxdg.jpg,00227940128fa.jpg,sunabckqabszusgcykj.jpg,00984960627fa.jpg,sunbfzchmomnvzhbxdg.jpg,,,<,Face,,,,,1,,,,,,,x
5,2,Presentation,0,00869940307fa_sunajoveqhiprwqgoco.jpg,00086931230fa_sunaafynehyrzpsoaml.jpg,00869940307fa.jpg,sunajoveqhiprwqgoco.jpg,00086931230fa.jpg,sunaafynehyrzpsoaml.jpg,,,<,Face,,,,,1,,,,,,,o
6,2,Presentation,0,00828940307fa_sunahuynahneraqftyz.jpg,00065931230fb_sunaaemixhfquhnxxlm.jpg,00828940307fa.jpg,sunahuynahneraqftyz.jpg,00065931230fb.jpg,sunaaemixhfquhnxxlm.jpg,,,<,Face,,,,,0,,,,,,,x
7,2,Presentation,0,00939960627fa_sunarceibpcyacbmfga.jpg,00142931230fb_sunaapxkpvrhpjplsok.jpg,00939960627fa.jpg,sunarceibpcyacbmfga.jpg,00142931230fb.jpg,sunaapxkpvrhpjplsok.jpg,,,<,Face,,,,,1,,,,,,,x
8,2,Presentation,0,01003960627fb_sunbwdrdvsweerwsdrj.jpg,00308940422fb_sunabwfvcqqidycwypa.jpg,01003960627fb.jpg,sunbwdrdvsweerwsdrj.jpg,00308940422fb.jpg,sunabwfvcqqidycwypa.jpg,,,<,Face,,,,,1,,,,,,,x
9,2,Presentation,0,00943960627fa_sunarpsxqkduedrrzyi.jpg,00797960620fa_sunagufzbeteqdjxais.jpg,00943960627fa.jpg,sunarpsxqkduedrrzyi.jpg,00797960620fa.jpg,sunagufzbeteqdjxais.jpg,,,<,Face,,,,,1,,,,,,,o
10,2,Memory,0,,,,,,,sunafvcflzhlqloapyo.jpg,,,,,,,,,,,,,,,
11,2,Memory,0,,,,,,,00227940128fa.jpg,,,,,,,,,,,,,,,
12,2,Memory,0,,,,,,,00142931230fb.jpg,,,,,,,,,,,,,,,
13,2,Memory,0,,,,,,,01005960627fa.jpg,,,,,,,,,,,,,,,
14,2,Memory,0,,,,,,,00869940307fa.jpg,,,,,,,,,,,,,,,
15,2,Memory,0,,,,,,,sunabckqabszusgcykj.jpg,,,,,,,,,,,,,,,
16,2,Memory,0,,,,,,,00898960530fa.jpg,,,,,,,,,,,,,,,
17,2,Memory,0,,,,,,,sunadkazmlajmohnwfl.jpg,,,,,,,,,,,,,,,
18,2,Memory,0,,,,,,,00662941121fa.jpg,,,,,,,,,,,,,,,
19,2,Memory,0,,,,,,,sunacacflqoyxhsqzhe.jpg,,,,,,,,,,,,,,,
20,2,Memory,0,,,,,,,00773941201fa.jpg,,,,,,,,,,,,,,,
21,2,Memory,0,,,,,,,sunarpsxqkduedrrzyi.jpg,,,,,,,,,,,,,,,
22,2,Memory,0,,,,,,,00909960530.jpg,,,,,,,,,,,,,,,
23,2,Memory,0,,,,,,,00797960620fa.jpg,,,,,,,,,,,,,,,
24,2,Memory,0,,,,,,,sunaeisnjeetzmkbuad.jpg,,,,,,,,,,,,,,,
25,2,Memory,0,,,,,,,sunadflbrkckmepztql.jpg,,,,,,,,,,,,,,,
26,2,Memory,0,,,,,,,00647941031fa.jpg,,,,,,,,,,,,,,,
27,2,Memory,0,,,,,,,sunbwyuesflwdpqtgoy.jpg,,,,,,,,,,,,,,,
28,2,Memory,0,,,,,,,00638941031fa.jpg,,,,,,,,,,,,,,,
29,2,Memory,0,,,,,,,00727941205fa.jpg,,,,,,,,,,,,,,,
30,2,Memory,0,,,,,,,00782941205fa.jpg,,,,,,,,,,,,,,,
31,2,Memory,0,,,,,,,sunamkmeblgteyggink.jpg,,,,,,,,,,,,,,,
32,2,Memory,0,,,,,,,00507940519fa.jpg,,,,,,,,,,,,,,,
33,2,Memory,0,,,,,,,00943960627fa.jpg,,,,,,,,,,,,,,,
34,2,Memory,0,,,,,,,sunabcfpwlpolnutyju.jpg,,,,,,,,,,,,,,,
35,2,Memory,0,,,,,,,sunagfvluwixdsozaql.jpg,,,,,,,,,,,,,,,
36,2,Memory,0,,,,,,,sunaobtizabegtwfwul.jpg,,,,,,,,,,,,,,,
37,2,Memory,0,,,,,,,sunbbgtoeuzierkkajt.jpg,,,,,,,,,,,,,,,
38,2,Memory,0,,,,,,,00221940128fa.jpg,,,,,,,,,,,,,,,
39,2,Memory,0,,,,,,,00973960627fa.jpg,,,,,,,,,,,,,,,
40,2,Memory,0,,,,,,,sunaizgnnplsvajzhkc.jpg,,,,,,,,,,,,,,,
41,2,Memory,0,,,,,,,sunajoveqhiprwqgoco.jpg,,,,,,,,,,,,,,,
42,2,Memory,0,,,,,,,sunagufzbeteqdjxais.jpg,,,,,,,,,,,,,,,
43,2,Memory,0,,,,,,,sunadfktsqjthoglcsm.jpg,,,,,,,,,,,,,,,
44,2,Memory,0,,,,,,,00086931230fa.jpg,,,,,,,,,,,,,,,
45,2,Memory,0,,,,,,,sunaqbmgkgqucajzrkp.jpg,,,,,,,,,,,,,,,
46,2,Memory,0,,,,,,,00862940307fa.jpg,,,,,,,,,,,,,,,
47,2,Memory,0,,,,,,,sunaafynehyrzpsoaml.jpg,,,,,,,,,,,,,,,
48,2,Memory,0,,,,,,,00935960627fa.jpg,,,,,,,,,,,,,,,
49,2,Memory,0,,,,,,,sunaapxkpvrhpjplsok.jpg,,,,,,,,,,,,,,,
50,2,Presentation,1,00138931230fa_sunaapfaivxqoynnwwp.jpg,00314940422fa_sunabwmcbaxwioksdgw.jpg,00138931230fa.jpg,sunaapfaivxqoynnwwp.jpg,00314940422fa.jpg,sunabwmcbaxwioksdgw.jpg,,,>,Face,,,,,1,,,,,,,x
51,2,Presentation,1,00787960620fa_sunagoufulkpsxrmklt.jpg,00811960530fa_sunahedfrhtcwpneund.jpg,00787960620fa.jpg,sunagoufulkpsxrmklt.jpg,00811960530fa.jpg,sunahedfrhtcwpneund.jpg,,,>,Face,,,,,1,,,,,,,o
52,2,Presentation,1,00773960620fa_sunafvsxtzaizojicxx.jpg,00598941031fa_sunacxtcahkymosigud.jpg,00773960620fa.jpg,sunafvsxtzaizojicxx.jpg,00598941031fa.jpg,sunacxtcahkymosigud.jpg,,,>,Face,,,,,1,,,,,,,o
53,2,Presentation,1,01004960627fa_sunbwtlihsuptkrckid.jpg,00090931230fa_sunaahedjlmtqekgyvj.jpg,01004960627fa.jpg,sunbwtlihsuptkrckid.jpg,00090931230fa.jpg,sunaahedjlmtqekgyvj.jpg,,,>,Face,,,,,0,,,,,,,o
54,2,Presentation,1,00620940928fa_sunacypmnujalygkunp.jpg,00791941205fa_sunagrmyoovzukhxmlo.jpg,00620940928fa.jpg,sunacypmnujalygkunp.jpg,00791941205fa.jpg,sunagrmyoovzukhxmlo.jpg,,,>,Face,,,,,1,,,,,,,x
55,2,Presentation,1,00062931230fb_sunaaelotvjgibjtjhs.jpg,00836940307fa_sunainqelldeebvxtcz.jpg,00062931230fb.jpg,sunaaelotvjgibjtjhs.jpg,00836940307fa.jpg,sunainqelldeebvxtcz.jpg,,,>,Face,,,,,1,,,,,,,o
56,2,Presentation,1,00851940307fa_sunaivflshbyfrfzhqb.jpg,00296940422fa_sunabrwnslxalcohfre.jpg,00851940307fa.jpg,sunaivflshbyfrfzhqb.jpg,00296940422fa.jpg,sunabrwnslxalcohfre.jpg,,,>,Face,,,,,1,,,,,,,o
57,2,Presentation,1,00313940422fa_sunabwjvmoaddlyxfjr.jpg,00288940422fa_sunabppokiyglaxpcha.jpg,00313940422fa.jpg,sunabwjvmoaddlyxfjr.jpg,00288940422fa.jpg,sunabppokiyglaxpcha.jpg,,,>,Face,,,,,1,,,,,,,o
58,2,Presentation,1,00985960627fa_sunbgklxeqjhdbyfhhy.jpg,00993960627fa_sunbprywzqxjcezkbch.jpg,00985960627fa.jpg,sunbgklxeqjhdbyfhhy.jpg,00993960627fa.jpg,sunbprywzqxjcezkbch.jpg,,,>,Face,,,,,1,,,,,,,o
59,2,Presentation,1,00854940307fa_sunaiwduelojtwaqeyh.jpg,00841940307fa_sunaisiwfgppimtnmxl.jpg,00854940307fa.jpg,sunaiwduelojtwaqeyh.jpg,00841940307fa.jpg,sunaisiwfgppimtnmxl.jpg,,,>,Face,,,,,1,,,,,,,x
60,2,Memory,1,,,,,,,sunaahedjlmtqekgyvj.jpg,,,,,,,,,,,,,,,
61,2,Memory,1,,,,,,,sunadzuvtmtmgupotmf.jpg,,,,,,,,,,,,,,,
62,2,Memory,1,,,,,,,00885960530fa.jpg,,,,,,,,,,,,,,,
63,2,Memory,1,,,,,,,00631940928fa.jpg,,,,,,,,,,,,,,,
64,2,Memory,1,,,,,,,00985960627fa.jpg,,,,,,,,,,,,,,,
65,2,Memory,1,,,,,,,00634940928fa.jpg,,,,,,,,,,,,,,,
66,2,Memory,1,,,,,,,sunaiwduelojtwaqeyh.jpg,,,,,,,,,,,,,,,
67,2,Memory,1,,,,,,,sunadcphrizvfpljiqt.jpg,,,,,,,,,,,,,,,
68,2,Memory,1,,,,,,,sunainqelldeebvxtcz.jpg,,,,,,,,,,,,,,,
69,2,Memory,1,,,,,,,sunaazezcsunmhttzxz.jpg,,,,,,,,,,,,,,,
70,2,Memory,1,,,,,,,sunaawsdjisukbbginm.jpg,,,,,,,,,,,,,,,
71,2,Memory,1,,,,,,,00854940307fa.jpg,,,,,,,,,,,,,,,
72,2,Memory,1,,,,,,,sunaivflshbyfrfzhqb.jpg,,,,,,,,,,,,,,,
73,2,Memory,1,,,,,,,sunaeouogqolxvggaoq.jpg,,,,,,,,,,,,,,,
74,2,Memory,1,,,,,,,00296940422fa.jpg,,,,,,,,,,,,,,,
75,2,Memory,1,,,,,,,00630941031fa.jpg,,,,,,,,,,,,,,,
76,2,Memory,1,,,,,,,sunadbdqzigzwipuipr.jpg,,,,,,,,,,,,,,,
77,2,Memory,1,,,,,,,sunahedfrhtcwpneund.jpg,,,,,,,,,,,,,,,
78,2,Memory,1,,,,,,,00090931230fa.jpg,,,,,,,,,,,,,,,
79,2,Memory,1,,,,,,,00791941205fa.jpg,,,,,,,,,,,,,,,
80,2,Memory,1,,,,,,,00198940128fb.jpg,,,,,,,,,,,,,,,
81,2,Memory,1,,,,,,,00811960530fa.jpg,,,,,,,,,,,,,,,
82,2,Memory,1,,,,,,,00792941205fa.jpg,,,,,,,,,,,,,,,
83,2,Memory,1,,,,,,,sunapmfmzadmosuogaz.jpg,,,,,,,,,,,,,,,
84,2,Memory,1,,,,,,,00745941205fa.jpg,,,,,,,,,,,,,,,
85,2,Memory,1,,,,,,,00836940307fa.jpg,,,,,,,,,,,,,,,
86,2,Memory,1,,,,,,,sunadakkdovnuzlycvp.jpg,,,,,,,,,,,,,,,
87,2,Memory,1,,,,,,,sunakwlvxjpddialozd.jpg,,,,,,,,,,,,,,,
88,2,Memory,1,,,,,,,sunagrmyoovzukhxmlo.jpg,,,,,,,,,,,,,,,
89,2,Memory,1,,,,,,,sunbgklxeqjhdbyfhhy.jpg,,,,,,,,,,,,,,,
90,2,Memory,1,,,,,,,00851940307fa.jpg,,,,,,,,,,,,,,,
91,2,Memory,1,,,,,,,00620940928fa.jpg,,,,,,,,,,,,,,,
92,2,Memory,1,,,,,,,00919960620fa.jpg,,,,,,,,,,,,,,,
93,2,Memory,1,,,,,,,sunaapfaivxqoynnwwp.jpg,,,,,,,,,,,,,,,
94,2,Memory,1,,,,,,,00719960620fa.jpg,,,,,,,,,,,,,,,
95,2,Memory,1,,,,,,,sunagsiwrmuixqgdimb.jpg,,,,,,,,,,,,,,,
96,2,Memory,1,,,,,,,sunacypmnujalygkunp.jpg,,,,,,,,,,,,,,,
97,2,Memory,1,,,,,,,00138931230fa.jpg,,,,,,,,,,,,,,,
98,2,Memory,1,,,,,,,sunabrwnslxalcohfre.jpg,,,,,,,,,,,,,,,
99,2,Memory,1,,,,,,,00191940128fb.jpg,,,,,,,,,,,,,,,
100,2,Presentation,2,00887960530_sunalcrtwiycqobgelp.jpg,00965960627fa_sunaydywdmvlfddbxbk.jpg,00887960530.jpg,sunalcrtwiycqobgelp.jpg,00965960627fa.jpg,sunaydywdmvlfddbxbk.jpg,,,>,Place,,,,,1,,,,,,,x
101,2,Presentation,2,01009960627fa_sunbxzweleltykebgan.jpg,00777941205fa_sunagcinxkccdtrjmlv.jpg,01009960627fa.jpg,sunbxzweleltykebgan.jpg,00777941205fa.jpg,sunagcinxkccdtrjmlv.jpg,,,>,Place,,,,,1,,,,,,,o
102,2,Presentation,2,00568940928fa_sunacsdhbbsybcyxnel.jpg,00976960627fa_sunbbhqyyzmsxhsbjmp.jpg,00568940928fa.jpg,sunacsdhbbsybcyxnel.jpg,00976960627fa.jpg,sunbbhqyyzmsxhsbjmp.jpg,,,>,Place,,,,,1,,,,,,,o
103,2,Presentation,2,00112931230fa_sunaakjaacuzulqckgl.jpg,00140931230fb_sunaapllqyqlykszopd.jpg,00112931230fa.jpg,sunaakjaacuzulqckgl.jpg,00140931230fb.jpg,sunaapllqyqlykszopd.jpg,,,>,Place,,,,,1,,,,,,,o
104,2,Presentation,2,00925960627fa_sunapqwnqzxlsfvgsjm.jpg,00239940128fa_sunabctlikybqabezjv.jpg,00925960627fa.jpg,sunapqwnqzxlsfvgsjm.jpg,00239940128fa.jpg,sunabctlikybqabezjv.jpg,,,>,Place,,,,,1,,,,,,,o
105,2,Presentation,2,00700941121fa_sunadsgmtznewzyasnk.jpg,00136931230fb_sunaanptmsknhirrzed.jpg,00700941121fa.jpg,sunadsgmtznewzyasnk.jpg,00136931230fb.jpg,sunaanptmsknhirrzed.jpg,,,>,Place,,,,,1,,,,,,,x
106,2,Presentation,2,00900960530fa_sunamlotskmmsjeogby.jpg,00901960530fa_sunammbnoambmhdxdwd.jpg,00900960530fa.jpg,sunamlotskmmsjeogby.jpg,00901960530fa.jpg,sunammbnoambmhdxdwd.jpg,,,>,Place,,,,,1,,,,,,,x
107,2,Presentation,2,00675941121fa_sunadoxcchtmsxewsau.jpg,00933960627fa_sunapwjkcxdaeqehfql.jpg,00675941121fa.jpg,sunadoxcchtmsxewsau.jpg,00933960627fa.jpg,sunapwjkcxdaeqehfql.jpg,,,>,Place,,,,,1,,,,,,,o
108,2,Presentation,2,00648941031fa_sunadfndyrtqqiasoig.jpg,00158931230fb_sunaavchcbptaerhcfy.jpg,00648941031fa.jpg,sunadfndyrtqqiasoig.jpg,00158931230fb.jpg,sunaavchcbptaerhcfy.jpg,,,>,Place,,,,,1,,,,,,,o
109,2,Presentation,2,00990960627fa_sunbpflsdaxnddnwcqi.jpg,00794960620fa_sunagtqhhwxjeuxdebe.jpg,00990960627fa.jpg,sunbpflsdaxnddnwcqi.jpg,00794960620fa.jpg,sunagtqhhwxjeuxdebe.jpg,,,>,Place,,,,,1,,,,,,,o
110,2,Memory,2,,,,,,,00700941121fa.jpg,,,,,,,,,,,,,,,
111,2,Memory,2,,,,,,,00185940422fb.jpg,,,,,,,,,,,,,,,
112,2,Memory,2,,,,,,,sunaanjcbzdvtvblsdy.jpg,,,,,,,,,,,,,,,
113,2,Memory,2,,,,,,,00158931230fb.jpg,,,,,,,,,,,,,,,
114,2,Memory,2,,,,,,,00965960627fa.jpg,,,,,,,,,,,,,,,
115,2,Memory,2,,,,,,,sunabrjdpmoedcdjbpo.jpg,,,,,,,,,,,,,,,
116,2,Memory,2,,,,,,,sunaaelyvurpntclgau.jpg,,,,,,,,,,,,,,,
117,2,Memory,2,,,,,,,sunaajayojuslbbnneg.jpg,,,,,,,,,,,,,,,
118,2,Memory,2,,,,,,,sunbxzweleltykebgan.jpg,,,,,,,,,,,,,,,
119,2,Memory,2,,,,,,,01009960627fa.jpg,,,,,,,,,,,,,,,
120,2,Memory,2,,,,,,,00063931230fa.jpg,,,,,,,,,,,,,,,
121,2,Memory,2,,,,,,,00097931230fa.jpg,,,,,,,,,,,,,,,
122,2,Memory,2,,,,,,,sunamlotskmmsjeogby.jpg,,,,,,,,,,,,,,,
123,2,Memory,2,,,,,,,00900960530fa.jpg,,,,,,,,,,,,,,,
124,2,Memory,2,,,,,,,00132931230fb.jpg,,,,,,,,,,,,,,,
125,2,Memory,2,,,,,,,sunagpjzsbltchlwvou.jpg,,,,,,,,,,,,,,,
126,2,Memory,2,,,,,,,00990960627fa.jpg,,,,,,,,,,,,,,,
127,2,Memory,2,,,,,,,00292940422fb.jpg,,,,,,,,,,,,,,,
128,2,Memory,2,,,,,,,sunaydywdmvlfddbxbk.jpg,,,,,,,,,,,,,,,
129,2,Memory,2,,,,,,,00901960530fa.jpg,,,,,,,,,,,,,,,
130,2,Memory,2,,,,,,,sunaampvucecsfbdafn.jpg,,,,,,,,,,,,,,,
131,2,Memory,2,,,,,,,sunaavchcbptaerhcfy.jpg,,,,,,,,,,,,,,,
132,2,Memory,2,,,,,,,sunagtqhhwxjeuxdebe.jpg,,,,,,,,,,,,,,,
133,2,Memory,2,,,,,,,sunammbnoambmhdxdwd.jpg,,,,,,,,,,,,,,,
134,2,Memory,2,,,,,,,sunaawqdbpihmlbwyyn.jpg,,,,,,,,,,,,,,,
135,2,Memory,2,,,,,,,00790941205fa.jpg,,,,,,,,,,,,,,,
136,2,Memory,2,,,,,,,00925960627fa.jpg,,,,,,,,,,,,,,,
137,2,Memory,2,,,,,,,sunagcinxkccdtrjmlv.jpg,,,,,,,,,,,,,,,
138,2,Memory,2,,,,,,,sunadsgmtznewzyasnk.jpg,,,,,,,,,,,,,,,
139,2,Memory,2,,,,,,,sunalqmfgeadpqsyzpd.jpg,,,,,,,,,,,,,,,
140,2,Memory,2,,,,,,,sunapqwnqzxlsfvgsjm.jpg,,,,,,,,,,,,,,,
141,2,Memory,2,,,,,,,sunabrlndkruqokhury.jpg,,,,,,,,,,,,,,,
142,2,Memory,2,,,,,,,00794960620fa.jpg,,,,,,,,,,,,,,,
143,2,Memory,2,,,,,,,00777941205fa.jpg,,,,,,,,,,,,,,,
144,2,Memory,2,,,,,,,00894960620fa.jpg,,,,,,,,,,,,,,,
145,2,Memory,2,,,,,,,sunaavjinpnkappuonm.jpg,,,,,,,,,,,,,,,
146,2,Memory,2,,,,,,,00127931230fa.jpg,,,,,,,,,,,,,,,
147,2,Memory,2,,,,,,,00294940422fb.jpg,,,,,,,,,,,,,,,
148,2,Memory,2,,,,,,,sunbpflsdaxnddnwcqi.jpg,,,,,,,,,,,,,,,
149,2,Memory,2,,,,,,,00162931230fb.jpg,,,,,,,,,,,,,,,
150,2,Presentation,3,00676941121fa_sunadpnqovzckyikrjo.jpg,00242940128fa_sunabcuurugvxwparpk.jpg,00676941121fa.jpg,sunadpnqovzckyikrjo.jpg,00242940128fa.jpg,sunabcuurugvxwparpk.jpg,,,<,Face,,,,,1,,,,,,,o
151,2,Presentation,3,00807941205fa_sunahawfngukizslzsd.jpg,01207940128fa_sundbixjudsgeuuehrn.jpg,00807941205fa.jpg,sunahawfngukizslzsd.jpg,01207940128fa.jpg,sundbixjudsgeuuehrn.jpg,,,<,Face,,,,,1,,,,,,,o
152,2,Presentation,3,00922960627fa_sunapqkyghktgtosuuk.jpg,00859940307fa_sunaiycurtqsfkvcaso.jpg,00922960627fa.jpg,sunapqkyghktgtosuuk.jpg,00859940307fa.jpg,sunaiycurtqsfkvcaso.jpg,,,<,Face,,,,,1,,,,,,,x
153,2,Presentation,3,00968960627fa_sunbagfpovqwbuexqdn.jpg,00479940519fa_sunabxsbfwjccqxxzxq.jpg,00968960627fa.jpg,sunbagfpovqwbuexqdn.jpg,00479940519fa.jpg,sunabxsbfwjccqxxzxq.jpg,,,<,Face,,,,,1,,,,,,,o
154,2,Presentation,3,00609940928fa_sunacycdoztxoluxjyk.jpg,00725941201fa_sunaefgzwiramypjvtd.jpg,00609940928fa.jpg,sunacycdoztxoluxjyk.jpg,00725941201fa.jpg,sunaefgzwiramypjvtd.jpg,,,<,Face,,,,,1,,,,,,,x
155,2,Presentation,3,00089931230fa_sunaagcpoejbuzyvddd.jpg,01010960627fa_suncnkvbhypnivcohyx.jpg,00089931230fa.jpg,sunaagcpoejbuzyvddd.jpg,01010960627fa.jpg,suncnkvbhypnivcohyx.jpg,,,<,Face,,,,,1,,,,,,,x
156,2,Presentation,3,00529940519fa_sunacbeefkxpymwevpk.jpg,00771941205fa_sunafowswglhxcsufpo.jpg,00529940519fa.jpg,sunacbeefkxpymwevpk.jpg,00771941205fa.jpg,sunafowswglhxcsufpo.jpg,,,<,Face,,,,,1,,,,,,,x
157,2,Presentation,3,00878960530fa_sunakgbnzxmfohgehnu.jpg,00889960530fa_sunaletopenvvozhpxc.jpg,00878960530fa.jpg,sunakgbnzxmfohgehnu.jpg,00889960530fa.jpg,sunaletopenvvozhpxc.jpg,,,<,Face,,,,,1,,,,,,,o
158,2,Presentation,3,00263940128fb_sunabjuovqvyfuzvqwt.jpg,00153931230fa_sunaauhozyxzeeqstxi.jpg,00263940128fb.jpg,sunabjuovqvyfuzvqwt.jpg,00153931230fa.jpg,sunaauhozyxzeeqstxi.jpg,,,<,Face,,,,,1,,,,,,,o
159,2,Presentation,3,00805941205fa_sunagwzdbtlixdhgolm.jpg,00931960627fa_sunaptrqvaooxfvktvw.jpg,00805941205fa.jpg,sunagwzdbtlixdhgolm.jpg,00931960627fa.jpg,sunaptrqvaooxfvktvw.jpg,,,<,Face,,,,,1,,,,,,,o
160,2,Memory,3,,,,,,,sunaatpeezlljqaxlhj.jpg,,,,,,,,,,,,,,,
161,2,Memory,3,,,,,,,00146960620fb.jpg,,,,,,,,,,,,,,,
162,2,Memory,3,,,,,,,00807941205fa.jpg,,,,,,,,,,,,,,,
163,2,Memory,3,,,,,,,sunabzjxlmkwnwzimua.jpg,,,,,,,,,,,,,,,
164,2,Memory,3,,,,,,,sunabxsbfwjccqxxzxq.jpg,,,,,,,,,,,,,,,
165,2,Memory,3,,,,,,,00076931230fa.jpg,,,,,,,,,,,,,,,
166,2,Memory,3,,,,,,,sunablfqiwfqomjarht.jpg,,,,,,,,,,,,,,,
167,2,Memory,3,,,,,,,sunadvithllcgmfxsrn.jpg,,,,,,,,,,,,,,,
168,2,Memory,3,,,,,,,sunacbeefkxpymwevpk.jpg,,,,,,,,,,,,,,,
169,2,Memory,3,,,,,,,00153931230fa.jpg,,,,,,,,,,,,,,,
170,2,Memory,3,,,,,,,00787941205fa.jpg,,,,,,,,,,,,,,,
171,2,Memory,3,,,,,,,00529940519fa.jpg,,,,,,,,,,,,,,,
172,2,Memory,3,,,,,,,00878960530fa.jpg,,,,,,,,,,,,,,,
173,2,Memory,3,,,,,,,00242940128fa.jpg,,,,,,,,,,,,,,,
174,2,Memory,3,,,,,,,00265940128fb.jpg,,,,,,,,,,,,,,,
175,2,Memory,3,,,,,,,sunaiycurtqsfkvcaso.jpg,,,,,,,,,,,,,,,
176,2,Memory,3,,,,,,,00859940307fa.jpg,,,,,,,,,,,,,,,
177,2,Memory,3,,,,,,,sunagwzdbtlixdhgolm.jpg,,,,,,,,,,,,,,,
178,2,Memory,3,,,,,,,00479940519fa.jpg,,,,,,,,,,,,,,,
179,2,Memory,3,,,,,,,00267940128fb.jpg,,,,,,,,,,,,,,,
180,2,Memory,3,,,,,,,sunaauhozyxzeeqstxi.jpg,,,,,,,,,,,,,,,
181,2,Memory,3,,,,,,,00780960530fa.jpg,,,,,,,,,,,,,,,
182,2,Memory,3,,,,,,,00997960627fa.jpg,,,,,,,,,,,,,,,
183,2,Memory,3,,,,,,,sunakgbnzxmfohgehnu.jpg,,,,,,,,,,,,,,,
184,2,Memory,3,,,,,,,sunabcuurugvxwparpk.jpg,,,,,,,,,,,,,,,
185,2,Memory,3,,,,,,,00498960627fa.jpg,,,,,,,,,,,,,,,
186,2,Memory,3,,,,,,,00719941201fa.jpg,,,,,,,,,,,,,,,
187,2,Memory,3,,,,,,,00822940307fa.jpg,,,,,,,,,,,,,,,
188,2,Memory,3,,,,,,,sunagetqixeypsysbpn.jpg,,,,,,,,,,,,,,,
189,2,Memory,3,,,,,,,00922960627fa.jpg,,,,,,,,,,,,,,,
190,2,Memory,3,,,,,,,00805941205fa.jpg,,,,,,,,,,,,,,,
191,2,Memory,3,,,,,,,sunabkmdplkdbvxriff.jpg,,,,,,,,,,,,,,,
192,2,Memory,3,,,,,,,sunbtpilbhhbmhmeuzq.jpg,,,,,,,,,,,,,,,
193,2,Memory,3,,,,,,,sunagmwxxwymwojbvgi.jpg,,,,,,,,,,,,,,,
194,2,Memory,3,,,,,,,sunapqkyghktgtosuuk.jpg,,,,,,,,,,,,,,,
195,2,Memory,3,,,,,,,sunaafewhewbxmjiurz.jpg,,,,,,,,,,,,,,,
196,2,Memory,3,,,,,,,sunahawfngukizslzsd.jpg,,,,,,,,,,,,,,,
197,2,Memory,3,,,,,,,sunafowswglhxcsufpo.jpg,,,,,,,,,,,,,,,
198,2,Memory,3,,,,,,,00771941205fa.jpg,,,,,,,,,,,,,,,
199,2,Memory,3,,,,,,,sunahqrxievfeusiqlt.jpg,,,,,,,,,,,,,,,
200,2,Presentation,4,00306940422fa_sunabueyoajufbkraki.jpg,00302940422fa_sunabtlfmiwtljmoues.jpg,00306940422fa.jpg,sunabueyoajufbkraki.jpg,00302940422fa.jpg,sunabtlfmiwtljmoues.jpg,,,<,Place,,,,,1,,,,,,,o
201,2,Presentation,4,00949960627fb_sunasnqkkyhilqkxiqm.jpg,00958960627fa_sunavspxmxubqaeidjt.jpg,00949960627fb.jpg,sunasnqkkyhilqkxiqm.jpg,00958960627fa.jpg,sunavspxmxubqaeidjt.jpg,,,<,Place,,,,,1,,,,,,,x
202,2,Presentation,4,01007960627fa_sunbxarcshsnqsefemx.jpg,00482940519fa_sunabyfxcxhdebvdyfd.jpg,01007960627fa.jpg,sunbxarcshsnqsefemx.jpg,00482940519fa.jpg,sunabyfxcxhdebvdyfd.jpg,,,<,Place,,,,,0,,,,,,,o
203,2,Presentation,4,00801941205fa_sunagvprlbprarvgdvj.jpg,00554940519fa_sunacfdkbsrughwqwtt.jpg,00801941205fa.jpg,sunagvprlbprarvgdvj.jpg,00554940519fa.jpg,sunacfdkbsrughwqwtt.jpg,,,<,Place,,,,,0,,,,,,,x
204,2,Presentation,4,00825940307fa_sunahrltmuwbiehihpe.jpg,00184940128fa_sunaavtbadenwnzeutj.jpg,00825940307fa.jpg,sunahrltmuwbiehihpe.jpg,00184940128fa.jpg,sunaavtbadenwnzeutj.jpg,,,<,Place,,,,,1,,,,,,,x
205,2,Presentation,4,00953960627fa_sunatstrpjxhvtbaczf.jpg,00571940928fa_sunacuatpqpqhyjhjqk.jpg,00953960627fa.jpg,sunatstrpjxhvtbaczf.jpg,00571940928fa.jpg,sunacuatpqpqhyjhjqk.jpg,,,<,Place,,,,,1,,,,,,,o
206,2,Presentation,4,00092931230fa_sunaaheqzstzxuadglu.jpg,00838940307fa_sunaiozxhxgtfrmoagh.jpg,00092931230fa.jpg,sunaaheqzstzxuadglu.jpg,00838940307fa.jpg,sunaiozxhxgtfrmoagh.jpg,,,<,Place,,,,,1,,,,,,,x
207,2,Presentation,4,00095931230fa_sunaahzooisqkwlxwoz.jpg,00914960620fa_sunaozisvwfbmlkfhzv.jpg,00095931230fa.jpg,sunaahzooisqkwlxwoz.jpg,00914960620fa.jpg,sunaozisvwfbmlkfhzv.jpg,,,<,Place,,,,,1,,,,,,,o
208,2,Presentation,4,00810941205fa_sunahctntqrunhdxhtb.jpg,00276940422fa_sunabmytpyhsgigllxu.jpg,00810941205fa.jpg,sunahctntqrunhdxhtb.jpg,00276940422fa.jpg,sunabmytpyhsgigllxu.jpg,,,<,Place,,,,,1,,,,,,,o
209,2,Presentation,4,00193940928fa_sunaaxjpzcnxligjtjq.jpg,00305940422fa_sunabtrnbvpppgczjim.jpg,00193940928fa.jpg,sunaaxjpzcnxligjtjq.jpg,00305940422fa.jpg,sunabtrnbvpppgczjim.jpg,,,<,Place,,,,,1,,,,,,,o
210,2,Memory,4,,,,,,,00752960620fa.jpg,,,,,,,,,,,,,,,
211,2,Memory,4,,,,,,,sunacfdkbsrughwqwtt.jpg,,,,,,,,,,,,,,,
212,2,Memory,4,,,,,,,sunaavodbcpygkggnfp.jpg,,,,,,,,,,,,,,,
213,2,Memory,4,,,,,,,00810941205fa.jpg,,,,,,,,,,,,,,,
214,2,Memory,4,,,,,,,00789960620fa.jpg,,,,,,,,,,,,,,,
215,2,Memory,4,,,,,,,00302940422fa.jpg,,,,,,,,,,,,,,,
216,2,Memory,4,,,,,,,00163931230fb.jpg,,,,,,,,,,,,,,,
217,2,Memory,4,,,,,,,00184940128fa.jpg,,,,,,,,,,,,,,,
218,2,Memory,4,,,,,,,sunacuatpqpqhyjhjqk.jpg,,,,,,,,,,,,,,,
219,2,Memory,4,,,,,,,sunbbfqwjpdxniyhies.jpg,,,,,,,,,,,,,,,
220,2,Memory,4,,,,,,,sunaalhlvzmjmitybdn.jpg,,,,,,,,,,,,,,,
221,2,Memory,4,,,,,,,sunaiozxhxgtfrmoagh.jpg,,,,,,,,,,,,,,,
222,2,Memory,4,,,,,,,sunagvprlbprarvgdvj.jpg,,,,,,,,,,,,,,,
223,2,Memory,4,,,,,,,sunaezuszgtxnmsxdbk.jpg,,,,,,,,,,,,,,,
224,2,Memory,4,,,,,,,00825940307fa.jpg,,,,,,,,,,,,,,,
225,2,Memory,4,,,,,,,sunahctntqrunhdxhtb.jpg,,,,,,,,,,,,,,,
226,2,Memory,4,,,,,,,sunasnqkkyhilqkxiqm.jpg,,,,,,,,,,,,,,,
227,2,Memory,4,,,,,,,00838940307fa.jpg,,,,,,,,,,,,,,,
228,2,Memory,4,,,,,,,sunagpancjmxqfazssf.jpg,,,,,,,,,,,,,,,
229,2,Memory,4,,,,,,,00124931230fa.jpg,,,,,,,,,,,,,,,
230,2,Memory,4,,,,,,,00554940519fa.jpg,,,,,,,,,,,,,,,
231,2,Memory,4,,,,,,,00571940928fa.jpg,,,,,,,,,,,,,,,
232,2,Memory,4,,,,,,,sunabtlfmiwtljmoues.jpg,,,,,,,,,,,,,,,
233,2,Memory,4,,,,,,,sunajawzbrlrwafowen.jpg,,,,,,,,,,,,,,,
234,2,Memory,4,,,,,,,00972960627fa.jpg,,,,,,,,,,,,,,,
235,2,Memory,4,,,,,,,sunapqkpqdfvxlbqwyo.jpg,,,,,,,,,,,,,,,
236,2,Memory,4,,,,,,,sunaangbuylfvckqqoo.jpg,,,,,,,,,,,,,,,
237,2,Memory,4,,,,,,,00092931230fa.jpg,,,,,,,,,,,,,,,
238,2,Memory,4,,,,,,,sunaaheqzstzxuadglu.jpg,,,,,,,,,,,,,,,
239,2,Memory,4,,,,,,,sunafbwnojpqeyzssoe.jpg,,,,,,,,,,,,,,,
240,2,Memory,4,,,,,,,00864940307fa.jpg,,,,,,,,,,,,,,,
241,2,Memory,4,,,,,,,sunahrltmuwbiehihpe.jpg,,,,,,,,,,,,,,,
242,2,Memory,4,,,,,,,00131931230fb.jpg,,,,,,,,,,,,,,,
243,2,Memory,4,,,,,,,sunaeuvjbmdpknaqqaj.jpg,,,,,,,,,,,,,,,
244,2,Memory,4,,,,,,,sunaavtbadenwnzeutj.jpg,,,,,,,,,,,,,,,
245,2,Memory,4,,,,,,,00751960620fa.jpg,,,,,,,,,,,,,,,
246,2,Memory,4,,,,,,,00949960627fb.jpg,,,,,,,,,,,,,,,
247,2,Memory,4,,,,,,,00749941201fa.jpg,,,,,,,,,,,,,,,
248,2,Memory,4,,,,,,,00921960627fa.jpg,,,,,,,,,,,,,,,
249,2,Memory,4,,,,,,,00801941205fa.jpg,,,,,,,,,,,,,,,
250,2,Presentation,5,00937960627fa_sunaqsolmfydodnakub.jpg,00799941205fa_sunagutjvdvnhxejerz.jpg,00937960627fa.jpg,sunaqsolmfydodnakub.jpg,00799941205fa.jpg,sunagutjvdvnhxejerz.jpg,,,>,Face,,,,,1,,,,,,,x
251,2,Presentation,5,00694941121fa_sunadrmfzmstgdjdcod.jpg,00574940928fa_sunacvbrcejzwmcgnoq.jpg,00694941121fa.jpg,sunadrmfzmstgdjdcod.jpg,00574940928fa.jpg,sunacvbrcejzwmcgnoq.jpg,,,>,Face,,,,,1,,,,,,,x
252,2,Presentation,5,00096931230fa_sunaaiqiqcggrskoqgy.jpg,00762941201fa_sunafgzgbisbopcyslr.jpg,00096931230fa.jpg,sunaaiqiqcggrskoqgy.jpg,00762941201fa.jpg,sunafgzgbisbopcyslr.jpg,,,>,Face,,,,,1,,,,,,,x
253,2,Presentation,5,00741941201fa_sunaemcowdozyphwknd.jpg,00977960627fa_sunbbxkanhzjgbwyxqs.jpg,00741941201fa.jpg,sunaemcowdozyphwknd.jpg,00977960627fa.jpg,sunbbxkanhzjgbwyxqs.jpg,,,>,Face,,,,,1,,,,,,,x
254,2,Presentation,5,00753941201fa_sunafcofuuzebuadceo.jpg,00557940519fa_sunachtuarilwyqnvjx.jpg,00753941201fa.jpg,sunafcofuuzebuadceo.jpg,00557940519fa.jpg,sunachtuarilwyqnvjx.jpg,,,>,Face,,,,,1,,,,,,,x
255,2,Presentation,5,00505960627fa_sunabzuqsrgcsonqlkz.jpg,00770941201fa_sunaflojskatpeqyzqp.jpg,00505960627fa.jpg,sunabzuqsrgcsonqlkz.jpg,00770941201fa.jpg,sunaflojskatpeqyzqp.jpg,,,>,Face,,,,,1,,,,,,,x
256,2,Presentation,5,00774941201fa_sunafvtpfczkzopbgue.jpg,00532960627fa_sunaccdtpgenvcbcbcf.jpg,00774941201fa.jpg,sunafvtpfczkzopbgue.jpg,00532960627fa.jpg,sunaccdtpgenvcbcbcf.jpg,,,>,Face,,,,,1,,,,,,,o
257,2,Presentation,5,00149931230fa_sunaauglwmctnkxyird.jpg,00761960627fa_sunafgdqbclkwfocdhg.jpg,00149931230fa.jpg,sunaauglwmctnkxyird.jpg,00761960627fa.jpg,sunafgdqbclkwfocdhg.jpg,,,>,Face,,,,,1,,,,,,,x
258,2,Presentation,5,00803941205fa_sunagvxkjokqimstxpe.jpg,00871940307_sunajrujcsdxmfbssmc.jpg,00803941205fa.jpg,sunagvxkjokqimstxpe.jpg,00871940307.jpg,sunajrujcsdxmfbssmc.jpg,,,>,Face,,,,,1,,,,,,,o
259,2,Presentation,5,00874940307fa_sunajtrfunvzdfticna.jpg,00746941201fa_sunaetydippjxikifsb.jpg,00874940307fa.jpg,sunajtrfunvzdfticna.jpg,00746941201fa.jpg,sunaetydippjxikifsb.jpg,,,>,Face,,,,,1,,,,,,,x
260,2,Memory,5,,,,,,,sunacvbrcejzwmcgnoq.jpg,,,,,,,,,,,,,,,
261,2,Memory,5,,,,,,,sunacerqowiaeoqkmsq.jpg,,,,,,,,,,,,,,,
262,2,Memory,5,,,,,,,00977960627fa.jpg,,,,,,,,,,,,,,,
263,2,Memory,5,,,,,,,sunaauglwmctnkxyird.jpg,,,,,,,,,,,,,,,
264,2,Memory,5,,,,,,,sunbbxkanhzjgbwyxqs.jpg,,,,,,,,,,,,,,,
265,2,Memory,5,,,,,,,00548940519fa.jpg,,,,,,,,,,,,,,,
266,2,Memory,5,,,,,,,sunaakmxzhuceuiryah.jpg,,,,,,,,,,,,,,,
267,2,Memory,5,,,,,,,sunaqsolmfydodnakub.jpg,,,,,,,,,,,,,,,
268,2,Memory,5,,,,,,,sunajrujcsdxmfbssmc.jpg,,,,,,,,,,,,,,,
269,2,Memory,5,,,,,,,00557940519fa.jpg,,,,,,,,,,,,,,,
270,2,Memory,5,,,,,,,00776941205fa.jpg,,,,,,,,,,,,,,,
271,2,Memory,5,,,,,,,sunanmoqeyprjjjfxjt.jpg,,,,,,,,,,,,,,,
272,2,Memory,5,,,,,,,00871940307.jpg,,,,,,,,,,,,,,,
273,2,Memory,5,,,,,,,sunajtrfunvzdfticna.jpg,,,,,,,,,,,,,,,
274,2,Memory,5,,,,,,,sunafvtpfczkzopbgue.jpg,,,,,,,,,,,,,,,
275,2,Memory,5,,,,,,,00905960530fa.jpg,,,,,,,,,,,,,,,
276,2,Memory,5,,,,,,,00774941201fa.jpg,,,,,,,,,,,,,,,
277,2,Memory,5,,,,,,,sunbvbrvgbpanfrawft.jpg,,,,,,,,,,,,,,,
278,2,Memory,5,,,,,,,01011960627fa.jpg,,,,,,,,,,,,,,,
279,2,Memory,5,,,,,,,00979960627fa.jpg,,,,,,,,,,,,,,,
280,2,Memory,5,,,,,,,00753941201fa.jpg,,,,,,,,,,,,,,,
281,2,Memory,5,,,,,,,sunagmhildamktmqjss.jpg,,,,,,,,,,,,,,,
282,2,Memory,5,,,,,,,00999960627fa.jpg,,,,,,,,,,,,,,,
283,2,Memory,5,,,,,,,00574940928fa.jpg,,,,,,,,,,,,,,,
284,2,Memory,5,,,,,,,sunaccdtpgenvcbcbcf.jpg,,,,,,,,,,,,,,,
285,2,Memory,5,,,,,,,00874940307fa.jpg,,,,,,,,,,,,,,,
286,2,Memory,5,,,,,,,00115931230fa.jpg,,,,,,,,,,,,,,,
287,2,Memory,5,,,,,,,00937960627fa.jpg,,,,,,,,,,,,,,,
288,2,Memory,5,,,,,,,sunachtuarilwyqnvjx.jpg,,,,,,,,,,,,,,,
289,2,Memory,5,,,,,,,00785941205fa.jpg,,,,,,,,,,,,,,,
290,2,Memory,5,,,,,,,sunafxokyavhgptyfye.jpg,,,,,,,,,,,,,,,
291,2,Memory,5,,,,,,,00786941205fa.jpg,,,,,,,,,,,,,,,
292,2,Memory,5,,,,,,,sunaglqunwuycxydmyu.jpg,,,,,,,,,,,,,,,
293,2,Memory,5,,,,,,,sunarfdklgdnjgeqfjg.jpg,,,,,,,,,,,,,,,
294,2,Memory,5,,,,,,,00532960627fa.jpg,,,,,,,,,,,,,,,
295,2,Memory,5,,,,,,,sundahdxwmcdluscvot.jpg,,,,,,,,,,,,,,,
296,2,Memory,5,,,,,,,sunafcofuuzebuadceo.jpg,,,,,,,,,,,,,,,
297,2,Memory,5,,,,,,,00149931230fa.jpg,,,,,,,,,,,,,,,
298,2,Memory,5,,,,,,,sunbdycacjfaujxitbw.jpg,,,,,,,,,,,,,,,
299,2,Memory,5,,,,,,,00942960627fa.jpg,,,,,,,,,,,,,,,
300,2,Presentation,6,00902960530fa_sunanaacmmosxrfwmvl.jpg,00804960530fa_sunagwswhkvnsmuszlz.jpg,00902960530fa.jpg,sunanaacmmosxrfwmvl.jpg,00804960530fa.jpg,sunagwswhkvnsmuszlz.jpg,,,>,Place,,,,,1,,,,,,,o
301,2,Presentation,6,00589940928fa_sunacwggadqsfpovdjv.jpg,00868960307fa_sunajjxttslobudoqbv.jpg,00589940928fa.jpg,sunacwggadqsfpovdjv.jpg,00868960307fa.jpg,sunajjxttslobudoqbv.jpg,,,>,Place,,,,,1,,,,,,,x
302,2,Presentation,6,00929960627fa_sunaprnrbmgkomdbchr.jpg,00812941205fa_sunahgtbwgsmtqeodwh.jpg,00929960627fa.jpg,sunaprnrbmgkomdbchr.jpg,00812941205fa.jpg,sunahgtbwgsmtqeodwh.jpg,,,>,Place,,,,,1,,,,,,,x
303,2,Presentation,6,00111931230fb_sunaakgekhjklxmvulj.jpg,00819940307fa_sunahqldjibofgsfdgb.jpg,00111931230fb.jpg,sunaakgekhjklxmvulj.jpg,00819940307fa.jpg,sunahqldjibofgsfdgb.jpg,,,>,Place,,,,,1,,,,,,,x
304,2,Presentation,6,00982960627fa_sunbesrwkdsffeogeqq.jpg,00960960627fa_sunawksfbacycuhbrsc.jpg,00982960627fa.jpg,sunbesrwkdsffeogeqq.jpg,00960960627fa.jpg,sunawksfbacycuhbrsc.jpg,,,>,Place,,,,,1,,,,,,,o
305,2,Presentation,6,00800941205fb_sunagvjurcwdbixvnyi.jpg,00971960627fa_sunbbegcweqnetpdlrh.jpg,00800941205fb.jpg,sunagvjurcwdbixvnyi.jpg,00971960627fa.jpg,sunbbegcweqnetpdlrh.jpg,,,>,Place,,,,,0,,,,,,,o
306,2,Presentation,6,00060931230fa_sunaaehaikpckyjsety.jpg,00860940307fa_sunaizeyhvjzknwjudw.jpg,00060931230fa.jpg,sunaaehaikpckyjsety.jpg,00860940307fa.jpg,sunaizeyhvjzknwjudw.jpg,,,>,Place,,,,,0,,,,,,,x
307,2,Presentation,6,00130931230fa_sunaamvxnvouicstkjb.jpg,00944960627fa_sunasbbntuiheekqyaq.jpg,00130931230fa.jpg,sunaamvxnvouicstkjb.jpg,00944960627fa.jpg,sunasbbntuiheekqyaq.jpg,,,>,Place,,,,,0,,,,,,,x
308,2,Presentation,6,00903960620fa_sunanainkqdvktzoxyl.jpg,00564940928fa_sunacmpqqfbsvlzinzl.jpg,00903960620fa.jpg,sunanainkqdvktzoxyl.jpg,00564940928fa.jpg,sunacmpqqfbsvlzinzl.jpg,,,>,Place,,,,,1,,,,,,,o
309,2,Presentation,6,00970960627fa_sunbasypfgzjtomktmu.jpg,00876960620fa_sunajwqkfsykceonyig.jpg,00970960627fa.jpg,sunbasypfgzjtomktmu.jpg,00876960620fa.jpg,sunajwqkfsykceonyig.jpg,,,>,Place,,,,,1,,,,,,,x
310,2,Memory,6,,,,,,,00963960627fa.jpg,,,,,,,,,,,,,,,
311,2,Memory,6,,,,,,,00060931230fa.jpg,,,,,,,,,,,,,,,
312,2,Memory,6,,,,,,,00816941205fa.jpg,,,,,,,,,,,,,,,
313,2,Memory,6,,,,,,,sunacmpqqfbsvlzinzl.jpg,,,,,,,,,,,,,,,
314,2,Memory,6,,,,,,,sunacepzfrmtkiqonpy.jpg,,,,,,,,,,,,,,,
315,2,Memory,6,,,,,,,00929960627fa.jpg,,,,,,,,,,,,,,,
316,2,Memory,6,,,,,,,00101931230fb.jpg,,,,,,,,,,,,,,,
317,2,Memory,6,,,,,,,sunaivdjruhkrfywfed.jpg,,,,,,,,,,,,,,,
318,2,Memory,6,,,,,,,sunaakxgygjfqrzpyoz.jpg,,,,,,,,,,,,,,,
319,2,Memory,6,,,,,,,00819940307fa.jpg,,,,,,,,,,,,,,,
320,2,Memory,6,,,,,,,00543940519fa.jpg,,,,,,,,,,,,,,,
321,2,Memory,6,,,,,,,sunaaexqbtdswxrqjvz.jpg,,,,,,,,,,,,,,,
322,2,Memory,6,,,,,,,sunagvjurcwdbixvnyi.jpg,,,,,,,,,,,,,,,
323,2,Memory,6,,,,,,,00988960627fa.jpg,,,,,,,,,,,,,,,
324,2,Memory,6,,,,,,,00800941205fb.jpg,,,,,,,,,,,,,,,
325,2,Memory,6,,,,,,,sunahmhrncocyhsjpxk.jpg,,,,,,,,,,,,,,,
326,2,Memory,6,,,,,,,00111931230fb.jpg,,,,,,,,,,,,,,,
327,2,Memory,6,,,,,,,00847940307fa.jpg,,,,,,,,,,,,,,,
328,2,Memory,6,,,,,,,00108960530fa.jpg,,,,,,,,,,,,,,,
329,2,Memory,6,,,,,,,sunaaehaikpckyjsety.jpg,,,,,,,,,,,,,,,
330,2,Memory,6,,,,,,,sunauburywlkjszngcq.jpg,,,,,,,,,,,,,,,
331,2,Memory,6,,,,,,,sunaamvxnvouicstkjb.jpg,,,,,,,,,,,,,,,
332,2,Memory,6,,,,,,,sunawksfbacycuhbrsc.jpg,,,,,,,,,,,,,,,
333,2,Memory,6,,,,,,,00960960627fa.jpg,,,,,,,,,,,,,,,
334,2,Memory,6,,,,,,,sunaajtnvzzpsjdzres.jpg,,,,,,,,,,,,,,,
335,2,Memory,6,,,,,,,sunahqldjibofgsfdgb.jpg,,,,,,,,,,,,,,,
336,2,Memory,6,,,,,,,00564940928fa.jpg,,,,,,,,,,,,,,,
337,2,Memory,6,,,,,,,00071941031fa.jpg,,,,,,,,,,,,,,,
338,2,Memory,6,,,,,,,sunayaepykrqvenaqqy.jpg,,,,,,,,,,,,,,,
339,2,Memory,6,,,,,,,sunaajqmsaavkmgbsth.jpg,,,,,,,,,,,,,,,
340,2,Memory,6,,,,,,,00955960627fb.jpg,,,,,,,,,,,,,,,
341,2,Memory,6,,,,,,,00860940307fa.jpg,,,,,,,,,,,,,,,
342,2,Memory,6,,,,,,,sunaizeyhvjzknwjudw.jpg,,,,,,,,,,,,,,,
343,2,Memory,6,,,,,,,00120931230fa.jpg,,,,,,,,,,,,,,,
344,2,Memory,6,,,,,,,sunbmaiocftdtvnzgap.jpg,,,,,,,,,,,,,,,
345,2,Memory,6,,,,,,,sunaprnrbmgkomdbchr.jpg,,,,,,,,,,,,,,,
346,2,Memory,6,,,,,,,sunasbbntuiheekqyaq.jpg,,,,,,,,,,,,,,,
347,2,Memory,6,,,,,,,00944960627fa.jpg,,,,,,,,,,,,,,,
348,2,Memory,6,,,,,,,00130931230fa.jpg,,,,,,,,,,,,,,,
349,2,Memory,6,,,,,,,sunaakgekhjklxmvulj.jpg,,,,,,,,,,,,,,,
350,2,Presentation,7,00129931230fb_sunaamsdyakblkfoydx.jpg,00834940307fa_sunaibnpvhkdpdnzcnz.jpg,00129931230fb.jpg,sunaamsdyakblkfoydx.jpg,00834940307fa.jpg,sunaibnpvhkdpdnzcnz.jpg,,,<,Place,,,,,1,,,,,,,x
351,2,Presentation,7,00210940128fb_sunabanoxjtqxamkucc.jpg,00081941031fa_sunaaftlyfudyzuhqzf.jpg,00210940128fb.jpg,sunabanoxjtqxamkucc.jpg,00081941031fa.jpg,sunaaftlyfudyzuhqzf.jpg,,,<,Place,,,,,1,,,,,,,x
352,2,Presentation,7,00795941205fa_sunagtumacdlmciqamz.jpg,00882960530fa_sunaknlirqjqiwbbeeg.jpg,00795941205fa.jpg,sunagtumacdlmciqamz.jpg,00882960530fa.jpg,sunaknlirqjqiwbbeeg.jpg,,,<,Place,,,,,1,,,,,,,x
353,2,Presentation,7,00966960627fa_sunaygrtwrwfezqjizr.jpg,00576941031fa_sunacvjlsylseoghjup.jpg,00966960627fa.jpg,sunaygrtwrwfezqjizr.jpg,00576941031fa.jpg,sunacvjlsylseoghjup.jpg,,,<,Place,,,,,1,,,,,,,o
354,2,Presentation,7,00893960530Fa_sunaloffvbvysigxent.jpg,00961960627fa_sunawotxrevnqvamsfp.jpg,00893960530Fa.jpg,sunaloffvbvysigxent.jpg,00961960627fa.jpg,sunawotxrevnqvamsfp.jpg,,,<,Place,,,,,1,,,,,,,x
355,2,Presentation,7,00978960627fa_sunbddbivbptlrlauhy.jpg,00562941031fa_sunacjnahdmqfnjfwqx.jpg,00978960627fa.jpg,sunbddbivbptlrlauhy.jpg,00562941031fa.jpg,sunacjnahdmqfnjfwqx.jpg,,,<,Place,,,,,1,,,,,,,o
356,2,Presentation,7,00145931230fb_sunaatjesvdupctftmn.jpg,00895960530fa_sunamczizlzavhzhpay.jpg,00145931230fb.jpg,sunaatjesvdupctftmn.jpg,00895960530fa.jpg,sunamczizlzavhzhpay.jpg,,,<,Place,,,,,1,,,,,,,x
357,2,Presentation,7,00747941201fa_sunaeutbrtswvsozxyk.jpg,00069931230fb_sunaaeowapdkwzqpgqr.jpg,00747941201fa.jpg,sunaeutbrtswvsozxyk.jpg,00069931230fb.jpg,sunaaeowapdkwzqpgqr.jpg,,,<,Place,,,,,0,,,,,,,x
358,2,Presentation,7,00779941205fa_sunagdzlvkqtpnfxfcg.jpg,00214940128fa_sunabbafjowbzcvbucc.jpg,00779941205fa.jpg,sunagdzlvkqtpnfxfcg.jpg,00214940128fa.jpg,sunabbafjowbzcvbucc.jpg,,,<,Place,,,,,1,,,,,,,o
359,2,Presentation,7,00154931230fa_sunaauueuhhvklldjik.jpg,00266940128fb_sunabkngeblodihjvbk.jpg,00154931230fa.jpg,sunaauueuhhvklldjik.jpg,00266940128fb.jpg,sunabkngeblodihjvbk.jpg,,,<,Place,,,,,1,,,,,,,x
360,2,Memory,7,,,,,,,sunbgzjryivyczuvkvm.jpg,,,,,,,,,,,,,,,
361,2,Memory,7,,,,,,,00969960627fa.jpg,,,,,,,,,,,,,,,
362,2,Memory,7,,,,,,,sunabbafjowbzcvbucc.jpg,,,,,,,,,,,,,,,
363,2,Memory,7,,,,,,,00783941205fa.jpg,,,,,,,,,,,,,,,
364,2,Memory,7,,,,,,,00779941205fa.jpg,,,,,,,,,,,,,,,
365,2,Memory,7,,,,,,,00986960627fa.jpg,,,,,,,,,,,,,,,
366,2,Memory,7,,,,,,,sunaivdylrawbmhryfp.jpg,,,,,,,,,,,,,,,
367,2,Memory,7,,,,,,,sunakmnfgklupjijsgf.jpg,,,,,,,,,,,,,,,
368,2,Memory,7,,,,,,,00218940128fa.jpg,,,,,,,,,,,,,,,
369,2,Memory,7,,,,,,,00129931230fb.jpg,,,,,,,,,,,,,,,
370,2,Memory,7,,,,,,,00214940128fa.jpg,,,,,,,,,,,,,,,
371,2,Memory,7,,,,,,,sunaknlirqjqiwbbeeg.jpg,,,,,,,,,,,,,,,
372,2,Memory,7,,,,,,,sunabanoxjtqxamkucc.jpg,,,,,,,,,,,,,,,
373,2,Memory,7,,,,,,,sunaamsdyakblkfoydx.jpg,,,,,,,,,,,,,,,
374,2,Memory,7,,,,,,,00848940307fa.jpg,,,,,,,,,,,,,,,
375,2,Memory,7,,,,,,,sunaffgsyyvoqdlkmnk.jpg,,,,,,,,,,,,,,,
376,2,Memory,7,,,,,,,sunabbwggenhfbftyvi.jpg,,,,,,,,,,,,,,,
377,2,Memory,7,,,,,,,00119931230fb.jpg,,,,,,,,,,,,,,,
378,2,Memory,7,,,,,,,sunaakvmbftkrgqhjun.jpg,,,,,,,,,,,,,,,
379,2,Memory,7,,,,,,,00080931230fb.jpg,,,,,,,,,,,,,,,
380,2,Memory,7,,,,,,,00754941201fa.jpg,,,,,,,,,,,,,,,
381,2,Memory,7,,,,,,,sunagtumacdlmciqamz.jpg,,,,,,,,,,,,,,,
382,2,Memory,7,,,,,,,00880960530fa.jpg,,,,,,,,,,,,,,,
383,2,Memory,7,,,,,,,sunacdnquypmsshhsbk.jpg,,,,,,,,,,,,,,,
384,2,Memory,7,,,,,,,sunagjeesomrwjsfqie.jpg,,,,,,,,,,,,,,,
385,2,Memory,7,,,,,,,sunaafjszryxyavjzln.jpg,,,,,,,,,,,,,,,
386,2,Memory,7,,,,,,,00834940307fa.jpg,,,,,,,,,,,,,,,
387,2,Memory,7,,,,,,,00893960530Fa.jpg,,,,,,,,,,,,,,,
388,2,Memory,7,,,,,,,00081941031fa.jpg,,,,,,,,,,,,,,,
389,2,Memory,7,,,,,,,00210940128fb.jpg,,,,,,,,,,,,,,,
390,2,Memory,7,,,,,,,sunagdzlvkqtpnfxfcg.jpg,,,,,,,,,,,,,,,
391,2,Memory,7,,,,,,,00266940128fb.jpg,,,,,,,,,,,,,,,
392,2,Memory,7,,,,,,,sunaaftlyfudyzuhqzf.jpg,,,,,,,,,,,,,,,
393,2,Memory,7,,,,,,,sunaibnpvhkdpdnzcnz.jpg,,,,,,,,,,,,,,,
394,2,Memory,7,,,,,,,sunabkngeblodihjvbk.jpg,,,,,,,,,,,,,,,
395,2,Memory,7,,,,,,,00795941205fa.jpg,,,,,,,,,,,,,,,
396,2,Memory,7,,,,,,,sunbaoizrfijvhpnnjn.jpg,,,,,,,,,,,,,,,
397,2,Memory,7,,,,,,,sunaloffvbvysigxent.jpg,,,,,,,,,,,,,,,
398,2,Memory,7,,,,,,,00882960530fa.jpg,,,,,,,,,,,,,,,
399,2,Memory,7,,,,,,,00540940519fa.jpg,,,,,,,,,,,,,,,
