,Subject,Trial Type,Run,Cued Composite,Uncued Composite,Cued Face,Cued Place,Uncued Face,Uncued Place,Memory Image,Category,Cued Side,Cued Category,Attention Reaction Time (s),Familiarity Reaction Time (s),Familiarity Rating,Attention Level,Cue Validity,Post Invalid Cue,Pre Invalid Cue,Attention Button,Rating History,Stimulus Onset,Stimulus End,Attention Probe
210,33,Memory,4,,,,,,,00970960627fa.jpg,,,,,1.286,1.0,,,,,,,1540155153.615993,1540155156.017349,
211,33,Memory,4,,,,,,,00634940928fa.jpg,,,,,1.17,1.0,,,,,,,1540155157.433127,1540155159.767877,
212,33,Memory,4,,,,,,,00780960530fa.jpg,,,,,0.902,1.0,,,,,,,1540155161.117814,1540155163.66976,
213,33,Memory,4,,,,,,,sunacvzhvcksnwqcqbw.jpg,,,,,1.805,2.0,,,,,,,1540155165.070006,1540155167.386191,
214,33,Memory,4,,,,,,,00986960627fa.jpg,,,,,0.937,1.0,,,,,,,1540155168.837977,1540155171.238905,
215,33,Memory,4,,,,,,,sunadcphrizvfpljiqt.jpg,,,,,1.553,2.0,,,,,,,1540155172.639307,1540155175.040286,
216,33,Memory,4,,,,,,,00314940422fa.jpg,,,,,0.684,1.0,,,,,,,1540155176.389824,1540155178.942106,
217,33,Memory,4,,,,,,,00933960627fa.jpg,,,,,1.303,1.0,,,,,,,1540155180.390859,1540155182.975705,
218,33,Memory,4,,,,,,,sunbgzjryivyczuvkvm.jpg,,,,,1.02,1.0,,,,,,,1540155184.375565,1540155186.676157,
219,33,Memory,4,,,,,,,sunagetqixeypsysbpn.jpg,,,,,1.303,1.0,,,,,,,1540155188.077711,1540155190.495264,
220,33,Memory,4,,,,,,,sunafvcflzhlqloapyo.jpg,,,,,1.304,4.0,,,,,,,1540155191.927754,1540155194.278666,
221,33,Memory,4,,,,,,,sunaqgjuuwvdcyiccjt.jpg,,,,,1.487,2.0,,,,,,,1540155195.729551,1540155198.013256,
222,33,Memory,4,,,,,,,sunaguchqqnrtodtezq.jpg,,,,,1.137,4.0,,,,,,,1540155199.414966,1540155201.780939,
223,33,Memory,4,,,,,,,00965960627fa.jpg,,,,,0.703,1.0,,,,,,,1540155203.149837,1540155205.7164,
224,33,Memory,4,,,,,,,sunaakxgygjfqrzpyoz.jpg,,,,,1.071,1.0,,,,,,,1540155207.083236,1540155209.534485,
225,33,Memory,4,,,,,,,sunaajuzribjrizdshh.jpg,,,,,0.853,1.0,,,,,,,1540155211.001539,1540155213.385858,
226,33,Memory,4,,,,,,,00773960620fa.jpg,,,,,0.819,1.0,,,,,,,1540155214.835319,1540155217.268445,
227,33,Memory,4,,,,,,,00773941201fa.jpg,,,,,0.706,1.0,,,,,,,1540155218.654744,1540155221.141397,
228,33,Memory,4,,,,,,,00581940928fa.jpg,,,,,0.604,1.0,,,,,,,1540155222.50485,1540155224.823082,
229,33,Memory,4,,,,,,,00109931230fa.jpg,,,,,1.039,1.0,,,,,,,1540155226.20644,1540155228.574524,
230,33,Memory,4,,,,,,,sunapwjkcxdaeqehfql.jpg,,,,,1.551,4.0,,,,,,,1540155229.974506,1540155232.591714,
231,33,Memory,4,,,,,,,00120931230fa.jpg,,,,,0.885,1.0,,,,,,,1540155234.142788,1540155236.508969,
232,33,Memory,4,,,,,,,00270940422fb.jpg,,,,,1.287,2.0,,,,,,,1540155237.893358,1540155240.46133,
233,33,Memory,4,,,,,,,sunaygrtwrwfezqjizr.jpg,,,,,1.719,4.0,,,,,,,1540155241.878054,1540155244.513245,
234,33,Memory,4,,,,,,,sunbasypfgzjtomktmu.jpg,,,,,1.486,1.0,,,,,,,1540155245.895967,1540155248.297085,
235,33,Memory,4,,,,,,,sunabllobxadqcyttej.jpg,,,,,1.754,1.0,,,,,,,1540155249.64689,1540155252.130652,
236,33,Memory,4,,,,,,,sunafvsxtzaizojicxx.jpg,,,,,1.755,3.0,,,,,,,1540155253.532625,1540155256.016576,
237,33,Memory,4,,,,,,,sunadbdqzigzwipuipr.jpg,,,,,1.738,4.0,,,,,,,1540155257.450427,1540155259.901272,
238,33,Memory,4,,,,,,,00936960627fa.jpg,,,,,0.784,1.0,,,,,,,1540155261.301125,1540155263.735224,
239,33,Memory,4,,,,,,,00598941031fa.jpg,,,,,1.021,1.0,,,,,,,1540155265.169361,1540155267.68778,
240,33,Memory,4,,,,,,,sunacxtcahkymosigud.jpg,,,,,1.337,2.0,,,,,,,1540155269.137711,1540155271.688911,
241,33,Memory,4,,,,,,,00745941205fa.jpg,,,,,0.669,1.0,,,,,,,1540155273.106044,1540155275.521657,
242,33,Memory,4,,,,,,,00598940928fa.jpg,,,,,1.788,2.0,,,,,,,1540155276.955768,1540155279.356463,
243,33,Memory,4,,,,,,,sunaeouogqolxvggaoq.jpg,,,,,1.204,4.0,,,,,,,1540155280.80745,1540155283.125039,
244,33,Memory,4,,,,,,,sunabwmcbaxwioksdgw.jpg,,,,,1.437,3.0,,,,,,,1540155284.508774,1540155286.909551,
245,33,Memory,4,,,,,,,sunaydywdmvlfddbxbk.jpg,,,,,1.57,2.0,,,,,,,1540155288.29352,1540155290.594018,
246,33,Memory,4,,,,,,,00631940928fa.jpg,,,,,0.754,1.0,,,,,,,1540155291.977837,1540155294.32932,
247,33,Memory,4,,,,,,,00796941205fa.jpg,,,,,0.703,1.0,,,,,,,1540155295.662347,1540155297.963454,
248,33,Memory,4,,,,,,,00966960627fa.jpg,,,,,0.603,1.0,,,,,,,1540155299.331168,1540155301.864283,
249,33,Memory,4,,,,,,,sunacxeheuiigkcgquf.jpg,,,,,2.003,3.0,,,,,,,1540155303.365525,1540155305.699003,
