,Subject,Trial Type,Run,Cued Composite,Uncued Composite,Cued Face,Cued Place,Uncued Face,Uncued Place,Memory Image,Category,Cued Side,Cued Category,Attention Reaction Time (s),Familiarity Reaction Time (s),Familiarity Rating,Attention Level,Cue Validity,Post Invalid Cue,Pre Invalid Cue,Attention Button,Rating History,Stimulus Onset,Stimulus End,Attention Probe
310,33,Memory,6,,,,,,,sunaknlirqjqiwbbeeg.jpg,,,,,2.286,2.0,,,,,,,1540155863.497836,1540155866.16549,
311,33,Memory,6,,,,,,,sunagdzlvkqtpnfxfcg.jpg,,,,,1.004,1.0,,,,,,,1540155867.549008,1540155869.949607,
312,33,Memory,6,,,,,,,sunafpfpiiujzoesnqg.jpg,,,,,0.836,1.0,,,,,,,1540155871.349628,1540155873.667545,
313,33,Memory,6,,,,,,,00483940519fa.jpg,,,,,1.703,3.0,,,,,,,1540155875.184961,1540155877.68483,
314,33,Memory,6,,,,,,,00882960530fa.jpg,,,,,1.618,2.0,,,,,,,1540155879.053179,1540155881.369353,
315,33,Memory,6,,,,,,,sunaanjcbzdvtvblsdy.jpg,,,,,0.837,1.0,,,,,,,1540155882.769072,1540155885.171214,
316,33,Memory,6,,,,,,,00929960627fa.jpg,,,,,2.071,1.0,,,,,,,1540155886.73844,1540155889.172491,
317,33,Memory,6,,,,,,,sunabbwggenhfbftyvi.jpg,,,,,0.754,1.0,,,,,,,1540155890.590859,1540155893.091415,
318,33,Memory,6,,,,,,,sunafijbgncijwykrnl.jpg,,,,,0.57,1.0,,,,,,,1540155894.474913,1540155896.9573,
319,33,Memory,6,,,,,,,sunavxokzybtomhbmvm.jpg,,,,,0.953,1.0,,,,,,,1540155898.425358,1540155900.809416,
320,33,Memory,6,,,,,,,00960960627fa.jpg,,,,,1.655,1.0,,,,,,,1540155902.176094,1540155904.610605,
321,33,Memory,6,,,,,,,sunaaylzyqlqrsmfwif.jpg,,,,,0.704,1.0,,,,,,,1540155906.077486,1540155908.528702,
322,33,Memory,6,,,,,,,00122931230fa.jpg,,,,,1.704,3.0,,,,,,,1540155909.945666,1540155912.362841,
323,33,Memory,6,,,,,,,00766960620fa.jpg,,,,,1.219,1.0,,,,,,,1540155913.83076,1540155916.280494,
324,33,Memory,6,,,,,,,sunaakxjfbrrequcjmx.jpg,,,,,0.671,1.0,,,,,,,1540155917.76493,1540155920.049399,
325,33,Memory,6,,,,,,,sunabanoxjtqxamkucc.jpg,,,,,0.57,1.0,,,,,,,1540155921.433343,1540155923.850652,
326,33,Memory,6,,,,,,,sunabbafjowbzcvbucc.jpg,,,,,0.938,1.0,,,,,,,1540155925.250576,1540155927.684459,
327,33,Memory,6,,,,,,,00543940519fa.jpg,,,,,1.753,4.0,,,,,,,1540155929.035795,1540155931.469719,
328,33,Memory,6,,,,,,,sunacepzfrmtkiqonpy.jpg,,,,,0.637,1.0,,,,,,,1540155933.037056,1540155935.337206,
329,33,Memory,6,,,,,,,sunabyvpwkgsjtijdwj.jpg,,,,,0.701,1.0,,,,,,,1540155936.771141,1540155939.205535,
330,33,Memory,6,,,,,,,sunaprnrbmgkomdbchr.jpg,,,,,0.486,1.0,,,,,,,1540155940.605388,1540155943.040652,
331,33,Memory,6,,,,,,,sunanwjjyqqwzqrqagd.jpg,,,,,0.721,1.0,,,,,,,1540155944.474383,1540155947.090742,
332,33,Memory,6,,,,,,,00062931230fb.jpg,,,,,1.319,3.0,,,,,,,1540155948.458736,1540155951.026086,
333,33,Memory,6,,,,,,,00772941201fa.jpg,,,,,1.137,1.0,,,,,,,1540155952.442311,1540155954.844047,
334,33,Memory,6,,,,,,,00218940128fa.jpg,,,,,1.104,4.0,,,,,,,1540155956.245483,1540155958.677787,
335,33,Memory,6,,,,,,,sunaaelotvjgibjtjhs.jpg,,,,,0.667,1.0,,,,,,,1540155960.028702,1540155962.444968,
336,33,Memory,6,,,,,,,sunawksfbacycuhbrsc.jpg,,,,,1.07,1.0,,,,,,,1540155963.879833,1540155966.397004,
337,33,Memory,6,,,,,,,sunafgzgbisbopcyslr.jpg,,,,,0.787,1.0,,,,,,,1540155967.780882,1540155970.165282,
338,33,Memory,6,,,,,,,00762941201fa.jpg,,,,,1.587,3.0,,,,,,,1540155971.582113,1540155973.900123,
339,33,Memory,6,,,,,,,00908960530fa.jpg,,,,,1.018,1.0,,,,,,,1540155975.301152,1540155977.683882,
340,33,Memory,6,,,,,,,00959960627fa.jpg,,,,,0.953,1.0,,,,,,,1540155979.134716,1540155981.602449,
341,33,Memory,6,,,,,,,sunahuynahneraqftyz.jpg,,,,,0.653,1.0,,,,,,,1540155983.003738,1540155985.337152,
342,33,Memory,6,,,,,,,00214940128fa.jpg,,,,,1.554,3.0,,,,,,,1540155986.737935,1540155989.121887,
343,33,Memory,6,,,,,,,00197940128fa.jpg,,,,,1.801,2.0,,,,,,,1540155990.605306,1540155993.173183,
344,33,Memory,6,,,,,,,00132931230fb.jpg,,,,,1.402,2.0,,,,,,,1540155994.590571,1540155997.040174,
345,33,Memory,6,,,,,,,sunbddbivbptlrlauhy.jpg,,,,,0.971,1.0,,,,,,,1540155998.441594,1540156000.875431,
346,33,Memory,6,,,,,,,00779941205fa.jpg,,,,,1.503,3.0,,,,,,,1540156002.259048,1540156004.693009,
347,33,Memory,6,,,,,,,00978960627fa.jpg,,,,,1.135,1.0,,,,,,,1540156006.126934,1540156008.577892,
348,33,Memory,6,,,,,,,00210940128fb.jpg,,,,,1.622,1.0,,,,,,,1540156009.978271,1540156012.561596,
349,33,Memory,6,,,,,,,00828940307fa.jpg,,,,,1.153,1.0,,,,,,,1540156014.030252,1540156016.497519,
