,Subject,Trial Type,Run,Cued Composite,Uncued Composite,Cued Face,Cued Place,Uncued Face,Uncued Place,Memory Image,Category,Cued Side,Cued Category,Attention Reaction Time (s),Familiarity Reaction Time (s),Familiarity Rating,Attention Level,Cue Validity,Post Invalid Cue,Pre Invalid Cue,Attention Button,Rating History,Stimulus Onset,Stimulus End,Attention Probe
0,0,Presentation,0,00864940307fa_sunajawzbrlrwafowen.jpg,00797960620fa_sunagufzbeteqdjxais.jpg,00864940307fa.jpg,sunajawzbrlrwafowen.jpg,00797960620fa.jpg,sunagufzbeteqdjxais.jpg,,,>,Face,,,,,1,,,,,,,o
1,0,Presentation,0,00978960627fa_sunbddbivbptlrlauhy.jpg,00116931230fa_sunaakqepfoeqomfgxf.jpg,00978960627fa.jpg,sunbddbivbptlrlauhy.jpg,00116931230fa.jpg,sunaakqepfoeqomfgxf.jpg,,,>,Face,,,,,1,,,,,,,x
2,0,Presentation,0,00789960620fa_sunagpancjmxqfazssf.jpg,00479940519fa_sunabxsbfwjccqxxzxq.jpg,00789960620fa.jpg,sunagpancjmxqfazssf.jpg,00479940519fa.jpg,sunabxsbfwjccqxxzxq.jpg,,,>,Face,,,,,1,,,,,,,x
3,0,Presentation,0,00138931230fa_sunaapfaivxqoynnwwp.jpg,00140931230fb_sunaapllqyqlykszopd.jpg,00138931230fa.jpg,sunaapfaivxqoynnwwp.jpg,00140931230fb.jpg,sunaapllqyqlykszopd.jpg,,,>,Face,,,,,1,,,,,,,o
4,0,Presentation,0,00635941031fa_sunaddsaeicthrfbkhe.jpg,00096931230fa_sunaaiqiqcggrskoqgy.jpg,00635941031fa.jpg,sunaddsaeicthrfbkhe.jpg,00096931230fa.jpg,sunaaiqiqcggrskoqgy.jpg,,,>,Face,,,,,1,,,,,,,x
5,0,Presentation,0,00815941205fa_sunahiphsekjihkafsl.jpg,00648941031fa_sunadfndyrtqqiasoig.jpg,00815941205fa.jpg,sunahiphsekjihkafsl.jpg,00648941031fa.jpg,sunadfndyrtqqiasoig.jpg,,,>,Face,,,,,1,,,,,,,x
6,0,Presentation,0,00115931230fa_sunaakmxzhuceuiryah.jpg,00073931230fa_sunaafbmtoniaasysgu.jpg,00115931230fa.jpg,sunaakmxzhuceuiryah.jpg,00073931230fa.jpg,sunaafbmtoniaasysgu.jpg,,,>,Face,,,,,1,,,,,,,o
7,0,Presentation,0,00144931230fb_sunaathajvxrgptwhoj.jpg,00822940307fa_sunahqrxievfeusiqlt.jpg,00144931230fb.jpg,sunaathajvxrgptwhoj.jpg,00822940307fa.jpg,sunahqrxievfeusiqlt.jpg,,,>,Face,,,,,1,,,,,,,o
8,0,Presentation,0,00308940422fb_sunabwfvcqqidycwypa.jpg,00208940128fa_sunaazzyhbvqjpmazjq.jpg,00308940422fb.jpg,sunabwfvcqqidycwypa.jpg,00208940128fa.jpg,sunaazzyhbvqjpmazjq.jpg,,,>,Face,,,,,1,,,,,,,o
9,0,Presentation,0,00564941031fa_sunacsaovnjezqwbykf.jpg,00989960627fa_sunbondbduabvijnmch.jpg,00564941031fa.jpg,sunacsaovnjezqwbykf.jpg,00989960627fa.jpg,sunbondbduabvijnmch.jpg,,,>,Face,,,,,1,,,,,,,x
10,0,Memory,0,,,,,,,sunadfndyrtqqiasoig.jpg,,,,,,,,,,,,,,,
11,0,Memory,0,,,,,,,00967960627fa.jpg,,,,,,,,,,,,,,,
12,0,Memory,0,,,,,,,00662941121fa.jpg,,,,,,,,,,,,,,,
13,0,Memory,0,,,,,,,00214940128fa.jpg,,,,,,,,,,,,,,,
14,0,Memory,0,,,,,,,sunaaiqiqcggrskoqgy.jpg,,,,,,,,,,,,,,,
15,0,Memory,0,,,,,,,sunaatjesvdupctftmn.jpg,,,,,,,,,,,,,,,
16,0,Memory,0,,,,,,,sunawotxrevnqvamsfp.jpg,,,,,,,,,,,,,,,
17,0,Memory,0,,,,,,,00760960620fa.jpg,,,,,,,,,,,,,,,
18,0,Memory,0,,,,,,,sunabbafjowbzcvbucc.jpg,,,,,,,,,,,,,,,
19,0,Memory,0,,,,,,,00140931230fb.jpg,,,,,,,,,,,,,,,
20,0,Memory,0,,,,,,,00961960627fa.jpg,,,,,,,,,,,,,,,
21,0,Memory,0,,,,,,,sunagvjurcwdbixvnyi.jpg,,,,,,,,,,,,,,,
22,0,Memory,0,,,,,,,sunaazzyhbvqjpmazjq.jpg,,,,,,,,,,,,,,,
23,0,Memory,0,,,,,,,sunacjkmnpawfzbyvae.jpg,,,,,,,,,,,,,,,
24,0,Memory,0,,,,,,,sunadkazmlajmohnwfl.jpg,,,,,,,,,,,,,,,
25,0,Memory,0,,,,,,,00785941205fa.jpg,,,,,,,,,,,,,,,
26,0,Memory,0,,,,,,,sunaakmxzhuceuiryah.jpg,,,,,,,,,,,,,,,
27,0,Memory,0,,,,,,,00564941031fa.jpg,,,,,,,,,,,,,,,
28,0,Memory,0,,,,,,,00648941031fa.jpg,,,,,,,,,,,,,,,
29,0,Memory,0,,,,,,,sunaglqunwuycxydmyu.jpg,,,,,,,,,,,,,,,
30,0,Memory,0,,,,,,,00978960627fa.jpg,,,,,,,,,,,,,,,
31,0,Memory,0,,,,,,,sunaahedjlmtqekgyvj.jpg,,,,,,,,,,,,,,,
32,0,Memory,0,,,,,,,00308940422fb.jpg,,,,,,,,,,,,,,,
33,0,Memory,0,,,,,,,sunahiphsekjihkafsl.jpg,,,,,,,,,,,,,,,
34,0,Memory,0,,,,,,,sunabwfvcqqidycwypa.jpg,,,,,,,,,,,,,,,
35,0,Memory,0,,,,,,,00145931230fb.jpg,,,,,,,,,,,,,,,
36,0,Memory,0,,,,,,,00559940519fa.jpg,,,,,,,,,,,,,,,
37,0,Memory,0,,,,,,,sunbaejotfklekvpxcz.jpg,,,,,,,,,,,,,,,
38,0,Memory,0,,,,,,,00090931230fa.jpg,,,,,,,,,,,,,,,
39,0,Memory,0,,,,,,,00800941205fb.jpg,,,,,,,,,,,,,,,
40,0,Memory,0,,,,,,,sunaapllqyqlykszopd.jpg,,,,,,,,,,,,,,,
41,0,Memory,0,,,,,,,sunbddbivbptlrlauhy.jpg,,,,,,,,,,,,,,,
42,0,Memory,0,,,,,,,00115931230fa.jpg,,,,,,,,,,,,,,,
43,0,Memory,0,,,,,,,00096931230fa.jpg,,,,,,,,,,,,,,,
44,0,Memory,0,,,,,,,sunahqrxievfeusiqlt.jpg,,,,,,,,,,,,,,,
45,0,Memory,0,,,,,,,00822940307fa.jpg,,,,,,,,,,,,,,,
46,0,Memory,0,,,,,,,00815941205fa.jpg,,,,,,,,,,,,,,,
47,0,Memory,0,,,,,,,sunaffstbkappprzxnv.jpg,,,,,,,,,,,,,,,
48,0,Memory,0,,,,,,,sunacsaovnjezqwbykf.jpg,,,,,,,,,,,,,,,
49,0,Memory,0,,,,,,,00208940128fa.jpg,,,,,,,,,,,,,,,
50,0,Presentation,1,00123931230fb_sunaalcrrdbjgdztbiz.jpg,00887960530_sunalcrtwiycqobgelp.jpg,00123931230fb.jpg,sunaalcrrdbjgdztbiz.jpg,00887960530.jpg,sunalcrtwiycqobgelp.jpg,,,<,Face,,,,,1,,,,,,,x
51,0,Presentation,1,00129931230fb_sunaamsdyakblkfoydx.jpg,00966960627fa_sunaygrtwrwfezqjizr.jpg,00129931230fb.jpg,sunaamsdyakblkfoydx.jpg,00966960627fa.jpg,sunaygrtwrwfezqjizr.jpg,,,<,Face,,,,,1,,,,,,,x
52,0,Presentation,1,00799941205fa_sunagutjvdvnhxejerz.jpg,00098931230fa_sunaajpqmulidejvjsr.jpg,00799941205fa.jpg,sunagutjvdvnhxejerz.jpg,00098931230fa.jpg,sunaajpqmulidejvjsr.jpg,,,<,Face,,,,,1,,,,,,,o
53,0,Presentation,1,00910960530fa_sunaofikylqtxphvdem.jpg,00960960627fa_sunawksfbacycuhbrsc.jpg,00910960530fa.jpg,sunaofikylqtxphvdem.jpg,00960960627fa.jpg,sunawksfbacycuhbrsc.jpg,,,<,Face,,,,,1,,,,,,,o
54,0,Presentation,1,00184940128fa_sunaavtbadenwnzeutj.jpg,00773960620fa_sunafvsxtzaizojicxx.jpg,00184940128fa.jpg,sunaavtbadenwnzeutj.jpg,00773960620fa.jpg,sunafvsxtzaizojicxx.jpg,,,<,Face,,,,,1,,,,,,,o
55,0,Presentation,1,00749941201fa_sunaeuvjbmdpknaqqaj.jpg,00999960627fa_sunbvbrvgbpanfrawft.jpg,00749941201fa.jpg,sunaeuvjbmdpknaqqaj.jpg,00999960627fa.jpg,sunbvbrvgbpanfrawft.jpg,,,<,Face,,,,,1,,,,,,,x
56,0,Presentation,1,00288940422fa_sunabppokiyglaxpcha.jpg,00562941031fa_sunacjnahdmqfnjfwqx.jpg,00288940422fa.jpg,sunabppokiyglaxpcha.jpg,00562941031fa.jpg,sunacjnahdmqfnjfwqx.jpg,,,<,Face,,,,,1,,,,,,,o
57,0,Presentation,1,00086931230fa_sunaafynehyrzpsoaml.jpg,00895960530fa_sunamczizlzavhzhpay.jpg,00086931230fa.jpg,sunaafynehyrzpsoaml.jpg,00895960530fa.jpg,sunamczizlzavhzhpay.jpg,,,<,Face,,,,,0,,,,,,,o
58,0,Presentation,1,00839940307fa_sunaipyohrqlwngaqif.jpg,00880960530fa_sunakmnfgklupjijsgf.jpg,00839940307fa.jpg,sunaipyohrqlwngaqif.jpg,00880960530fa.jpg,sunakmnfgklupjijsgf.jpg,,,<,Face,,,,,1,,,,,,,o
59,0,Presentation,1,00112931230fa_sunaakjaacuzulqckgl.jpg,00780960530fa_sunagetqixeypsysbpn.jpg,00112931230fa.jpg,sunaakjaacuzulqckgl.jpg,00780960530fa.jpg,sunagetqixeypsysbpn.jpg,,,<,Face,,,,,1,,,,,,,o
60,0,Memory,1,,,,,,,sunaakjaacuzulqckgl.jpg,,,,,,,,,,,,,,,
61,0,Memory,1,,,,,,,sunabyvpwkgsjtijdwj.jpg,,,,,,,,,,,,,,,
62,0,Memory,1,,,,,,,00880960530fa.jpg,,,,,,,,,,,,,,,
63,0,Memory,1,,,,,,,sunaapxkpvrhpjplsok.jpg,,,,,,,,,,,,,,,
64,0,Memory,1,,,,,,,sunagetqixeypsysbpn.jpg,,,,,,,,,,,,,,,
65,0,Memory,1,,,,,,,sunadsgmtznewzyasnk.jpg,,,,,,,,,,,,,,,
66,0,Memory,1,,,,,,,00773960620fa.jpg,,,,,,,,,,,,,,,
67,0,Memory,1,,,,,,,00955960627fb.jpg,,,,,,,,,,,,,,,
68,0,Memory,1,,,,,,,00112931230fa.jpg,,,,,,,,,,,,,,,
69,0,Memory,1,,,,,,,00124931230fa.jpg,,,,,,,,,,,,,,,
70,0,Memory,1,,,,,,,00887960530.jpg,,,,,,,,,,,,,,,
71,0,Memory,1,,,,,,,00839940307fa.jpg,,,,,,,,,,,,,,,
72,0,Memory,1,,,,,,,sunablfqiwfqomjarht.jpg,,,,,,,,,,,,,,,
73,0,Memory,1,,,,,,,00086931230fa.jpg,,,,,,,,,,,,,,,
74,0,Memory,1,,,,,,,sunauburywlkjszngcq.jpg,,,,,,,,,,,,,,,
75,0,Memory,1,,,,,,,00142931230fb.jpg,,,,,,,,,,,,,,,
76,0,Memory,1,,,,,,,sunaalhlvzmjmitybdn.jpg,,,,,,,,,,,,,,,
77,0,Memory,1,,,,,,,sunajwqkfsykceonyig.jpg,,,,,,,,,,,,,,,
78,0,Memory,1,,,,,,,00061931230fb.jpg,,,,,,,,,,,,,,,
79,0,Memory,1,,,,,,,sunaamsdyakblkfoydx.jpg,,,,,,,,,,,,,,,
80,0,Memory,1,,,,,,,sunbfyvfqiimvdaxlqn.jpg,,,,,,,,,,,,,,,
81,0,Memory,1,,,,,,,sunaalcrrdbjgdztbiz.jpg,,,,,,,,,,,,,,,
82,0,Memory,1,,,,,,,00876960620fa.jpg,,,,,,,,,,,,,,,
83,0,Memory,1,,,,,,,sunalcrtwiycqobgelp.jpg,,,,,,,,,,,,,,,
84,0,Memory,1,,,,,,,00123931230fb.jpg,,,,,,,,,,,,,,,
85,0,Memory,1,,,,,,,00483940519fa.jpg,,,,,,,,,,,,,,,
86,0,Memory,1,,,,,,,sunaaekxzjzrfgtkwjf.jpg,,,,,,,,,,,,,,,
87,0,Memory,1,,,,,,,00267940128fb.jpg,,,,,,,,,,,,,,,
88,0,Memory,1,,,,,,,00780960530fa.jpg,,,,,,,,,,,,,,,
89,0,Memory,1,,,,,,,00848940307fa.jpg,,,,,,,,,,,,,,,
90,0,Memory,1,,,,,,,sunafvsxtzaizojicxx.jpg,,,,,,,,,,,,,,,
91,0,Memory,1,,,,,,,00129931230fb.jpg,,,,,,,,,,,,,,,
92,0,Memory,1,,,,,,,sunakmnfgklupjijsgf.jpg,,,,,,,,,,,,,,,
93,0,Memory,1,,,,,,,00700941121fa.jpg,,,,,,,,,,,,,,,
94,0,Memory,1,,,,,,,00966960627fa.jpg,,,,,,,,,,,,,,,
95,0,Memory,1,,,,,,,sunaygrtwrwfezqjizr.jpg,,,,,,,,,,,,,,,
96,0,Memory,1,,,,,,,sunaafynehyrzpsoaml.jpg,,,,,,,,,,,,,,,
97,0,Memory,1,,,,,,,sunaivdylrawbmhryfp.jpg,,,,,,,,,,,,,,,
98,0,Memory,1,,,,,,,sunaipyohrqlwngaqif.jpg,,,,,,,,,,,,,,,
99,0,Memory,1,,,,,,,00983960627fa.jpg,,,,,,,,,,,,,,,
100,0,Presentation,2,00263940128fb_sunabjuovqvyfuzvqwt.jpg,00884960530fa_sunakodkcslgqhqlgwl.jpg,00263940128fb.jpg,sunabjuovqvyfuzvqwt.jpg,00884960530fa.jpg,sunakodkcslgqhqlgwl.jpg,,,>,Face,,,,,1,,,,,,,o
101,0,Presentation,2,00793941205fa_sunagtjwilqjvxohypn.jpg,00997960627fa_sunbtpilbhhbmhmeuzq.jpg,00793941205fa.jpg,sunagtjwilqjvxohypn.jpg,00997960627fa.jpg,sunbtpilbhhbmhmeuzq.jpg,,,>,Face,,,,,1,,,,,,,x
102,0,Presentation,2,00211940128fa_sunabasphceswhwwqvv.jpg,00146960620fb_sunaatpeezlljqaxlhj.jpg,00211940128fa.jpg,sunabasphceswhwwqvv.jpg,00146960620fb.jpg,sunaatpeezlljqaxlhj.jpg,,,>,Face,,,,,1,,,,,,,o
103,0,Presentation,2,00970960627fa_sunbasypfgzjtomktmu.jpg,00947960627fa_sunasmmcxdddtmtazwx.jpg,00970960627fa.jpg,sunbasypfgzjtomktmu.jpg,00947960627fa.jpg,sunasmmcxdddtmtazwx.jpg,,,>,Face,,,,,0,,,,,,,x
104,0,Presentation,2,00902960530fa_sunanaacmmosxrfwmvl.jpg,01003960627fb_sunbwdrdvsweerwsdrj.jpg,00902960530fa.jpg,sunanaacmmosxrfwmvl.jpg,01003960627fb.jpg,sunbwdrdvsweerwsdrj.jpg,,,>,Face,,,,,1,,,,,,,x
105,0,Presentation,2,00986960627fa_sunbgzjryivyczuvkvm.jpg,00598940928fa_sunacxeheuiigkcgquf.jpg,00986960627fa.jpg,sunbgzjryivyczuvkvm.jpg,00598940928fa.jpg,sunacxeheuiigkcgquf.jpg,,,>,Face,,,,,1,,,,,,,o
106,0,Presentation,2,00101931230fb_sunaajqmsaavkmgbsth.jpg,00774941201fa_sunafvtpfczkzopbgue.jpg,00101931230fb.jpg,sunaajqmsaavkmgbsth.jpg,00774941201fa.jpg,sunafvtpfczkzopbgue.jpg,,,>,Face,,,,,1,,,,,,,x
107,0,Presentation,2,00581940928fa_sunacvzhvcksnwqcqbw.jpg,00933960627fa_sunapwjkcxdaeqehfql.jpg,00581940928fa.jpg,sunacvzhvcksnwqcqbw.jpg,00933960627fa.jpg,sunapwjkcxdaeqehfql.jpg,,,>,Face,,,,,1,,,,,,,x
108,0,Presentation,2,00316940422fa_sunabxmguapjekttvwm.jpg,00943960627fa_sunarpsxqkduedrrzyi.jpg,00316940422fa.jpg,sunabxmguapjekttvwm.jpg,00943960627fa.jpg,sunarpsxqkduedrrzyi.jpg,,,>,Face,,,,,1,,,,,,,x
109,0,Presentation,2,00894960620fa_sunalqmfgeadpqsyzpd.jpg,00996960627fa_sunbpvgllfdejxcpjqp.jpg,00894960620fa.jpg,sunalqmfgeadpqsyzpd.jpg,00996960627fa.jpg,sunbpvgllfdejxcpjqp.jpg,,,>,Face,,,,,1,,,,,,,o
110,0,Memory,2,,,,,,,sunaloffvbvysigxent.jpg,,,,,,,,,,,,,,,
111,0,Memory,2,,,,,,,00976960627fa.jpg,,,,,,,,,,,,,,,
112,0,Memory,2,,,,,,,00263940128fb.jpg,,,,,,,,,,,,,,,
113,0,Memory,2,,,,,,,00898960530fa.jpg,,,,,,,,,,,,,,,
114,0,Memory,2,,,,,,,sunaajqmsaavkmgbsth.jpg,,,,,,,,,,,,,,,
115,0,Memory,2,,,,,,,00943960627fa.jpg,,,,,,,,,,,,,,,
116,0,Memory,2,,,,,,,00266940128fb.jpg,,,,,,,,,,,,,,,
117,0,Memory,2,,,,,,,sunbpvgllfdejxcpjqp.jpg,,,,,,,,,,,,,,,
118,0,Memory,2,,,,,,,00080931230fb.jpg,,,,,,,,,,,,,,,
119,0,Memory,2,,,,,,,sunaaeplwsfslcbtojr.jpg,,,,,,,,,,,,,,,
120,0,Memory,2,,,,,,,sunamkmeblgteyggink.jpg,,,,,,,,,,,,,,,
121,0,Memory,2,,,,,,,sunajjxttslobudoqbv.jpg,,,,,,,,,,,,,,,
122,0,Memory,2,,,,,,,sunbasypfgzjtomktmu.jpg,,,,,,,,,,,,,,,
123,0,Memory,2,,,,,,,sunabkngeblodihjvbk.jpg,,,,,,,,,,,,,,,
124,0,Memory,2,,,,,,,sunacxeheuiigkcgquf.jpg,,,,,,,,,,,,,,,
125,0,Memory,2,,,,,,,00970960627fa.jpg,,,,,,,,,,,,,,,
126,0,Memory,2,,,,,,,sunabjuovqvyfuzvqwt.jpg,,,,,,,,,,,,,,,
127,0,Memory,2,,,,,,,00996960627fa.jpg,,,,,,,,,,,,,,,
128,0,Memory,2,,,,,,,sunaakxgygjfqrzpyoz.jpg,,,,,,,,,,,,,,,
129,0,Memory,2,,,,,,,00120931230fa.jpg,,,,,,,,,,,,,,,
130,0,Memory,2,,,,,,,00598940928fa.jpg,,,,,,,,,,,,,,,
131,0,Memory,2,,,,,,,sunaafjszryxyavjzln.jpg,,,,,,,,,,,,,,,
132,0,Memory,2,,,,,,,sunbbhqyyzmsxhsbjmp.jpg,,,,,,,,,,,,,,,
133,0,Memory,2,,,,,,,00316940422fa.jpg,,,,,,,,,,,,,,,
134,0,Memory,2,,,,,,,00101931230fb.jpg,,,,,,,,,,,,,,,
135,0,Memory,2,,,,,,,00894960620fa.jpg,,,,,,,,,,,,,,,
136,0,Memory,2,,,,,,,sunasmmcxdddtmtazwx.jpg,,,,,,,,,,,,,,,
137,0,Memory,2,,,,,,,00868960307fa.jpg,,,,,,,,,,,,,,,
138,0,Memory,2,,,,,,,sunabxmguapjekttvwm.jpg,,,,,,,,,,,,,,,
139,0,Memory,2,,,,,,,sunajrgtewnualfcerj.jpg,,,,,,,,,,,,,,,
140,0,Memory,2,,,,,,,00947960627fa.jpg,,,,,,,,,,,,,,,
141,0,Memory,2,,,,,,,00070940307fa.jpg,,,,,,,,,,,,,,,
142,0,Memory,2,,,,,,,sunarpsxqkduedrrzyi.jpg,,,,,,,,,,,,,,,
143,0,Memory,2,,,,,,,sunbtpilbhhbmhmeuzq.jpg,,,,,,,,,,,,,,,
144,0,Memory,2,,,,,,,sunaajuzribjrizdshh.jpg,,,,,,,,,,,,,,,
145,0,Memory,2,,,,,,,00893960530Fa.jpg,,,,,,,,,,,,,,,
146,0,Memory,2,,,,,,,00109931230fa.jpg,,,,,,,,,,,,,,,
147,0,Memory,2,,,,,,,sunalqmfgeadpqsyzpd.jpg,,,,,,,,,,,,,,,
148,0,Memory,2,,,,,,,00870940307fa.jpg,,,,,,,,,,,,,,,
149,0,Memory,2,,,,,,,00997960627fa.jpg,,,,,,,,,,,,,,,
150,0,Presentation,3,00290940422fa_sunabqowuarvqqcnipn.jpg,00498960627fa_sunabzjxlmkwnwzimua.jpg,00290940422fa.jpg,sunabqowuarvqqcnipn.jpg,00498960627fa.jpg,sunabzjxlmkwnwzimua.jpg,,,>,Place,,,,,1,,,,,,,o
151,0,Presentation,3,00838940307fa_sunaiozxhxgtfrmoagh.jpg,00235940128fb_sunabclssnoeuigtawp.jpg,00838940307fa.jpg,sunaiozxhxgtfrmoagh.jpg,00235940128fb.jpg,sunabclssnoeuigtawp.jpg,,,>,Place,,,,,0,,,,,,,o
152,0,Presentation,3,00792941205fa_sunagsiwrmuixqgdimb.jpg,00929960627fa_sunaprnrbmgkomdbchr.jpg,00792941205fa.jpg,sunagsiwrmuixqgdimb.jpg,00929960627fa.jpg,sunaprnrbmgkomdbchr.jpg,,,>,Place,,,,,1,,,,,,,x
153,0,Presentation,3,00787941205fa_sunagmwxxwymwojbvgi.jpg,00589940928fa_sunacwggadqsfpovdjv.jpg,00787941205fa.jpg,sunagmwxxwymwojbvgi.jpg,00589940928fa.jpg,sunacwggadqsfpovdjv.jpg,,,>,Place,,,,,1,,,,,,,o
154,0,Presentation,3,00922960627fa_sunapqkyghktgtosuuk.jpg,00786941205fa_sunagmhildamktmqjss.jpg,00922960627fa.jpg,sunapqkyghktgtosuuk.jpg,00786941205fa.jpg,sunagmhildamktmqjss.jpg,,,>,Place,,,,,1,,,,,,,x
155,0,Presentation,3,00915960620fa_sunapileznnbbmrwoei.jpg,00791941205fa_sunagrmyoovzukhxmlo.jpg,00915960620fa.jpg,sunapileznnbbmrwoei.jpg,00791941205fa.jpg,sunagrmyoovzukhxmlo.jpg,,,>,Place,,,,,1,,,,,,,o
156,0,Presentation,3,00761960627fa_sunafgdqbclkwfocdhg.jpg,00770941201fa_sunaflojskatpeqyzqp.jpg,00761960627fa.jpg,sunafgdqbclkwfocdhg.jpg,00770941201fa.jpg,sunaflojskatpeqyzqp.jpg,,,>,Place,,,,,1,,,,,,,o
157,0,Presentation,3,00280940422fb_sunabohxbskznglnrhv.jpg,00630940928fa_sunaczwgyukesaajxnx.jpg,00280940422fb.jpg,sunabohxbskznglnrhv.jpg,00630940928fa.jpg,sunaczwgyukesaajxnx.jpg,,,>,Place,,,,,1,,,,,,,x
158,0,Presentation,3,00292940422fb_sunabrjdpmoedcdjbpo.jpg,00985960627fa_sunbgklxeqjhdbyfhhy.jpg,00292940422fb.jpg,sunabrjdpmoedcdjbpo.jpg,00985960627fa.jpg,sunbgklxeqjhdbyfhhy.jpg,,,>,Place,,,,,1,,,,,,,o
159,0,Presentation,3,00773941201fa_sunafvcflzhlqloapyo.jpg,00069931230fb_sunaaeowapdkwzqpgqr.jpg,00773941201fa.jpg,sunafvcflzhlqloapyo.jpg,00069931230fb.jpg,sunaaeowapdkwzqpgqr.jpg,,,>,Place,,,,,1,,,,,,,x
160,0,Memory,3,,,,,,,00922960627fa.jpg,,,,,,,,,,,,,,,
161,0,Memory,3,,,,,,,00076931230fa.jpg,,,,,,,,,,,,,,,
162,0,Memory,3,,,,,,,00209940128fb.jpg,,,,,,,,,,,,,,,
163,0,Memory,3,,,,,,,00838940307fa.jpg,,,,,,,,,,,,,,,
164,0,Memory,3,,,,,,,00787941205fa.jpg,,,,,,,,,,,,,,,
165,0,Memory,3,,,,,,,sunabaergayifsgacxt.jpg,,,,,,,,,,,,,,,
166,0,Memory,3,,,,,,,00915960620fa.jpg,,,,,,,,,,,,,,,
167,0,Memory,3,,,,,,,sunapileznnbbmrwoei.jpg,,,,,,,,,,,,,,,
168,0,Memory,3,,,,,,,sunaalltyvjhbzhkmvg.jpg,,,,,,,,,,,,,,,
169,0,Memory,3,,,,,,,sunagmwxxwymwojbvgi.jpg,,,,,,,,,,,,,,,
170,0,Memory,3,,,,,,,00576941031fa.jpg,,,,,,,,,,,,,,,
171,0,Memory,3,,,,,,,00270940422fb.jpg,,,,,,,,,,,,,,,
172,0,Memory,3,,,,,,,sunacwggadqsfpovdjv.jpg,,,,,,,,,,,,,,,
173,0,Memory,3,,,,,,,sunaffgsyyvoqdlkmnk.jpg,,,,,,,,,,,,,,,
174,0,Memory,3,,,,,,,sunagrmyoovzukhxmlo.jpg,,,,,,,,,,,,,,,
175,0,Memory,3,,,,,,,00125931230fa.jpg,,,,,,,,,,,,,,,
176,0,Memory,3,,,,,,,sunadfktsqjthoglcsm.jpg,,,,,,,,,,,,,,,
177,0,Memory,3,,,,,,,00791941205fa.jpg,,,,,,,,,,,,,,,
178,0,Memory,3,,,,,,,00630940928fa.jpg,,,,,,,,,,,,,,,
179,0,Memory,3,,,,,,,sunabllobxadqcyttej.jpg,,,,,,,,,,,,,,,
180,0,Memory,3,,,,,,,00571940928fa.jpg,,,,,,,,,,,,,,,
181,0,Memory,3,,,,,,,sunapqkyghktgtosuuk.jpg,,,,,,,,,,,,,,,
182,0,Memory,3,,,,,,,00198940128fb.jpg,,,,,,,,,,,,,,,
183,0,Memory,3,,,,,,,sunacvjlsylseoghjup.jpg,,,,,,,,,,,,,,,
184,0,Memory,3,,,,,,,00929960627fa.jpg,,,,,,,,,,,,,,,
185,0,Memory,3,,,,,,,00638941031fa.jpg,,,,,,,,,,,,,,,
186,0,Memory,3,,,,,,,sunacuatpqpqhyjhjqk.jpg,,,,,,,,,,,,,,,
187,0,Memory,3,,,,,,,sunabzjxlmkwnwzimua.jpg,,,,,,,,,,,,,,,
188,0,Memory,3,,,,,,,00568940928fa.jpg,,,,,,,,,,,,,,,
189,0,Memory,3,,,,,,,00589940928fa.jpg,,,,,,,,,,,,,,,
190,0,Memory,3,,,,,,,sunaazezcsunmhttzxz.jpg,,,,,,,,,,,,,,,
191,0,Memory,3,,,,,,,00754941201fa.jpg,,,,,,,,,,,,,,,
192,0,Memory,3,,,,,,,sunacsdhbbsybcyxnel.jpg,,,,,,,,,,,,,,,
193,0,Memory,3,,,,,,,sunabqowuarvqqcnipn.jpg,,,,,,,,,,,,,,,
194,0,Memory,3,,,,,,,sunaiozxhxgtfrmoagh.jpg,,,,,,,,,,,,,,,
195,0,Memory,3,,,,,,,00498960627fa.jpg,,,,,,,,,,,,,,,
196,0,Memory,3,,,,,,,sunaczwgyukesaajxnx.jpg,,,,,,,,,,,,,,,
197,0,Memory,3,,,,,,,sunaprnrbmgkomdbchr.jpg,,,,,,,,,,,,,,,
198,0,Memory,3,,,,,,,sunaafewhewbxmjiurz.jpg,,,,,,,,,,,,,,,
199,0,Memory,3,,,,,,,00290940422fa.jpg,,,,,,,,,,,,,,,
200,0,Presentation,4,00775941205fa_sunafvwfsmqkjrutjta.jpg,00841940307fa_sunaisiwfgppimtnmxl.jpg,00775941205fa.jpg,sunafvwfsmqkjrutjta.jpg,00841940307fa.jpg,sunaisiwfgppimtnmxl.jpg,,,<,Place,,,,,1,,,,,,,o
201,0,Presentation,4,00913960530fa_sunaooffzffbhcpirmm.jpg,00242940128fa_sunabcuurugvxwparpk.jpg,00913960530fa.jpg,sunaooffzffbhcpirmm.jpg,00242940128fa.jpg,sunabcuurugvxwparpk.jpg,,,<,Place,,,,,1,,,,,,,o
202,0,Presentation,4,00925960627fa_sunapqwnqzxlsfvgsjm.jpg,00185940422fb_sunaawqdbpihmlbwyyn.jpg,00925960627fa.jpg,sunapqwnqzxlsfvgsjm.jpg,00185940422fb.jpg,sunaawqdbpihmlbwyyn.jpg,,,<,Place,,,,,1,,,,,,,x
203,0,Presentation,4,00631940928fa_sunadbdqzigzwipuipr.jpg,00805941205fa_sunagwzdbtlixdhgolm.jpg,00631940928fa.jpg,sunadbdqzigzwipuipr.jpg,00805941205fa.jpg,sunagwzdbtlixdhgolm.jpg,,,<,Place,,,,,0,,,,,,,x
204,0,Presentation,4,00957960627fa_sunavhxgmgrqsaptynb.jpg,00857940307fa_sunaiwfobocrruqznsv.jpg,00957960627fa.jpg,sunavhxgmgrqsaptynb.jpg,00857940307fa.jpg,sunaiwfobocrruqznsv.jpg,,,<,Place,,,,,1,,,,,,,x
205,0,Presentation,4,00260940128fa_sunabgfhvifeijihhjw.jpg,00723941201fa_sunaedtgwjvvziytspa.jpg,00260940128fa.jpg,sunabgfhvifeijihhjw.jpg,00723941201fa.jpg,sunaedtgwjvvziytspa.jpg,,,<,Place,,,,,0,,,,,,,o
206,0,Presentation,4,00108960530fa_sunaajtnvzzpsjdzres.jpg,00705960530fa_sunaduslxfzlbxlllnz.jpg,00108960530fa.jpg,sunaajtnvzzpsjdzres.jpg,00705960530fa.jpg,sunaduslxfzlbxlllnz.jpg,,,<,Place,,,,,1,,,,,,,x
207,0,Presentation,4,00133931230fa_sunaanlwnpqndclffxt.jpg,00874940307fa_sunajtrfunvzdfticna.jpg,00133931230fa.jpg,sunaanlwnpqndclffxt.jpg,00874940307fa.jpg,sunajtrfunvzdfticna.jpg,,,<,Place,,,,,1,,,,,,,o
208,0,Presentation,4,00794960620fa_sunagtqhhwxjeuxdebe.jpg,00801941205fa_sunagvprlbprarvgdvj.jpg,00794960620fa.jpg,sunagtqhhwxjeuxdebe.jpg,00801941205fa.jpg,sunagvprlbprarvgdvj.jpg,,,<,Place,,,,,1,,,,,,,x
209,0,Presentation,4,01002960627fb_sunbwaafjdebjzttuvq.jpg,00979960627fa_sunbdycacjfaujxitbw.jpg,01002960627fb.jpg,sunbwaafjdebjzttuvq.jpg,00979960627fa.jpg,sunbdycacjfaujxitbw.jpg,,,<,Place,,,,,1,,,,,,,x
210,0,Memory,4,,,,,,,sunagtqhhwxjeuxdebe.jpg,,,,,,,,,,,,,,,
211,0,Memory,4,,,,,,,00953960627fa.jpg,,,,,,,,,,,,,,,
212,0,Memory,4,,,,,,,00857940307fa.jpg,,,,,,,,,,,,,,,
213,0,Memory,4,,,,,,,00676941121fa.jpg,,,,,,,,,,,,,,,
214,0,Memory,4,,,,,,,sunaooffzffbhcpirmm.jpg,,,,,,,,,,,,,,,
215,0,Memory,4,,,,,,,sundahdxwmcdluscvot.jpg,,,,,,,,,,,,,,,
216,0,Memory,4,,,,,,,sunajtrfunvzdfticna.jpg,,,,,,,,,,,,,,,
217,0,Memory,4,,,,,,,sunafvwfsmqkjrutjta.jpg,,,,,,,,,,,,,,,
218,0,Memory,4,,,,,,,sunadpnqovzckyikrjo.jpg,,,,,,,,,,,,,,,
219,0,Memory,4,,,,,,,sunbbfqwjpdxniyhies.jpg,,,,,,,,,,,,,,,
220,0,Memory,4,,,,,,,sunaecpkgfewqqreqwe.jpg,,,,,,,,,,,,,,,
221,0,Memory,4,,,,,,,00903960620fa.jpg,,,,,,,,,,,,,,,
222,0,Memory,4,,,,,,,sunavhxgmgrqsaptynb.jpg,,,,,,,,,,,,,,,
223,0,Memory,4,,,,,,,00913960530fa.jpg,,,,,,,,,,,,,,,
224,0,Memory,4,,,,,,,00931960627fa.jpg,,,,,,,,,,,,,,,
225,0,Memory,4,,,,,,,00944960627fa.jpg,,,,,,,,,,,,,,,
226,0,Memory,4,,,,,,,00874940307fa.jpg,,,,,,,,,,,,,,,
227,0,Memory,4,,,,,,,00957960627fa.jpg,,,,,,,,,,,,,,,
228,0,Memory,4,,,,,,,00794960620fa.jpg,,,,,,,,,,,,,,,
229,0,Memory,4,,,,,,,sunaiwfobocrruqznsv.jpg,,,,,,,,,,,,,,,
230,0,Memory,4,,,,,,,00720960620fa.jpg,,,,,,,,,,,,,,,
231,0,Memory,4,,,,,,,sunbdycacjfaujxitbw.jpg,,,,,,,,,,,,,,,
232,0,Memory,4,,,,,,,00805941205fa.jpg,,,,,,,,,,,,,,,
233,0,Memory,4,,,,,,,00108960530fa.jpg,,,,,,,,,,,,,,,
234,0,Memory,4,,,,,,,sunaajtnvzzpsjdzres.jpg,,,,,,,,,,,,,,,
235,0,Memory,4,,,,,,,00775941205fa.jpg,,,,,,,,,,,,,,,
236,0,Memory,4,,,,,,,sunabmbnddafmywtjjj.jpg,,,,,,,,,,,,,,,
237,0,Memory,4,,,,,,,00972960627fa.jpg,,,,,,,,,,,,,,,
238,0,Memory,4,,,,,,,01011960627fa.jpg,,,,,,,,,,,,,,,
239,0,Memory,4,,,,,,,sunaawqdbpihmlbwyyn.jpg,,,,,,,,,,,,,,,
240,0,Memory,4,,,,,,,00979960627fa.jpg,,,,,,,,,,,,,,,
241,0,Memory,4,,,,,,,sunbxzweleltykebgan.jpg,,,,,,,,,,,,,,,
242,0,Memory,4,,,,,,,sunasbbntuiheekqyaq.jpg,,,,,,,,,,,,,,,
243,0,Memory,4,,,,,,,sunaptrqvaooxfvktvw.jpg,,,,,,,,,,,,,,,
244,0,Memory,4,,,,,,,sunatstrpjxhvtbaczf.jpg,,,,,,,,,,,,,,,
245,0,Memory,4,,,,,,,sunanainkqdvktzoxyl.jpg,,,,,,,,,,,,,,,
246,0,Memory,4,,,,,,,00185940422fb.jpg,,,,,,,,,,,,,,,
247,0,Memory,4,,,,,,,01009960627fa.jpg,,,,,,,,,,,,,,,
248,0,Memory,4,,,,,,,00271940422fa.jpg,,,,,,,,,,,,,,,
249,0,Memory,4,,,,,,,sunagwzdbtlixdhgolm.jpg,,,,,,,,,,,,,,,
250,0,Presentation,5,00675941121fa_sunadoxcchtmsxewsau.jpg,00825940307fa_sunahrltmuwbiehihpe.jpg,00675941121fa.jpg,sunadoxcchtmsxewsau.jpg,00825940307fa.jpg,sunahrltmuwbiehihpe.jpg,,,<,Place,,,,,1,,,,,,,o
251,0,Presentation,5,00892960530fa_sunalntxqqadigcletd.jpg,00262940128fa_sunabizydfotqddlnjp.jpg,00892960530fa.jpg,sunalntxqqadigcletd.jpg,00262940128fa.jpg,sunabizydfotqddlnjp.jpg,,,<,Place,,,,,1,,,,,,,x
252,0,Presentation,5,00935960627fa_sunaqbmgkgqucajzrkp.jpg,00779941205fa_sunagdzlvkqtpnfxfcg.jpg,00935960627fa.jpg,sunaqbmgkgqucajzrkp.jpg,00779941205fa.jpg,sunagdzlvkqtpnfxfcg.jpg,,,<,Place,,,,,1,,,,,,,o
253,0,Presentation,5,00977960627fa_sunbbxkanhzjgbwyxqs.jpg,00790941205fa_sunagpjzsbltchlwvou.jpg,00977960627fa.jpg,sunbbxkanhzjgbwyxqs.jpg,00790941205fa.jpg,sunagpjzsbltchlwvou.jpg,,,<,Place,,,,,1,,,,,,,o
254,0,Presentation,5,00828940307fa_sunahuynahneraqftyz.jpg,00663941121fa_sunadnjjzohjhbohlwq.jpg,00828940307fa.jpg,sunahuynahneraqftyz.jpg,00663941121fa.jpg,sunadnjjzohjhbohlwq.jpg,,,<,Place,,,,,1,,,,,,,o
255,0,Presentation,5,00082931230fa_sunaafvitpexrpvumsa.jpg,00795941205fa_sunagtumacdlmciqamz.jpg,00082931230fa.jpg,sunaafvitpexrpvumsa.jpg,00795941205fa.jpg,sunagtumacdlmciqamz.jpg,,,<,Place,,,,,1,,,,,,,x
256,0,Presentation,5,00574940928fa_sunacvbrcejzwmcgnoq.jpg,00136931230fb_sunaanptmsknhirrzed.jpg,00574940928fa.jpg,sunacvbrcejzwmcgnoq.jpg,00136931230fb.jpg,sunaanptmsknhirrzed.jpg,,,<,Place,,,,,1,,,,,,,x
257,0,Presentation,5,00481940519fa_sunabxsuqbleluwczoy.jpg,00294940422fb_sunabrlndkruqokhury.jpg,00481940519fa.jpg,sunabxsuqbleluwczoy.jpg,00294940422fb.jpg,sunabrlndkruqokhury.jpg,,,<,Place,,,,,1,,,,,,,o
258,0,Presentation,5,00752960620fa_sunafbwnojpqeyzssoe.jpg,00719941201fa_sunadvithllcgmfxsrn.jpg,00752960620fa.jpg,sunafbwnojpqeyzssoe.jpg,00719941201fa.jpg,sunadvithllcgmfxsrn.jpg,,,<,Place,,,,,1,,,,,,,x
259,0,Presentation,5,00860940307fa_sunaizeyhvjzknwjudw.jpg,00949960627fb_sunasnqkkyhilqkxiqm.jpg,00860940307fa.jpg,sunaizeyhvjzknwjudw.jpg,00949960627fb.jpg,sunasnqkkyhilqkxiqm.jpg,,,<,Place,,,,,1,,,,,,,x
260,0,Memory,5,,,,,,,sunaaheqzstzxuadglu.jpg,,,,,,,,,,,,,,,
261,0,Memory,5,,,,,,,sunbmaiocftdtvnzgap.jpg,,,,,,,,,,,,,,,
262,0,Memory,5,,,,,,,00092931230fa.jpg,,,,,,,,,,,,,,,
263,0,Memory,5,,,,,,,sunagtumacdlmciqamz.jpg,,,,,,,,,,,,,,,
264,0,Memory,5,,,,,,,00908960530fa.jpg,,,,,,,,,,,,,,,
265,0,Memory,5,,,,,,,00935960627fa.jpg,,,,,,,,,,,,,,,
266,0,Memory,5,,,,,,,00507940519fa.jpg,,,,,,,,,,,,,,,
267,0,Memory,5,,,,,,,sunasnqkkyhilqkxiqm.jpg,,,,,,,,,,,,,,,
268,0,Memory,5,,,,,,,00130931230fa.jpg,,,,,,,,,,,,,,,
269,0,Memory,5,,,,,,,sunbloeoiozwjjsiamp.jpg,,,,,,,,,,,,,,,
270,0,Memory,5,,,,,,,00949960627fb.jpg,,,,,,,,,,,,,,,
271,0,Memory,5,,,,,,,00481940519fa.jpg,,,,,,,,,,,,,,,
272,0,Memory,5,,,,,,,sunanwjjyqqwzqrqagd.jpg,,,,,,,,,,,,,,,
273,0,Memory,5,,,,,,,sunabxsuqbleluwczoy.jpg,,,,,,,,,,,,,,,
274,0,Memory,5,,,,,,,sunadvithllcgmfxsrn.jpg,,,,,,,,,,,,,,,
275,0,Memory,5,,,,,,,sunafpfpiiujzoesnqg.jpg,,,,,,,,,,,,,,,
276,0,Memory,5,,,,,,,sunbbxkanhzjgbwyxqs.jpg,,,,,,,,,,,,,,,
277,0,Memory,5,,,,,,,sunacacflqoyxhsqzhe.jpg,,,,,,,,,,,,,,,
278,0,Memory,5,,,,,,,00675941121fa.jpg,,,,,,,,,,,,,,,
279,0,Memory,5,,,,,,,00111931230fb.jpg,,,,,,,,,,,,,,,
280,0,Memory,5,,,,,,,00987960627fa.jpg,,,,,,,,,,,,,,,
281,0,Memory,5,,,,,,,sunaqbmgkgqucajzrkp.jpg,,,,,,,,,,,,,,,
282,0,Memory,5,,,,,,,00825940307fa.jpg,,,,,,,,,,,,,,,
283,0,Memory,5,,,,,,,00620940928fa.jpg,,,,,,,,,,,,,,,
284,0,Memory,5,,,,,,,00795941205fa.jpg,,,,,,,,,,,,,,,
285,0,Memory,5,,,,,,,sunahrltmuwbiehihpe.jpg,,,,,,,,,,,,,,,
286,0,Memory,5,,,,,,,00772941201fa.jpg,,,,,,,,,,,,,,,
287,0,Memory,5,,,,,,,00990960627fa.jpg,,,,,,,,,,,,,,,
288,0,Memory,5,,,,,,,sunahuynahneraqftyz.jpg,,,,,,,,,,,,,,,
289,0,Memory,5,,,,,,,00988960627fa.jpg,,,,,,,,,,,,,,,
290,0,Memory,5,,,,,,,00136931230fb.jpg,,,,,,,,,,,,,,,
291,0,Memory,5,,,,,,,sunaamvxnvouicstkjb.jpg,,,,,,,,,,,,,,,
292,0,Memory,5,,,,,,,sunaakgekhjklxmvulj.jpg,,,,,,,,,,,,,,,
293,0,Memory,5,,,,,,,sunaanptmsknhirrzed.jpg,,,,,,,,,,,,,,,
294,0,Memory,5,,,,,,,sunadoxcchtmsxewsau.jpg,,,,,,,,,,,,,,,
295,0,Memory,5,,,,,,,sunacypmnujalygkunp.jpg,,,,,,,,,,,,,,,
296,0,Memory,5,,,,,,,00828940307fa.jpg,,,,,,,,,,,,,,,
297,0,Memory,5,,,,,,,00719941201fa.jpg,,,,,,,,,,,,,,,
298,0,Memory,5,,,,,,,00977960627fa.jpg,,,,,,,,,,,,,,,
299,0,Memory,5,,,,,,,sunbpflsdaxnddnwcqi.jpg,,,,,,,,,,,,,,,
300,0,Presentation,6,00834940307fa_sunaibnpvhkdpdnzcnz.jpg,00609940928fa_sunacycdoztxoluxjyk.jpg,00834940307fa.jpg,sunaibnpvhkdpdnzcnz.jpg,00609940928fa.jpg,sunacycdoztxoluxjyk.jpg,,,>,Place,,,,,1,,,,,,,o
301,0,Presentation,6,00914960620fa_sunaozisvwfbmlkfhzv.jpg,00744941201fa_sunaeomlfaabhpswasy.jpg,00914960620fa.jpg,sunaozisvwfbmlkfhzv.jpg,00744941201fa.jpg,sunaeomlfaabhpswasy.jpg,,,>,Place,,,,,1,,,,,,,x
302,0,Presentation,6,00919960620fa_sunapmfmzadmosuogaz.jpg,00210940128fb_sunabanoxjtqxamkucc.jpg,00919960620fa.jpg,sunapmfmzadmosuogaz.jpg,00210940128fb.jpg,sunabanoxjtqxamkucc.jpg,,,>,Place,,,,,1,,,,,,,x
303,0,Presentation,6,00071940128fa_sunaaexpnawiehinlpy.jpg,00778941205fa_sunagcthdfirrcawoic.jpg,00071940128fa.jpg,sunaaexpnawiehinlpy.jpg,00778941205fa.jpg,sunagcthdfirrcawoic.jpg,,,>,Place,,,,,1,,,,,,,x
304,0,Presentation,6,00958960627fa_sunavspxmxubqaeidjt.jpg,00926960627Fa_sunapqwoeotxshkukbh.jpg,00958960627fa.jpg,sunavspxmxubqaeidjt.jpg,00926960627Fa.jpg,sunapqwoeotxshkukbh.jpg,,,>,Place,,,,,1,,,,,,,o
305,0,Presentation,6,00878960530fa_sunakgbnzxmfohgehnu.jpg,00827940307fa_sunahtfxgsrmkiulnwk.jpg,00878960530fa.jpg,sunakgbnzxmfohgehnu.jpg,00827940307fa.jpg,sunahtfxgsrmkiulnwk.jpg,,,>,Place,,,,,1,,,,,,,x
306,0,Presentation,6,00862940307fa_sunaizgnnplsvajzhkc.jpg,00239940128fa_sunabctlikybqabezjv.jpg,00862940307fa.jpg,sunaizgnnplsvajzhkc.jpg,00239940128fa.jpg,sunabctlikybqabezjv.jpg,,,>,Place,,,,,1,,,,,,,o
307,0,Presentation,6,00866940307fa_sunajbwkywmsqkldfml.jpg,00727941205fa_sunaeisnjeetzmkbuad.jpg,00866940307fa.jpg,sunajbwkywmsqkldfml.jpg,00727941205fa.jpg,sunaeisnjeetzmkbuad.jpg,,,>,Place,,,,,1,,,,,,,x
308,0,Presentation,6,00725941201fa_sunaefgzwiramypjvtd.jpg,00818940307fa_sunahpblecxtmuzkmxb.jpg,00725941201fa.jpg,sunaefgzwiramypjvtd.jpg,00818940307fa.jpg,sunahpblecxtmuzkmxb.jpg,,,>,Place,,,,,1,,,,,,,o
309,0,Presentation,6,00787960620fa_sunagoufulkpsxrmklt.jpg,00505960627fa_sunabzuqsrgcsonqlkz.jpg,00787960620fa.jpg,sunagoufulkpsxrmklt.jpg,00505960627fa.jpg,sunabzuqsrgcsonqlkz.jpg,,,>,Place,,,,,1,,,,,,,o
310,0,Memory,6,,,,,,,00221940128fa.jpg,,,,,,,,,,,,,,,
311,0,Memory,6,,,,,,,00636941031fa.jpg,,,,,,,,,,,,,,,
312,0,Memory,6,,,,,,,sunaddtdkycxbqlpfqa.jpg,,,,,,,,,,,,,,,
313,0,Memory,6,,,,,,,sunaibnpvhkdpdnzcnz.jpg,,,,,,,,,,,,,,,
314,0,Memory,6,,,,,,,00914960620fa.jpg,,,,,,,,,,,,,,,
315,0,Memory,6,,,,,,,00071941031fa.jpg,,,,,,,,,,,,,,,
316,0,Memory,6,,,,,,,sunaeutbrtswvsozxyk.jpg,,,,,,,,,,,,,,,
317,0,Memory,6,,,,,,,00609940928fa.jpg,,,,,,,,,,,,,,,
318,0,Memory,6,,,,,,,sunabanoxjtqxamkucc.jpg,,,,,,,,,,,,,,,
319,0,Memory,6,,,,,,,00926960627Fa.jpg,,,,,,,,,,,,,,,
320,0,Memory,6,,,,,,,sunaafgqutfaishsxyu.jpg,,,,,,,,,,,,,,,
321,0,Memory,6,,,,,,,00077931230fb.jpg,,,,,,,,,,,,,,,
322,0,Memory,6,,,,,,,sunaozisvwfbmlkfhzv.jpg,,,,,,,,,,,,,,,
323,0,Memory,6,,,,,,,00071940128fa.jpg,,,,,,,,,,,,,,,
324,0,Memory,6,,,,,,,sunabcfpwlpolnutyju.jpg,,,,,,,,,,,,,,,
325,0,Memory,6,,,,,,,sunacycdoztxoluxjyk.jpg,,,,,,,,,,,,,,,
326,0,Memory,6,,,,,,,00305940422fa.jpg,,,,,,,,,,,,,,,
327,0,Memory,6,,,,,,,sunapqwoeotxshkukbh.jpg,,,,,,,,,,,,,,,
328,0,Memory,6,,,,,,,01005960627fa.jpg,,,,,,,,,,,,,,,
329,0,Memory,6,,,,,,,00210940128fb.jpg,,,,,,,,,,,,,,,
330,0,Memory,6,,,,,,,00296940422fa.jpg,,,,,,,,,,,,,,,
331,0,Memory,6,,,,,,,sunbwyuesflwdpqtgoy.jpg,,,,,,,,,,,,,,,
332,0,Memory,6,,,,,,,sunabrwnslxalcohfre.jpg,,,,,,,,,,,,,,,
333,0,Memory,6,,,,,,,sunagoufulkpsxrmklt.jpg,,,,,,,,,,,,,,,
334,0,Memory,6,,,,,,,00264940128fb.jpg,,,,,,,,,,,,,,,
335,0,Memory,6,,,,,,,sunaeisnjeetzmkbuad.jpg,,,,,,,,,,,,,,,
336,0,Memory,6,,,,,,,sunagvxkjokqimstxpe.jpg,,,,,,,,,,,,,,,
337,0,Memory,6,,,,,,,00803941205fa.jpg,,,,,,,,,,,,,,,
338,0,Memory,6,,,,,,,sunaeomlfaabhpswasy.jpg,,,,,,,,,,,,,,,
339,0,Memory,6,,,,,,,sunabtrnbvpppgczjim.jpg,,,,,,,,,,,,,,,
340,0,Memory,6,,,,,,,00744941201fa.jpg,,,,,,,,,,,,,,,
341,0,Memory,6,,,,,,,00747941201fa.jpg,,,,,,,,,,,,,,,
342,0,Memory,6,,,,,,,00834940307fa.jpg,,,,,,,,,,,,,,,
343,0,Memory,6,,,,,,,00725941201fa.jpg,,,,,,,,,,,,,,,
344,0,Memory,6,,,,,,,00787960620fa.jpg,,,,,,,,,,,,,,,
345,0,Memory,6,,,,,,,sunabjzyxcjnmztdonj.jpg,,,,,,,,,,,,,,,
346,0,Memory,6,,,,,,,sunaaexpnawiehinlpy.jpg,,,,,,,,,,,,,,,
347,0,Memory,6,,,,,,,sunaaexqbtdswxrqjvz.jpg,,,,,,,,,,,,,,,
348,0,Memory,6,,,,,,,00727941205fa.jpg,,,,,,,,,,,,,,,
349,0,Memory,6,,,,,,,sunaefgzwiramypjvtd.jpg,,,,,,,,,,,,,,,
350,0,Presentation,7,00811960530fa_sunahedfrhtcwpneund.jpg,00909960530_sunaobtizabegtwfwul.jpg,00811960530fa.jpg,sunahedfrhtcwpneund.jpg,00909960530.jpg,sunaobtizabegtwfwul.jpg,,,<,Face,,,,,0,,,,,,,o
351,0,Presentation,7,00971960627fa_sunbbegcweqnetpdlrh.jpg,00194940128fb_sunaayehfdqcyxggsej.jpg,00971960627fa.jpg,sunbbegcweqnetpdlrh.jpg,00194940128fb.jpg,sunaayehfdqcyxggsej.jpg,,,<,Face,,,,,1,,,,,,,o
352,0,Presentation,7,00768941205fa_sunafkmnlytenlsywia.jpg,00197940128fa_sunaaylzyqlqrsmfwif.jpg,00768941205fa.jpg,sunafkmnlytenlsywia.jpg,00197940128fa.jpg,sunaaylzyqlqrsmfwif.jpg,,,<,Face,,,,,0,,,,,,,x
353,0,Presentation,7,00782941205fa_sunagfvluwixdsozaql.jpg,00598941031fa_sunacxtcahkymosigud.jpg,00782941205fa.jpg,sunagfvluwixdsozaql.jpg,00598941031fa.jpg,sunacxtcahkymosigud.jpg,,,<,Face,,,,,1,,,,,,,o
354,0,Presentation,7,00543940519fa_sunacepzfrmtkiqonpy.jpg,00963960627fa_sunayaepykrqvenaqqy.jpg,00543940519fa.jpg,sunacepzfrmtkiqonpy.jpg,00963960627fa.jpg,sunayaepykrqvenaqqy.jpg,,,<,Face,,,,,0,,,,,,,x
355,0,Presentation,7,00762941201fa_sunafgzgbisbopcyslr.jpg,00650941031fa_sunadikxpvqeabxrvvc.jpg,00762941201fa.jpg,sunafgzgbisbopcyslr.jpg,00650941031fa.jpg,sunadikxpvqeabxrvvc.jpg,,,<,Face,,,,,1,,,,,,,o
356,0,Presentation,7,00742941201fa_sunaenwuebvlpdmntju.jpg,00783941205fa_sunagjeesomrwjsfqie.jpg,00742941201fa.jpg,sunaenwuebvlpdmntju.jpg,00783941205fa.jpg,sunagjeesomrwjsfqie.jpg,,,<,Face,,,,,1,,,,,,,x
357,0,Presentation,7,00766960620fa_sunafijbgncijwykrnl.jpg,00647941031fa_sunadflbrkckmepztql.jpg,00766960620fa.jpg,sunafijbgncijwykrnl.jpg,00647941031fa.jpg,sunadflbrkckmepztql.jpg,,,<,Face,,,,,1,,,,,,,x
358,0,Presentation,7,00482940519fa_sunabyfxcxhdebvdyfd.jpg,00858940307fa_sunaixpqndlwhwjtjek.jpg,00482940519fa.jpg,sunabyfxcxhdebvdyfd.jpg,00858940307fa.jpg,sunaixpqndlwhwjtjek.jpg,,,<,Face,,,,,1,,,,,,,x
359,0,Presentation,7,00835940307fa_sunaijsqpvodplbwxkf.jpg,00063931230fa_sunaaelyvurpntclgau.jpg,00835940307fa.jpg,sunaijsqpvodplbwxkf.jpg,00063931230fa.jpg,sunaaelyvurpntclgau.jpg,,,<,Face,,,,,1,,,,,,,x
360,0,Memory,7,,,,,,,00063931230fa.jpg,,,,,,,,,,,,,,,
361,0,Memory,7,,,,,,,sunagjeesomrwjsfqie.jpg,,,,,,,,,,,,,,,
362,0,Memory,7,,,,,,,sunahbvlpavurqoxdeq.jpg,,,,,,,,,,,,,,,
363,0,Memory,7,,,,,,,sunahwgbqkqcrwprgvh.jpg,,,,,,,,,,,,,,,
364,0,Memory,7,,,,,,,00543940519fa.jpg,,,,,,,,,,,,,,,
365,0,Memory,7,,,,,,,00829940307fa.jpg,,,,,,,,,,,,,,,
366,0,Memory,7,,,,,,,00647941031fa.jpg,,,,,,,,,,,,,,,
367,0,Memory,7,,,,,,,sunahedfrhtcwpneund.jpg,,,,,,,,,,,,,,,
368,0,Memory,7,,,,,,,sunaaftlyfudyzuhqzf.jpg,,,,,,,,,,,,,,,
369,0,Memory,7,,,,,,,sunayaepykrqvenaqqy.jpg,,,,,,,,,,,,,,,
370,0,Memory,7,,,,,,,00193940928fa.jpg,,,,,,,,,,,,,,,
371,0,Memory,7,,,,,,,00153931230fa.jpg,,,,,,,,,,,,,,,
372,0,Memory,7,,,,,,,00742941201fa.jpg,,,,,,,,,,,,,,,
373,0,Memory,7,,,,,,,00963960627fa.jpg,,,,,,,,,,,,,,,
374,0,Memory,7,,,,,,,00762941201fa.jpg,,,,,,,,,,,,,,,
375,0,Memory,7,,,,,,,00670941121fa.jpg,,,,,,,,,,,,,,,
376,0,Memory,7,,,,,,,00783941205fa.jpg,,,,,,,,,,,,,,,
377,0,Memory,7,,,,,,,00777941205fa.jpg,,,,,,,,,,,,,,,
378,0,Memory,7,,,,,,,sunacxtcahkymosigud.jpg,,,,,,,,,,,,,,,
379,0,Memory,7,,,,,,,00809960620fa.jpg,,,,,,,,,,,,,,,
380,0,Memory,7,,,,,,,sunacepzfrmtkiqonpy.jpg,,,,,,,,,,,,,,,
381,0,Memory,7,,,,,,,00768941205fa.jpg,,,,,,,,,,,,,,,
382,0,Memory,7,,,,,,,00081941031fa.jpg,,,,,,,,,,,,,,,
383,0,Memory,7,,,,,,,sunabeyhmxodahoieyk.jpg,,,,,,,,,,,,,,,
384,0,Memory,7,,,,,,,sunaaxjpzcnxligjtjq.jpg,,,,,,,,,,,,,,,
385,0,Memory,7,,,,,,,sunaakvmbftkrgqhjun.jpg,,,,,,,,,,,,,,,
386,0,Memory,7,,,,,,,00811960530fa.jpg,,,,,,,,,,,,,,,
387,0,Memory,7,,,,,,,sunaaelyvurpntclgau.jpg,,,,,,,,,,,,,,,
388,0,Memory,7,,,,,,,sunafkmnlytenlsywia.jpg,,,,,,,,,,,,,,,
389,0,Memory,7,,,,,,,sunadflbrkckmepztql.jpg,,,,,,,,,,,,,,,
390,0,Memory,7,,,,,,,00598941031fa.jpg,,,,,,,,,,,,,,,
391,0,Memory,7,,,,,,,sunaqgjuuwvdcyiccjt.jpg,,,,,,,,,,,,,,,
392,0,Memory,7,,,,,,,00245940128fa.jpg,,,,,,,,,,,,,,,
393,0,Memory,7,,,,,,,sunafgzgbisbopcyslr.jpg,,,,,,,,,,,,,,,
394,0,Memory,7,,,,,,,sunaenwuebvlpdmntju.jpg,,,,,,,,,,,,,,,
395,0,Memory,7,,,,,,,sunadochqcucscehsgk.jpg,,,,,,,,,,,,,,,
396,0,Memory,7,,,,,,,sunaauhozyxzeeqstxi.jpg,,,,,,,,,,,,,,,
397,0,Memory,7,,,,,,,sunagcinxkccdtrjmlv.jpg,,,,,,,,,,,,,,,
398,0,Memory,7,,,,,,,00936960627fa.jpg,,,,,,,,,,,,,,,
399,0,Memory,7,,,,,,,00119931230fb.jpg,,,,,,,,,,,,,,,
