,Subject,Trial Type,Run,Cued Composite,Uncued Composite,Cued Face,Cued Place,Uncued Face,Uncued Place,Memory Image,Category,Cued Side,Cued Category,Attention Reaction Time (s),Familiarity Reaction Time (s),Familiarity Rating,Attention Level,Cue Validity,Post Invalid Cue,Pre Invalid Cue,Attention Button,Rating History,Stimulus Onset,Stimulus End,Attention Probe
110,0,Memory,2,,,,,,,sunaloffvbvysigxent.jpg,,,,,1.37,1.0,,,,,,,1537893304.664875,1537893307.182091,
111,0,Memory,2,,,,,,,00976960627fa.jpg,,,,,1.055,2.0,,,,,,,1537893308.684068,1537893311.183577,
112,0,Memory,2,,,,,,,00263940128fb.jpg,,,,,0.836,1.0,,,,,,,1537893312.600672,1537893315.151814,
113,0,Memory,2,,,,,,,00898960530fa.jpg,,,,,1.202,2.0,,,,,,,1537893316.585013,1537893319.037753,
114,0,Memory,2,,,,,,,sunaajqmsaavkmgbsth.jpg,,,,,0.737,1.0,,,,,,,1537893320.503778,1537893322.786868,
115,0,Memory,2,,,,,,,00943960627fa.jpg,,,,,0.853,2.0,,,,,,,1537893324.187427,1537893326.572143,
116,0,Memory,2,,,,,,,00266940128fb.jpg,,,,,0.685,1.0,,,,,,,1537893328.021257,1537893330.455902,
117,0,Memory,2,,,,,,,sunbpvgllfdejxcpjqp.jpg,,,,,0.77,1.0,,,,,,,1537893331.873642,1537893334.308631,
118,0,Memory,2,,,,,,,00080931230fb.jpg,,,,,0.62,3.0,,,,,,,1537893335.65832,1537893337.941877,
119,0,Memory,2,,,,,,,sunaaeplwsfslcbtojr.jpg,,,,,0.586,1.0,,,,,,,1537893339.376252,1537893341.610007,
120,0,Memory,2,,,,,,,sunamkmeblgteyggink.jpg,,,,,0.571,2.0,,,,,,,1537893342.977195,1537893345.4122,
121,0,Memory,2,,,,,,,sunajjxttslobudoqbv.jpg,,,,,0.653,1.0,,,,,,,1537893346.894699,1537893349.330505,
122,0,Memory,2,,,,,,,sunbasypfgzjtomktmu.jpg,,,,,0.536,1.0,,,,,,,1537893350.763551,1537893353.147084,
123,0,Memory,2,,,,,,,sunabkngeblodihjvbk.jpg,,,,,0.619,1.0,,,,,,,1537893354.514129,1537893356.831223,
124,0,Memory,2,,,,,,,sunacxeheuiigkcgquf.jpg,,,,,0.503,2.0,,,,,,,1537893358.232216,1537893360.534125,
125,0,Memory,2,,,,,,,00970960627fa.jpg,,,,,0.754,3.0,,,,,,,1537893361.949839,1537893364.268467,
126,0,Memory,2,,,,,,,sunabjuovqvyfuzvqwt.jpg,,,,,0.555,2.0,,,,,,,1537893365.63534,1537893368.469445,
127,0,Memory,2,,,,,,,00996960627fa.jpg,,,,,0.687,1.0,,,,,,,1537893369.835996,1537893372.170647,
128,0,Memory,2,,,,,,,sunaakxgygjfqrzpyoz.jpg,,,,,0.57,2.0,,,,,,,1537893373.571128,1537893376.022421,
129,0,Memory,2,,,,,,,00120931230fa.jpg,,,,,0.651,1.0,,,,,,,1537893377.504891,1537893379.955496,
130,0,Memory,2,,,,,,,00598940928fa.jpg,,,,,0.818,3.0,,,,,,,1537893381.323164,1537893383.624778,
131,0,Memory,2,,,,,,,sunaafjszryxyavjzln.jpg,,,,,0.354,1.0,,,,,,,1537893384.991525,1537893387.525519,
132,0,Memory,2,,,,,,,sunbbhqyyzmsxhsbjmp.jpg,,,,,0.305,2.0,,,,,,,1537893388.942866,1537893391.426848,
133,0,Memory,2,,,,,,,00316940422fa.jpg,,,,,0.788,1.0,,,,,,,1537893392.843521,1537893395.16111,
134,0,Memory,2,,,,,,,00101931230fb.jpg,,,,,0.537,1.0,,,,,,,1537893396.577481,1537893398.929571,
135,0,Memory,2,,,,,,,00894960620fa.jpg,,,,,0.519,1.0,,,,,,,1537893400.312302,1537893402.696297,
136,0,Memory,2,,,,,,,sunasmmcxdddtmtazwx.jpg,,,,,0.436,1.0,,,,,,,1537893404.080543,1537893406.397872,
137,0,Memory,2,,,,,,,00868960307fa.jpg,,,,,0.789,2.0,,,,,,,1537893407.814005,1537893410.132766,
138,0,Memory,2,,,,,,,sunabxmguapjekttvwm.jpg,,,,,0.638,3.0,,,,,,,1537893411.5332,1537893413.916365,
139,0,Memory,2,,,,,,,sunajrgtewnualfcerj.jpg,,,,,0.405,1.0,,,,,,,1537893415.316741,1537893417.601693,
140,0,Memory,2,,,,,,,00947960627fa.jpg,,,,,0.453,2.0,,,,,,,1537893418.985849,1537893421.402702,
141,0,Memory,2,,,,,,,00070940307fa.jpg,,,,,0.519,1.0,,,,,,,1537893422.853923,1537893425.188022,
142,0,Memory,2,,,,,,,sunarpsxqkduedrrzyi.jpg,,,,,0.702,1.0,,,,,,,1537893426.654667,1537893429.0887,
143,0,Memory,2,,,,,,,sunbtpilbhhbmhmeuzq.jpg,,,,,0.505,2.0,,,,,,,1537893430.439284,1537893432.906295,
144,0,Memory,2,,,,,,,sunaajuzribjrizdshh.jpg,,,,,1.174,3.0,,,,,,,1537893434.324187,1537893436.791357,
145,0,Memory,2,,,,,,,00893960530Fa.jpg,,,,,0.768,1.0,,,,,,,1537893438.141197,1537893440.558686,
146,0,Memory,2,,,,,,,00109931230fa.jpg,,,,,0.554,2.0,,,,,,,1537893442.125956,1537893444.510453,
147,0,Memory,2,,,,,,,sunalqmfgeadpqsyzpd.jpg,,,,,0.621,1.0,,,,,,,1537893445.927139,1537893448.27788,
148,0,Memory,2,,,,,,,00870940307fa.jpg,,,,,1.27,3.0,,,,,,,1537893449.712091,1537893452.178447,
149,0,Memory,2,,,,,,,00997960627fa.jpg,,,,,0.535,2.0,,,,,,,1537893453.63125,1537893456.081492,
