,Subject,Trial Type,Run,Cued Composite,Uncued Composite,Cued Face,Cued Place,Uncued Face,Uncued Place,Memory Image,Category,Cued Side,Cued Category,Attention Reaction Time (s),Familiarity Reaction Time (s),Familiarity Rating,Attention Level,Cue Validity,Post Invalid Cue,Pre Invalid Cue,Attention Button,Rating History,Stimulus Onset,Stimulus End,Attention Probe
10,20,Memory,0,,,,,,,00260940128fa.jpg,,,,,1.785,3,,,,,,,1539533877.880464,1539533880.44865,
11,20,Memory,0,,,,,,,01003960627fb.jpg,,,,,1.737,1,,,,,,,1539533881.849391,1539533884.182484,
12,20,Memory,0,,,,,,,00892960530fa.jpg,,,,,1.387,2,,,,,,,1539533885.767713,1539533888.15087,
13,20,Memory,0,,,,,,,00811960530fa.jpg,,,,,1.437,3,,,,,,,1539533889.55171,1539533892.019074,
14,20,Memory,0,,,,,,,00901960530fa.jpg,,,,,1.435,3,,,,,,,1539533893.471044,1539533895.854014,
15,20,Memory,0,,,,,,,sunafvwfsmqkjrutjta.jpg,,,,,0.0,,,,,,,,1539533897.270844,1539533899.655294,
16,20,Memory,0,,,,,,,sunaaeplwsfslcbtojr.jpg,,,,,1.169,1,,,,,,,1539533901.105666,1539533903.505561,
17,20,Memory,0,,,,,,,01207940128fa.jpg,,,,,1.821,2,,,,,,,1539533904.90611,1539533907.37363,
18,20,Memory,0,,,,,,,sunaflojskatpeqyzqp.jpg,,,,,2.038,2,,,,,,,1539533908.791649,1539533911.159815,
19,20,Memory,0,,,,,,,sunaapllqyqlykszopd.jpg,,,,,1.236,3,,,,,,,1539533912.542027,1539533914.993031,
20,20,Memory,0,,,,,,,00989960627fa.jpg,,,,,1.886,2,,,,,,,1539533916.427369,1539533918.827452,
21,20,Memory,0,,,,,,,sunagvxkjokqimstxpe.jpg,,,,,1.706,1,,,,,,,1539533920.311324,1539533922.779484,
22,20,Memory,0,,,,,,,sunabclssnoeuigtawp.jpg,,,,,1.689,1,,,,,,,1539533924.197094,1539533926.764678,
23,20,Memory,0,,,,,,,00803941205fa.jpg,,,,,1.92,3,,,,,,,1539533928.164701,1539533930.582695,
24,20,Memory,0,,,,,,,00271940422fa.jpg,,,,,1.021,3,,,,,,,1539533932.032525,1539533934.415858,
25,20,Memory,0,,,,,,,sunalntxqqadigcletd.jpg,,,,,2.155,1,,,,,,,1539533935.850289,1539533938.334327,
26,20,Memory,0,,,,,,,sunbwdrdvsweerwsdrj.jpg,,,,,1.503,1,,,,,,,1539533939.734646,1539533942.252406,
27,20,Memory,0,,,,,,,00630941031fa.jpg,,,,,1.571,3,,,,,,,1539533943.61961,1539533946.136863,
28,20,Memory,0,,,,,,,00822940307fa.jpg,,,,,1.884,2,,,,,,,1539533947.653796,1539533950.154935,
29,20,Memory,0,,,,,,,sunahedfrhtcwpneund.jpg,,,,,2.054,2,,,,,,,1539533951.672886,1539533954.105398,
30,20,Memory,0,,,,,,,00636941031fa.jpg,,,,,1.802,3,,,,,,,1539533955.507358,1539533958.023394,
31,20,Memory,0,,,,,,,00779941205fa.jpg,,,,,2.038,2,,,,,,,1539533959.456731,1539533962.025367,
32,20,Memory,0,,,,,,,00140931230fb.jpg,,,,,2.021,1,,,,,,,1539533963.492665,1539533965.976839,
33,20,Memory,0,,,,,,,sunammbnoambmhdxdwd.jpg,,,,,1.751,1,,,,,,,1539533967.393818,1539533969.743405,
34,20,Memory,0,,,,,,,sunaavtbadenwnzeutj.jpg,,,,,2.185,2,,,,,,,1539533971.145168,1539533973.580166,
35,20,Memory,0,,,,,,,sunagdzlvkqtpnfxfcg.jpg,,,,,0.0,,,,,,,,1539533975.02936,1539533977.412879,
36,20,Memory,0,,,,,,,sunaivdjruhkrfywfed.jpg,,,,,0.752,1,,,,,,,1539533978.846612,1539533981.198604,
37,20,Memory,0,,,,,,,sundbixjudsgeuuehrn.jpg,,,,,1.653,2,,,,,,,1539533982.598637,1539533985.416862,
38,20,Memory,0,,,,,,,sunaddtdkycxbqlpfqa.jpg,,,,,0.904,1,,,,,,,1539533986.849962,1539533989.150046,
39,20,Memory,0,,,,,,,00184940128fa.jpg,,,,,1.286,1,,,,,,,1539533990.617518,1539533993.018405,
40,20,Memory,0,,,,,,,00070940307fa.jpg,,,,,1.388,3,,,,,,,1539533994.45187,1539533996.885847,
41,20,Memory,0,,,,,,,00770941201fa.jpg,,,,,1.538,2,,,,,,,1539533998.287421,1539534000.687403,
42,20,Memory,0,,,,,,,sunahqrxievfeusiqlt.jpg,,,,,1.454,1,,,,,,,1539534002.104687,1539534004.60464,
43,20,Memory,0,,,,,,,00847940307fa.jpg,,,,,1.404,1,,,,,,,1539534006.106424,1539534008.490195,
44,20,Memory,0,,,,,,,sunabgfhvifeijihhjw.jpg,,,,,1.155,2,,,,,,,1539534010.073935,1539534012.424989,
45,20,Memory,0,,,,,,,sunabmbnddafmywtjjj.jpg,,,,,1.323,1,,,,,,,1539534013.958466,1539534016.442639,
46,20,Memory,0,,,,,,,sunbondbduabvijnmch.jpg,,,,,1.154,1,,,,,,,1539534017.843267,1539534020.177612,
47,20,Memory,0,,,,,,,sunadakkdovnuzlycvp.jpg,,,,,2.054,2,,,,,,,1539534021.56078,1539534023.911881,
48,20,Memory,0,,,,,,,00775941205fa.jpg,,,,,1.868,2,,,,,,,1539534025.262221,1539534027.596116,
49,20,Memory,0,,,,,,,00235940128fb.jpg,,,,,1.639,1,,,,,,,1539534028.963932,1539534031.364194,
