,Subject,Trial Type,Run,Cued Composite,Uncued Composite,Cued Face,Cued Place,Uncued Face,Uncued Place,Memory Image,Category,Cued Side,Cued Category,Attention Reaction Time (s),Familiarity Reaction Time (s),Familiarity Rating,Attention Level,Cue Validity,Post Invalid Cue,Pre Invalid Cue,Attention Button,Rating History,Stimulus Onset,Stimulus End,Attention Probe
60,20,Memory,1,,,,,,,00900960530fa.jpg,,,,,1.703,1.0,,,,,,,1539534230.64469,1539534233.19569,
61,20,Memory,1,,,,,,,sunabtrnbvpppgczjim.jpg,,,,,1.619,2.0,,,,,,,1539534234.597054,1539534237.030268,
62,20,Memory,1,,,,,,,00976960627fa.jpg,,,,,2.138,2.0,,,,,,,1539534238.531075,1539534241.049015,
63,20,Memory,1,,,,,,,00589940928fa.jpg,,,,,1.336,4.0,,,,,,,1539534242.464846,1539534244.93157,
64,20,Memory,1,,,,,,,sunaiwfobocrruqznsv.jpg,,,,,1.67,1.0,,,,,,,1539534246.433763,1539534248.80129,
65,20,Memory,1,,,,,,,00208940128fa.jpg,,,,,1.703,2.0,,,,,,,1539534250.335451,1539534252.801976,
66,20,Memory,1,,,,,,,00805941205fa.jpg,,,,,2.52,2.0,,,,,,,1539534254.152836,1539534256.88818,
67,20,Memory,1,,,,,,,00777941205fa.jpg,,,,,1.187,3.0,,,,,,,1539534258.287112,1539534260.654725,
68,20,Memory,1,,,,,,,sunamlotskmmsjeogby.jpg,,,,,1.736,2.0,,,,,,,1539534262.088429,1539534264.405421,
69,20,Memory,1,,,,,,,sunaivdylrawbmhryfp.jpg,,,,,1.42,1.0,,,,,,,1539534265.807455,1539534268.107346,
70,20,Memory,1,,,,,,,00848940307fa.jpg,,,,,1.738,1.0,,,,,,,1539534269.540677,1539534271.89114,
71,20,Memory,1,,,,,,,sunaaekxzjzrfgtkwjf.jpg,,,,,2.221,2.0,,,,,,,1539534273.308747,1539534275.643771,
72,20,Memory,1,,,,,,,sunbbhqyyzmsxhsbjmp.jpg,,,,,1.87,1.0,,,,,,,1539534277.125875,1539534279.44342,
73,20,Memory,1,,,,,,,01000960627fa.jpg,,,,,0.0,,,,,,,,1539534280.928192,1539534283.329146,
74,20,Memory,1,,,,,,,sunbdycacjfaujxitbw.jpg,,,,,1.203,2.0,,,,,,,1539534284.778677,1539534287.279886,
75,20,Memory,1,,,,,,,sunagcinxkccdtrjmlv.jpg,,,,,1.201,1.0,,,,,,,1539534288.680289,1539534291.064754,
76,20,Memory,1,,,,,,,sunaazzyhbvqjpmazjq.jpg,,,,,1.352,1.0,,,,,,,1539534292.632038,1539534294.932255,
77,20,Memory,1,,,,,,,00245940128fa.jpg,,,,,1.686,2.0,,,,,,,1539534296.350289,1539534298.849562,
78,20,Memory,1,,,,,,,00305940422fa.jpg,,,,,1.22,1.0,,,,,,,1539534300.233266,1539534302.685214,
79,20,Memory,1,,,,,,,00741941201fa.jpg,,,,,1.504,1.0,,,,,,,1539534304.118872,1539534306.568956,
80,20,Memory,1,,,,,,,sunagwzdbtlixdhgolm.jpg,,,,,1.369,3.0,,,,,,,1539534308.019631,1539534310.370394,
81,20,Memory,1,,,,,,,sunbvzmgrdvaakxusbu.jpg,,,,,1.72,1.0,,,,,,,1539534311.804825,1539534314.25431,
82,20,Memory,1,,,,,,,00825940307fa.jpg,,,,,1.77,2.0,,,,,,,1539534315.606279,1539534318.12392,
83,20,Memory,1,,,,,,,00839940307fa.jpg,,,,,1.404,1.0,,,,,,,1539534319.540202,1539534321.891636,
84,20,Memory,1,,,,,,,00270940422fb.jpg,,,,,1.819,1.0,,,,,,,1539534323.258375,1539534325.626847,
85,20,Memory,1,,,,,,,00979960627fa.jpg,,,,,1.203,3.0,,,,,,,1539534327.009988,1539534329.575977,
86,20,Memory,1,,,,,,,sunacwggadqsfpovdjv.jpg,,,,,1.27,4.0,,,,,,,1539534331.062207,1539534333.562389,
87,20,Memory,1,,,,,,,00191940128fb.jpg,,,,,1.468,2.0,,,,,,,1539534335.045251,1539534337.413258,
88,20,Memory,1,,,,,,,00061931230fb.jpg,,,,,0.903,4.0,,,,,,,1539534338.896027,1539534341.397455,
89,20,Memory,1,,,,,,,sunaipyohrqlwngaqif.jpg,,,,,1.501,1.0,,,,,,,1539534342.864094,1539534345.180866,
90,20,Memory,1,,,,,,,01005960627fa.jpg,,,,,1.337,2.0,,,,,,,1539534346.632507,1539534349.132432,
91,20,Memory,1,,,,,,,00857940307fa.jpg,,,,,1.67,1.0,,,,,,,1539534350.55073,1539534352.984071,
92,20,Memory,1,,,,,,,sunabeyhmxodahoieyk.jpg,,,,,1.452,3.0,,,,,,,1539534354.384898,1539534356.919977,
93,20,Memory,1,,,,,,,00630940928fa.jpg,,,,,2.253,3.0,,,,,,,1539534358.336518,1539534360.720969,
94,20,Memory,1,,,,,,,sunaemcowdozyphwknd.jpg,,,,,1.336,1.0,,,,,,,1539534362.070834,1539534364.454232,
95,20,Memory,1,,,,,,,sunaawsdjisukbbginm.jpg,,,,,1.32,1.0,,,,,,,1539534365.939396,1539534368.339034,
96,20,Memory,1,,,,,,,sunabllobxadqcyttej.jpg,,,,,1.735,1.0,,,,,,,1539534369.905917,1539534372.273941,
97,20,Memory,1,,,,,,,sunbwyuesflwdpqtgoy.jpg,,,,,1.22,2.0,,,,,,,1539534373.707959,1539534376.109315,
98,20,Memory,1,,,,,,,sunaczwgyukesaajxnx.jpg,,,,,1.486,1.0,,,,,,,1539534377.509074,1539534379.926984,
99,20,Memory,1,,,,,,,sunahrltmuwbiehihpe.jpg,,,,,1.453,3.0,,,,,,,1539534381.328104,1539534383.693318,
