,Subject,Trial Type,Run,Cued Composite,Uncued Composite,Cued Face,Cued Place,Uncued Face,Uncued Place,Memory Image,Category,Cued Side,Cued Category,Attention Reaction Time (s),Familiarity Reaction Time (s),Familiarity Rating,Attention Level,Cue Validity,Post Invalid Cue,Pre Invalid Cue,Attention Button,Rating History,Stimulus Onset,Stimulus End,Attention Probe
360,20,Memory,7,,,,,,,sunainqelldeebvxtcz.jpg,,,,,1.186,2.0,,,,,,,1539536309.46549,1539536312.034443,
361,20,Memory,7,,,,,,,00149931230fa.jpg,,,,,1.22,3.0,,,,,,,1539536313.433616,1539536315.867571,
362,20,Memory,7,,,,,,,sunaakjaacuzulqckgl.jpg,,,,,1.701,2.0,,,,,,,1539536317.335908,1539536319.768888,
363,20,Memory,7,,,,,,,00705960530fa.jpg,,,,,1.438,3.0,,,,,,,1539536321.253425,1539536323.704245,
364,20,Memory,7,,,,,,,sunahgtbwgsmtqeodwh.jpg,,,,,0.987,4.0,,,,,,,1539536325.237811,1539536327.722452,
365,20,Memory,7,,,,,,,00112931230fa.jpg,,,,,1.683,2.0,,,,,,,1539536329.089298,1539536331.573577,
366,20,Memory,7,,,,,,,00147931230fb.jpg,,,,,0.87,4.0,,,,,,,1539536332.957586,1539536335.340934,
367,20,Memory,7,,,,,,,sunahbvlpavurqoxdeq.jpg,,,,,1.137,1.0,,,,,,,1539536336.775047,1539536339.108737,
368,20,Memory,7,,,,,,,00854940307fa.jpg,,,,,1.521,1.0,,,,,,,1539536340.525361,1539536343.127404,
369,20,Memory,7,,,,,,,sunabxsbfwjccqxxzxq.jpg,,,,,1.169,3.0,,,,,,,1539536344.627341,1539536346.978027,
370,20,Memory,7,,,,,,,00938960627fa.jpg,,,,,1.354,2.0,,,,,,,1539536348.495488,1539536350.928636,
371,20,Memory,7,,,,,,,00564941031fa.jpg,,,,,1.403,1.0,,,,,,,1539536352.412469,1539536354.913341,
372,20,Memory,7,,,,,,,00773941201fa.jpg,,,,,1.036,3.0,,,,,,,1539536356.348683,1539536358.798875,
373,20,Memory,7,,,,,,,sunafvcflzhlqloapyo.jpg,,,,,1.705,3.0,,,,,,,1539536360.215889,1539536362.683312,
374,20,Memory,7,,,,,,,sunahpblecxtmuzkmxb.jpg,,,,,1.786,4.0,,,,,,,1539536364.083379,1539536366.601007,
375,20,Memory,7,,,,,,,00479940519fa.jpg,,,,,1.783,3.0,,,,,,,1539536368.051585,1539536370.568515,
376,20,Memory,7,,,,,,,sunajrujcsdxmfbssmc.jpg,,,,,1.153,2.0,,,,,,,1539536372.052934,1539536374.470901,
377,20,Memory,7,,,,,,,00809960620fa.jpg,,,,,1.453,1.0,,,,,,,1539536375.937837,1539536378.304172,
378,20,Memory,7,,,,,,,sunaaexqbtdswxrqjvz.jpg,,,,,1.504,3.0,,,,,,,1539536379.789086,1539536382.205652,
379,20,Memory,7,,,,,,,sunajoveqhiprwqgoco.jpg,,,,,1.37,4.0,,,,,,,1539536383.590395,1539536386.058192,
380,20,Memory,7,,,,,,,sunaatpkocdkocwxpkb.jpg,,,,,1.32,3.0,,,,,,,1539536387.407301,1539536389.825612,
381,20,Memory,7,,,,,,,00878960530fa.jpg,,,,,1.584,2.0,,,,,,,1539536391.192728,1539536393.776848,
382,20,Memory,7,,,,,,,00812941205fa.jpg,,,,,1.753,4.0,,,,,,,1539536395.260087,1539536397.761291,
383,20,Memory,7,,,,,,,00185940422fb.jpg,,,,,1.401,2.0,,,,,,,1539536399.228141,1539536401.629858,
384,20,Memory,7,,,,,,,00887960530.jpg,,,,,1.518,1.0,,,,,,,1539536403.030174,1539536405.562775,
385,20,Memory,7,,,,,,,sunalcrtwiycqobgelp.jpg,,,,,1.253,3.0,,,,,,,1539536407.114453,1539536409.481564,
386,20,Memory,7,,,,,,,sunaawqdbpihmlbwyyn.jpg,,,,,2.084,3.0,,,,,,,1539536410.982848,1539536413.332993,
387,20,Memory,7,,,,,,,00836940307fa.jpg,,,,,1.271,1.0,,,,,,,1539536414.833201,1539536417.317374,
388,20,Memory,7,,,,,,,sunacsaovnjezqwbykf.jpg,,,,,1.153,1.0,,,,,,,1539536418.684938,1539536421.218677,
389,20,Memory,7,,,,,,,sunaiwduelojtwaqeyh.jpg,,,,,1.037,3.0,,,,,,,1539536422.718959,1539536425.253324,
390,20,Memory,7,,,,,,,00314940422fa.jpg,,,,,1.286,3.0,,,,,,,1539536426.704649,1539536429.204721,
391,20,Memory,7,,,,,,,00071941031fa.jpg,,,,,1.588,2.0,,,,,,,1539536430.620963,1539536433.072668,
392,20,Memory,7,,,,,,,00818940307fa.jpg,,,,,1.218,1.0,,,,,,,1539536434.522559,1539536436.907204,
393,20,Memory,7,,,,,,,sunabwmcbaxwioksdgw.jpg,,,,,1.552,3.0,,,,,,,1539536438.457197,1539536440.84068,
394,20,Memory,7,,,,,,,sunakgbnzxmfohgehnu.jpg,,,,,1.771,4.0,,,,,,,1539536442.32617,1539536444.759552,
395,20,Memory,7,,,,,,,sunaauglwmctnkxyird.jpg,,,,,1.85,3.0,,,,,,,1539536446.294465,1539536448.827069,
396,20,Memory,7,,,,,,,sunaqyylsngywqzwfmx.jpg,,,,,1.82,1.0,,,,,,,1539536450.244904,1539536452.629038,
397,20,Memory,7,,,,,,,00871940307.jpg,,,,,1.169,3.0,,,,,,,1539536454.012295,1539536456.514117,
398,20,Memory,7,,,,,,,00869940307fa.jpg,,,,,1.417,1.0,,,,,,,1539536457.947487,1539536460.447392,
399,20,Memory,7,,,,,,,sunaduslxfzlbxlllnz.jpg,,,,,1.604,3.0,,,,,,,1539536461.81568,1539536464.315886,
