,Subject,Trial Type,Run,Cued Composite,Uncued Composite,Cued Face,Cued Place,Uncued Face,Uncued Place,Memory Image,Category,Cued Side,Cued Category,Attention Reaction Time (s),Familiarity Reaction Time (s),Familiarity Rating,Attention Level,Cue Validity,Post Invalid Cue,Pre Invalid Cue,Attention Button,Rating History,Stimulus Onset,Stimulus End,Attention Probe
0,29,Presentation,0,00126931230fb_sunaamdjwemxpmmtypi.jpg,00746941201fa_sunaetydippjxikifsb.jpg,00126931230fb.jpg,sunaamdjwemxpmmtypi.jpg,00746941201fa.jpg,sunaetydippjxikifsb.jpg,,,>,Place,,,,,1,,,,,,,o
1,29,Presentation,0,00818940307fa_sunahpblecxtmuzkmxb.jpg,00122931230fa_sunaakxjfbrrequcjmx.jpg,00818940307fa.jpg,sunahpblecxtmuzkmxb.jpg,00122931230fa.jpg,sunaakxjfbrrequcjmx.jpg,,,>,Face,,,,,1,,,,,,,o
2,29,Presentation,0,00829940307fa_sunahwgbqkqcrwprgvh.jpg,00893960530Fa_sunaloffvbvysigxent.jpg,00829940307fa.jpg,sunahwgbqkqcrwprgvh.jpg,00893960530Fa.jpg,sunaloffvbvysigxent.jpg,,,>,Face,,,,,1,,,,,,,x
3,29,Presentation,0,00937960627fa_sunaqsolmfydodnakub.jpg,00308940422fb_sunabwfvcqqidycwypa.jpg,00937960627fa.jpg,sunaqsolmfydodnakub.jpg,00308940422fb.jpg,sunabwfvcqqidycwypa.jpg,,,>,Place,,,,,1,,,,,,,o
4,29,Presentation,0,00482940519fa_sunabyfxcxhdebvdyfd.jpg,00060931230fa_sunaaehaikpckyjsety.jpg,00482940519fa.jpg,sunabyfxcxhdebvdyfd.jpg,00060931230fa.jpg,sunaaehaikpckyjsety.jpg,,,<,Place,,,,,1,,,,,,,o
5,29,Presentation,0,00101931230fb_sunaajqmsaavkmgbsth.jpg,00723941201fa_sunaedtgwjvvziytspa.jpg,00101931230fb.jpg,sunaajqmsaavkmgbsth.jpg,00723941201fa.jpg,sunaedtgwjvvziytspa.jpg,,,<,Face,,,,,1,,,,,,,o
6,29,Presentation,0,00989960627fa_sunbondbduabvijnmch.jpg,00076931230fa_sunaafewhewbxmjiurz.jpg,00989960627fa.jpg,sunbondbduabvijnmch.jpg,00076931230fa.jpg,sunaafewhewbxmjiurz.jpg,,,<,Place,,,,,1,,,,,,,x
7,29,Presentation,0,00630940928fa_sunaczwgyukesaajxnx.jpg,00915960620fa_sunapileznnbbmrwoei.jpg,00630940928fa.jpg,sunaczwgyukesaajxnx.jpg,00915960620fa.jpg,sunapileznnbbmrwoei.jpg,,,<,Face,,,,,1,,,,,,,x
8,29,Presentation,0,00093931230fa_sunaahwnmtqsrhocysw.jpg,00961960627fa_sunawotxrevnqvamsfp.jpg,00093931230fa.jpg,sunaahwnmtqsrhocysw.jpg,00961960627fa.jpg,sunawotxrevnqvamsfp.jpg,,,<,Place,,,,,1,,,,,,,o
9,29,Presentation,0,00922960627fa_sunapqkyghktgtosuuk.jpg,00866940307fa_sunajbwkywmsqkldfml.jpg,00922960627fa.jpg,sunapqkyghktgtosuuk.jpg,00866940307fa.jpg,sunajbwkywmsqkldfml.jpg,,,>,Face,,,,,1,,,,,,,o
10,29,Memory,0,,,,,,,00893960530Fa.jpg,,,,,,,,,,,,,,,
11,29,Memory,0,,,,,,,sunadochqcucscehsgk.jpg,,,,,,,,,,,,,,,
12,29,Memory,0,,,,,,,00670941121fa.jpg,,,,,,,,,,,,,,,
13,29,Memory,0,,,,,,,sunarceibpcyacbmfga.jpg,,,,,,,,,,,,,,,
14,29,Memory,0,,,,,,,sunafvwfsmqkjrutjta.jpg,,,,,,,,,,,,,,,
15,29,Memory,0,,,,,,,sunaaehaikpckyjsety.jpg,,,,,,,,,,,,,,,
16,29,Memory,0,,,,,,,sunahqldjibofgsfdgb.jpg,,,,,,,,,,,,,,,
17,29,Memory,0,,,,,,,sunafgdqbclkwfocdhg.jpg,,,,,,,,,,,,,,,
18,29,Memory,0,,,,,,,00775941205fa.jpg,,,,,,,,,,,,,,,
19,29,Memory,0,,,,,,,sunawotxrevnqvamsfp.jpg,,,,,,,,,,,,,,,
20,29,Memory,0,,,,,,,sunbondbduabvijnmch.jpg,,,,,,,,,,,,,,,
21,29,Memory,0,,,,,,,sunabwfvcqqidycwypa.jpg,,,,,,,,,,,,,,,
22,29,Memory,0,,,,,,,00308940422fb.jpg,,,,,,,,,,,,,,,
23,29,Memory,0,,,,,,,sunaloffvbvysigxent.jpg,,,,,,,,,,,,,,,
24,29,Memory,0,,,,,,,00093931230fa.jpg,,,,,,,,,,,,,,,
25,29,Memory,0,,,,,,,00761960627fa.jpg,,,,,,,,,,,,,,,
26,29,Memory,0,,,,,,,sunaamdjwemxpmmtypi.jpg,,,,,,,,,,,,,,,
27,29,Memory,0,,,,,,,00939960627fa.jpg,,,,,,,,,,,,,,,
28,29,Memory,0,,,,,,,00481940519fa.jpg,,,,,,,,,,,,,,,
29,29,Memory,0,,,,,,,00746941201fa.jpg,,,,,,,,,,,,,,,
30,29,Memory,0,,,,,,,00065931230fb.jpg,,,,,,,,,,,,,,,
31,29,Memory,0,,,,,,,sunabjuovqvyfuzvqwt.jpg,,,,,,,,,,,,,,,
32,29,Memory,0,,,,,,,00961960627fa.jpg,,,,,,,,,,,,,,,
33,29,Memory,0,,,,,,,sunahpblecxtmuzkmxb.jpg,,,,,,,,,,,,,,,
34,29,Memory,0,,,,,,,00101931230fb.jpg,,,,,,,,,,,,,,,
35,29,Memory,0,,,,,,,sunaaemixhfquhnxxlm.jpg,,,,,,,,,,,,,,,
36,29,Memory,0,,,,,,,00060931230fa.jpg,,,,,,,,,,,,,,,
37,29,Memory,0,,,,,,,sunabxsuqbleluwczoy.jpg,,,,,,,,,,,,,,,
38,29,Memory,0,,,,,,,sunaetydippjxikifsb.jpg,,,,,,,,,,,,,,,
39,29,Memory,0,,,,,,,sunaajqmsaavkmgbsth.jpg,,,,,,,,,,,,,,,
40,29,Memory,0,,,,,,,00098931230fa.jpg,,,,,,,,,,,,,,,
41,29,Memory,0,,,,,,,00126931230fb.jpg,,,,,,,,,,,,,,,
42,29,Memory,0,,,,,,,sunafpfpiiujzoesnqg.jpg,,,,,,,,,,,,,,,
43,29,Memory,0,,,,,,,00818940307fa.jpg,,,,,,,,,,,,,,,
44,29,Memory,0,,,,,,,00772941201fa.jpg,,,,,,,,,,,,,,,
45,29,Memory,0,,,,,,,00819940307fa.jpg,,,,,,,,,,,,,,,
46,29,Memory,0,,,,,,,00989960627fa.jpg,,,,,,,,,,,,,,,
47,29,Memory,0,,,,,,,sunaajpqmulidejvjsr.jpg,,,,,,,,,,,,,,,
48,29,Memory,0,,,,,,,sunaahwnmtqsrhocysw.jpg,,,,,,,,,,,,,,,
49,29,Memory,0,,,,,,,00263940128fb.jpg,,,,,,,,,,,,,,,
50,29,Presentation,1,00154931230fa_sunaauueuhhvklldjik.jpg,00943960627fa_sunarpsxqkduedrrzyi.jpg,00154931230fa.jpg,sunaauueuhhvklldjik.jpg,00943960627fa.jpg,sunarpsxqkduedrrzyi.jpg,,,<,Face,,,,,1,,,,,,,x
51,29,Presentation,1,00938960627fa_sunaqyylsngywqzwfmx.jpg,00763941205fa_sunafhmnhsdurlvddpw.jpg,00938960627fa.jpg,sunaqyylsngywqzwfmx.jpg,00763941205fa.jpg,sunafhmnhsdurlvddpw.jpg,,,<,Face,,,,,1,,,,,,,o
52,29,Presentation,1,00766960620fa_sunafijbgncijwykrnl.jpg,00988960627fa_sunbmaiocftdtvnzgap.jpg,00766960620fa.jpg,sunafijbgncijwykrnl.jpg,00988960627fa.jpg,sunbmaiocftdtvnzgap.jpg,,,<,Place,,,,,0,,,,,,,x
53,29,Presentation,1,00650941031fa_sunadikxpvqeabxrvvc.jpg,00778941205fa_sunagcthdfirrcawoic.jpg,00650941031fa.jpg,sunadikxpvqeabxrvvc.jpg,00778941205fa.jpg,sunagcthdfirrcawoic.jpg,,,>,Face,,,,,1,,,,,,,x
54,29,Presentation,1,00880960530fa_sunakmnfgklupjijsgf.jpg,00762941201fa_sunafgzgbisbopcyslr.jpg,00880960530fa.jpg,sunakmnfgklupjijsgf.jpg,00762941201fa.jpg,sunafgzgbisbopcyslr.jpg,,,>,Face,,,,,1,,,,,,,o
55,29,Presentation,1,00288940422fa_sunabppokiyglaxpcha.jpg,00773941201fa_sunafvcflzhlqloapyo.jpg,00288940422fa.jpg,sunabppokiyglaxpcha.jpg,00773941201fa.jpg,sunafvcflzhlqloapyo.jpg,,,<,Place,,,,,1,,,,,,,o
56,29,Presentation,1,00805941205fa_sunagwzdbtlixdhgolm.jpg,00543940519fa_sunacepzfrmtkiqonpy.jpg,00805941205fa.jpg,sunagwzdbtlixdhgolm.jpg,00543940519fa.jpg,sunacepzfrmtkiqonpy.jpg,,,>,Place,,,,,1,,,,,,,x
57,29,Presentation,1,00779941205fa_sunagdzlvkqtpnfxfcg.jpg,00882960530fa_sunaknlirqjqiwbbeeg.jpg,00779941205fa.jpg,sunagdzlvkqtpnfxfcg.jpg,00882960530fa.jpg,sunaknlirqjqiwbbeeg.jpg,,,<,Place,,,,,0,,,,,,,x
58,29,Presentation,1,00953960627fa_sunatstrpjxhvtbaczf.jpg,00280940422fb_sunabohxbskznglnrhv.jpg,00953960627fa.jpg,sunatstrpjxhvtbaczf.jpg,00280940422fb.jpg,sunabohxbskznglnrhv.jpg,,,>,Place,,,,,1,,,,,,,x
59,29,Presentation,1,00112931230fa_sunaakjaacuzulqckgl.jpg,00163931230fb_sunaavodbcpygkggnfp.jpg,00112931230fa.jpg,sunaakjaacuzulqckgl.jpg,00163931230fb.jpg,sunaavodbcpygkggnfp.jpg,,,>,Face,,,,,1,,,,,,,o
60,29,Memory,1,,,,,,,00952960627fa.jpg,,,,,,,,,,,,,,,
61,29,Memory,1,,,,,,,00778941205fa.jpg,,,,,,,,,,,,,,,
62,29,Memory,1,,,,,,,sunagtumacdlmciqamz.jpg,,,,,,,,,,,,,,,
63,29,Memory,1,,,,,,,00779941205fa.jpg,,,,,,,,,,,,,,,
64,29,Memory,1,,,,,,,00953960627fa.jpg,,,,,,,,,,,,,,,
65,29,Memory,1,,,,,,,00943960627fa.jpg,,,,,,,,,,,,,,,
66,29,Memory,1,,,,,,,sunalqmfgeadpqsyzpd.jpg,,,,,,,,,,,,,,,
67,29,Memory,1,,,,,,,sunaizeyhvjzknwjudw.jpg,,,,,,,,,,,,,,,
68,29,Memory,1,,,,,,,00986960627fa.jpg,,,,,,,,,,,,,,,
69,29,Memory,1,,,,,,,00773941201fa.jpg,,,,,,,,,,,,,,,
70,29,Memory,1,,,,,,,sunafijbgncijwykrnl.jpg,,,,,,,,,,,,,,,
71,29,Memory,1,,,,,,,sunbgzjryivyczuvkvm.jpg,,,,,,,,,,,,,,,
72,29,Memory,1,,,,,,,00860940307fa.jpg,,,,,,,,,,,,,,,
73,29,Memory,1,,,,,,,sunaeoghzrjarigmwua.jpg,,,,,,,,,,,,,,,
74,29,Memory,1,,,,,,,sunarpsxqkduedrrzyi.jpg,,,,,,,,,,,,,,,
75,29,Memory,1,,,,,,,sunadcphrizvfpljiqt.jpg,,,,,,,,,,,,,,,
76,29,Memory,1,,,,,,,sunafvcflzhlqloapyo.jpg,,,,,,,,,,,,,,,
77,29,Memory,1,,,,,,,00795941205fa.jpg,,,,,,,,,,,,,,,
78,29,Memory,1,,,,,,,00163931230fb.jpg,,,,,,,,,,,,,,,
79,29,Memory,1,,,,,,,00762941201fa.jpg,,,,,,,,,,,,,,,
80,29,Memory,1,,,,,,,00154931230fa.jpg,,,,,,,,,,,,,,,
81,29,Memory,1,,,,,,,sunatstrpjxhvtbaczf.jpg,,,,,,,,,,,,,,,
82,29,Memory,1,,,,,,,00894960620fa.jpg,,,,,,,,,,,,,,,
83,29,Memory,1,,,,,,,sunagcthdfirrcawoic.jpg,,,,,,,,,,,,,,,
84,29,Memory,1,,,,,,,sunagdzlvkqtpnfxfcg.jpg,,,,,,,,,,,,,,,
85,29,Memory,1,,,,,,,sunaauueuhhvklldjik.jpg,,,,,,,,,,,,,,,
86,29,Memory,1,,,,,,,00634940928fa.jpg,,,,,,,,,,,,,,,
87,29,Memory,1,,,,,,,00858940307fa.jpg,,,,,,,,,,,,,,,
88,29,Memory,1,,,,,,,00548940519fa.jpg,,,,,,,,,,,,,,,
89,29,Memory,1,,,,,,,00771941205fa.jpg,,,,,,,,,,,,,,,
90,29,Memory,1,,,,,,,sunaixpqndlwhwjtjek.jpg,,,,,,,,,,,,,,,
91,29,Memory,1,,,,,,,00743941201fa.jpg,,,,,,,,,,,,,,,
92,29,Memory,1,,,,,,,sunaavodbcpygkggnfp.jpg,,,,,,,,,,,,,,,
93,29,Memory,1,,,,,,,sunafowswglhxcsufpo.jpg,,,,,,,,,,,,,,,
94,29,Memory,1,,,,,,,sunathzzbcwjykldrem.jpg,,,,,,,,,,,,,,,
95,29,Memory,1,,,,,,,00805941205fa.jpg,,,,,,,,,,,,,,,
96,29,Memory,1,,,,,,,sunagwzdbtlixdhgolm.jpg,,,,,,,,,,,,,,,
97,29,Memory,1,,,,,,,sunacerqowiaeoqkmsq.jpg,,,,,,,,,,,,,,,
98,29,Memory,1,,,,,,,sunafgzgbisbopcyslr.jpg,,,,,,,,,,,,,,,
99,29,Memory,1,,,,,,,00766960620fa.jpg,,,,,,,,,,,,,,,
100,29,Presentation,2,00270940422fb_sunabllobxadqcyttej.jpg,00262940128fa_sunabizydfotqddlnjp.jpg,00270940422fb.jpg,sunabllobxadqcyttej.jpg,00262940128fa.jpg,sunabizydfotqddlnjp.jpg,,,<,Face,,,,,1,,,,,,,x
101,29,Presentation,2,00985960627fa_sunbgklxeqjhdbyfhhy.jpg,00700941121fa_sunadsgmtznewzyasnk.jpg,00985960627fa.jpg,sunbgklxeqjhdbyfhhy.jpg,00700941121fa.jpg,sunadsgmtznewzyasnk.jpg,,,<,Place,,,,,1,,,,,,,o
102,29,Presentation,2,00265940128fb_sunabkmdplkdbvxriff.jpg,00140931230fb_sunaapllqyqlykszopd.jpg,00265940128fb.jpg,sunabkmdplkdbvxriff.jpg,00140931230fb.jpg,sunaapllqyqlykszopd.jpg,,,<,Place,,,,,1,,,,,,,x
103,29,Presentation,2,00996960627fa_sunbpvgllfdejxcpjqp.jpg,00564940928fa_sunacmpqqfbsvlzinzl.jpg,00996960627fa.jpg,sunbpvgllfdejxcpjqp.jpg,00564940928fa.jpg,sunacmpqqfbsvlzinzl.jpg,,,<,Place,,,,,1,,,,,,,x
104,29,Presentation,2,00554940519fa_sunacfdkbsrughwqwtt.jpg,00751960620fa_sunaezuszgtxnmsxdbk.jpg,00554940519fa.jpg,sunacfdkbsrughwqwtt.jpg,00751960620fa.jpg,sunaezuszgtxnmsxdbk.jpg,,,>,Place,,,,,1,,,,,,,o
105,29,Presentation,2,00198940128fb_sunaazezcsunmhttzxz.jpg,00557940519fa_sunachtuarilwyqnvjx.jpg,00198940128fb.jpg,sunaazezcsunmhttzxz.jpg,00557940519fa.jpg,sunachtuarilwyqnvjx.jpg,,,>,Face,,,,,0,,,,,,,o
106,29,Presentation,2,00720960620fa_sunaecpkgfewqqreqwe.jpg,00825940307fa_sunahrltmuwbiehihpe.jpg,00720960620fa.jpg,sunaecpkgfewqqreqwe.jpg,00825940307fa.jpg,sunahrltmuwbiehihpe.jpg,,,<,Face,,,,,1,,,,,,,o
107,29,Presentation,2,00947960627fa_sunasmmcxdddtmtazwx.jpg,00292940422fb_sunabrjdpmoedcdjbpo.jpg,00947960627fa.jpg,sunasmmcxdddtmtazwx.jpg,00292940422fb.jpg,sunabrjdpmoedcdjbpo.jpg,,,>,Face,,,,,1,,,,,,,o
108,29,Presentation,2,00264940128fb_sunabjzyxcjnmztdonj.jpg,00878960530fa_sunakgbnzxmfohgehnu.jpg,00264940128fb.jpg,sunabjzyxcjnmztdonj.jpg,00878960530fa.jpg,sunakgbnzxmfohgehnu.jpg,,,>,Place,,,,,1,,,,,,,x
109,29,Presentation,2,00859940307fa_sunaiycurtqsfkvcaso.jpg,00776941205fa_sunafxokyavhgptyfye.jpg,00859940307fa.jpg,sunaiycurtqsfkvcaso.jpg,00776941205fa.jpg,sunafxokyavhgptyfye.jpg,,,>,Face,,,,,1,,,,,,,o
110,29,Memory,2,,,,,,,sunaivflshbyfrfzhqb.jpg,,,,,,,,,,,,,,,
111,29,Memory,2,,,,,,,sunaapllqyqlykszopd.jpg,,,,,,,,,,,,,,,
112,29,Memory,2,,,,,,,00790941205fa.jpg,,,,,,,,,,,,,,,
113,29,Memory,2,,,,,,,00929960627fa.jpg,,,,,,,,,,,,,,,
114,29,Memory,2,,,,,,,sunaazezcsunmhttzxz.jpg,,,,,,,,,,,,,,,
115,29,Memory,2,,,,,,,sunaivdjruhkrfywfed.jpg,,,,,,,,,,,,,,,
116,29,Memory,2,,,,,,,sunaecpkgfewqqreqwe.jpg,,,,,,,,,,,,,,,
117,29,Memory,2,,,,,,,sunabjzyxcjnmztdonj.jpg,,,,,,,,,,,,,,,
118,29,Memory,2,,,,,,,00902960530fa.jpg,,,,,,,,,,,,,,,
119,29,Memory,2,,,,,,,00264940128fb.jpg,,,,,,,,,,,,,,,
120,29,Memory,2,,,,,,,00198940128fb.jpg,,,,,,,,,,,,,,,
121,29,Memory,2,,,,,,,sunasmmcxdddtmtazwx.jpg,,,,,,,,,,,,,,,
122,29,Memory,2,,,,,,,sunabkmdplkdbvxriff.jpg,,,,,,,,,,,,,,,
123,29,Memory,2,,,,,,,00987960627fa.jpg,,,,,,,,,,,,,,,
124,29,Memory,2,,,,,,,sunaprnrbmgkomdbchr.jpg,,,,,,,,,,,,,,,
125,29,Memory,2,,,,,,,00292940422fb.jpg,,,,,,,,,,,,,,,
126,29,Memory,2,,,,,,,sunawksfbacycuhbrsc.jpg,,,,,,,,,,,,,,,
127,29,Memory,2,,,,,,,sunbloeoiozwjjsiamp.jpg,,,,,,,,,,,,,,,
128,29,Memory,2,,,,,,,00720960620fa.jpg,,,,,,,,,,,,,,,
129,29,Memory,2,,,,,,,00851940307fa.jpg,,,,,,,,,,,,,,,
130,29,Memory,2,,,,,,,00557940519fa.jpg,,,,,,,,,,,,,,,
131,29,Memory,2,,,,,,,00265940128fb.jpg,,,,,,,,,,,,,,,
132,29,Memory,2,,,,,,,00878960530fa.jpg,,,,,,,,,,,,,,,
133,29,Memory,2,,,,,,,00910960530fa.jpg,,,,,,,,,,,,,,,
134,29,Memory,2,,,,,,,sunayaepykrqvenaqqy.jpg,,,,,,,,,,,,,,,
135,29,Memory,2,,,,,,,00745941205fa.jpg,,,,,,,,,,,,,,,
136,29,Memory,2,,,,,,,00947960627fa.jpg,,,,,,,,,,,,,,,
137,29,Memory,2,,,,,,,sunagpjzsbltchlwvou.jpg,,,,,,,,,,,,,,,
138,29,Memory,2,,,,,,,sunabizydfotqddlnjp.jpg,,,,,,,,,,,,,,,
139,29,Memory,2,,,,,,,sunanaacmmosxrfwmvl.jpg,,,,,,,,,,,,,,,
140,29,Memory,2,,,,,,,sunabrjdpmoedcdjbpo.jpg,,,,,,,,,,,,,,,
141,29,Memory,2,,,,,,,sunakgbnzxmfohgehnu.jpg,,,,,,,,,,,,,,,
142,29,Memory,2,,,,,,,00140931230fb.jpg,,,,,,,,,,,,,,,
143,29,Memory,2,,,,,,,sunaofikylqtxphvdem.jpg,,,,,,,,,,,,,,,
144,29,Memory,2,,,,,,,sunachtuarilwyqnvjx.jpg,,,,,,,,,,,,,,,
145,29,Memory,2,,,,,,,00262940128fa.jpg,,,,,,,,,,,,,,,
146,29,Memory,2,,,,,,,00847940307fa.jpg,,,,,,,,,,,,,,,
147,29,Memory,2,,,,,,,00960960627fa.jpg,,,,,,,,,,,,,,,
148,29,Memory,2,,,,,,,00963960627fa.jpg,,,,,,,,,,,,,,,
149,29,Memory,2,,,,,,,sunaeouogqolxvggaoq.jpg,,,,,,,,,,,,,,,
150,29,Presentation,3,00242940128fa_sunabcuurugvxwparpk.jpg,00871940307_sunajrujcsdxmfbssmc.jpg,00242940128fa.jpg,sunabcuurugvxwparpk.jpg,00871940307.jpg,sunajrujcsdxmfbssmc.jpg,,,>,Face,,,,,1,,,,,,,x
151,29,Presentation,3,00901960530fa_sunammbnoambmhdxdwd.jpg,00877960530fa_sunajxpkuhbizeveguy.jpg,00901960530fa.jpg,sunammbnoambmhdxdwd.jpg,00877960530fa.jpg,sunajxpkuhbizeveguy.jpg,,,<,Face,,,,,1,,,,,,,o
152,29,Presentation,3,00132931230fb_sunaanjcbzdvtvblsdy.jpg,01009960627fa_sunbxzweleltykebgan.jpg,00132931230fb.jpg,sunaanjcbzdvtvblsdy.jpg,01009960627fa.jpg,sunbxzweleltykebgan.jpg,,,<,Face,,,,,1,,,,,,,x
153,29,Presentation,3,00123931230fb_sunaalcrrdbjgdztbiz.jpg,00815941205fa_sunahiphsekjihkafsl.jpg,00123931230fb.jpg,sunaalcrrdbjgdztbiz.jpg,00815941205fa.jpg,sunahiphsekjihkafsl.jpg,,,<,Face,,,,,1,,,,,,,x
154,29,Presentation,3,00728941205fa_sunaejnvnpltdmhbcsi.jpg,00063931230fa_sunaaelyvurpntclgau.jpg,00728941205fa.jpg,sunaejnvnpltdmhbcsi.jpg,00063931230fa.jpg,sunaaelyvurpntclgau.jpg,,,>,Place,,,,,1,,,,,,,x
155,29,Presentation,3,00967960627fa_sunbaejotfklekvpxcz.jpg,00194940128fb_sunaayehfdqcyxggsej.jpg,00967960627fa.jpg,sunbaejotfklekvpxcz.jpg,00194940128fb.jpg,sunaayehfdqcyxggsej.jpg,,,>,Face,,,,,0,,,,,,,o
156,29,Presentation,3,00822940307fa_sunahqrxievfeusiqlt.jpg,00540940519fa_sunacdnquypmsshhsbk.jpg,00822940307fa.jpg,sunahqrxievfeusiqlt.jpg,00540940519fa.jpg,sunacdnquypmsshhsbk.jpg,,,>,Place,,,,,1,,,,,,,o
157,29,Presentation,3,00071940128fa_sunaaexpnawiehinlpy.jpg,00895960530fa_sunamczizlzavhzhpay.jpg,00071940128fa.jpg,sunaaexpnawiehinlpy.jpg,00895960530fa.jpg,sunamczizlzavhzhpay.jpg,,,>,Place,,,,,1,,,,,,,o
158,29,Presentation,3,00801941205fa_sunagvprlbprarvgdvj.jpg,00968960627fa_sunbagfpovqwbuexqdn.jpg,00801941205fa.jpg,sunagvprlbprarvgdvj.jpg,00968960627fa.jpg,sunbagfpovqwbuexqdn.jpg,,,<,Place,,,,,1,,,,,,,x
159,29,Presentation,3,00108960530fa_sunaajtnvzzpsjdzres.jpg,00773960620fa_sunafvsxtzaizojicxx.jpg,00108960530fa.jpg,sunaajtnvzzpsjdzres.jpg,00773960620fa.jpg,sunafvsxtzaizojicxx.jpg,,,<,Place,,,,,1,,,,,,,x
160,29,Memory,3,,,,,,,00562941031fa.jpg,,,,,,,,,,,,,,,
161,29,Memory,3,,,,,,,00982960627fa.jpg,,,,,,,,,,,,,,,
162,29,Memory,3,,,,,,,sunaglqunwuycxydmyu.jpg,,,,,,,,,,,,,,,
163,29,Memory,3,,,,,,,00815941205fa.jpg,,,,,,,,,,,,,,,
164,29,Memory,3,,,,,,,00785941205fa.jpg,,,,,,,,,,,,,,,
165,29,Memory,3,,,,,,,sunaalcrrdbjgdztbiz.jpg,,,,,,,,,,,,,,,
166,29,Memory,3,,,,,,,sunbesrwkdsffeogeqq.jpg,,,,,,,,,,,,,,,
167,29,Memory,3,,,,,,,00132931230fb.jpg,,,,,,,,,,,,,,,
168,29,Memory,3,,,,,,,00812941205fa.jpg,,,,,,,,,,,,,,,
169,29,Memory,3,,,,,,,sunaejnvnpltdmhbcsi.jpg,,,,,,,,,,,,,,,
170,29,Memory,3,,,,,,,00944960627fa.jpg,,,,,,,,,,,,,,,
171,29,Memory,3,,,,,,,sunabrwnslxalcohfre.jpg,,,,,,,,,,,,,,,
172,29,Memory,3,,,,,,,00877960530fa.jpg,,,,,,,,,,,,,,,
173,29,Memory,3,,,,,,,00239940128fa.jpg,,,,,,,,,,,,,,,
174,29,Memory,3,,,,,,,00296940422fa.jpg,,,,,,,,,,,,,,,
175,29,Memory,3,,,,,,,sunbaejotfklekvpxcz.jpg,,,,,,,,,,,,,,,
176,29,Memory,3,,,,,,,00108960530fa.jpg,,,,,,,,,,,,,,,
177,29,Memory,3,,,,,,,sunasbbntuiheekqyaq.jpg,,,,,,,,,,,,,,,
178,29,Memory,3,,,,,,,sunaajtnvzzpsjdzres.jpg,,,,,,,,,,,,,,,
179,29,Memory,3,,,,,,,sunaanjcbzdvtvblsdy.jpg,,,,,,,,,,,,,,,
180,29,Memory,3,,,,,,,sunacjnahdmqfnjfwqx.jpg,,,,,,,,,,,,,,,
181,29,Memory,3,,,,,,,00728941205fa.jpg,,,,,,,,,,,,,,,
182,29,Memory,3,,,,,,,00314940422fa.jpg,,,,,,,,,,,,,,,
183,29,Memory,3,,,,,,,00063931230fa.jpg,,,,,,,,,,,,,,,
184,29,Memory,3,,,,,,,sunaenwuebvlpdmntju.jpg,,,,,,,,,,,,,,,
185,29,Memory,3,,,,,,,00609940928fa.jpg,,,,,,,,,,,,,,,
186,29,Memory,3,,,,,,,sunaaelyvurpntclgau.jpg,,,,,,,,,,,,,,,
187,29,Memory,3,,,,,,,00742941201fa.jpg,,,,,,,,,,,,,,,
188,29,Memory,3,,,,,,,sunahiphsekjihkafsl.jpg,,,,,,,,,,,,,,,
189,29,Memory,3,,,,,,,sunabwmcbaxwioksdgw.jpg,,,,,,,,,,,,,,,
190,29,Memory,3,,,,,,,00123931230fb.jpg,,,,,,,,,,,,,,,
191,29,Memory,3,,,,,,,00967960627fa.jpg,,,,,,,,,,,,,,,
192,29,Memory,3,,,,,,,sunajrujcsdxmfbssmc.jpg,,,,,,,,,,,,,,,
193,29,Memory,3,,,,,,,00871940307.jpg,,,,,,,,,,,,,,,
194,29,Memory,3,,,,,,,sunamczizlzavhzhpay.jpg,,,,,,,,,,,,,,,
195,29,Memory,3,,,,,,,sunahgtbwgsmtqeodwh.jpg,,,,,,,,,,,,,,,
196,29,Memory,3,,,,,,,sunabctlikybqabezjv.jpg,,,,,,,,,,,,,,,
197,29,Memory,3,,,,,,,sunajxpkuhbizeveguy.jpg,,,,,,,,,,,,,,,
198,29,Memory,3,,,,,,,sunacycdoztxoluxjyk.jpg,,,,,,,,,,,,,,,
199,29,Memory,3,,,,,,,00895960530fa.jpg,,,,,,,,,,,,,,,
200,29,Presentation,4,00070940307fa_sunaaeplwsfslcbtojr.jpg,00793941205fa_sunagtjwilqjvxohypn.jpg,00070940307fa.jpg,sunaaeplwsfslcbtojr.jpg,00793941205fa.jpg,sunagtjwilqjvxohypn.jpg,,,>,Face,,,,,1,,,,,,,o
201,29,Presentation,4,00077931230fb_sunaafgqutfaishsxyu.jpg,00636941031fa_sunaddtdkycxbqlpfqa.jpg,00077931230fb.jpg,sunaafgqutfaishsxyu.jpg,00636941031fa.jpg,sunaddtdkycxbqlpfqa.jpg,,,>,Face,,,,,1,,,,,,,x
202,29,Presentation,4,00631940928fa_sunadbdqzigzwipuipr.jpg,00777941205fa_sunagcinxkccdtrjmlv.jpg,00631940928fa.jpg,sunadbdqzigzwipuipr.jpg,00777941205fa.jpg,sunagcinxkccdtrjmlv.jpg,,,<,Place,,,,,1,,,,,,,o
203,29,Presentation,4,00885960530fa_sunakwlvxjpddialozd.jpg,00803941205fa_sunagvxkjokqimstxpe.jpg,00885960530fa.jpg,sunakwlvxjpddialozd.jpg,00803941205fa.jpg,sunagvxkjokqimstxpe.jpg,,,<,Face,,,,,1,,,,,,,x
204,29,Presentation,4,00950960627fa_sunasrjlmglmjzbmqxb.jpg,00211940128fa_sunabasphceswhwwqvv.jpg,00950960627fa.jpg,sunasrjlmglmjzbmqxb.jpg,00211940128fa.jpg,sunabasphceswhwwqvv.jpg,,,>,Place,,,,,1,,,,,,,o
205,29,Presentation,4,00705960530fa_sunaduslxfzlbxlllnz.jpg,00245940128fa_sunabeyhmxodahoieyk.jpg,00705960530fa.jpg,sunaduslxfzlbxlllnz.jpg,00245940128fa.jpg,sunabeyhmxodahoieyk.jpg,,,<,Place,,,,,1,,,,,,,x
206,29,Presentation,4,00119931230fb_sunaakvmbftkrgqhjun.jpg,00811960530fa_sunahedfrhtcwpneund.jpg,00119931230fb.jpg,sunaakvmbftkrgqhjun.jpg,00811960530fa.jpg,sunahedfrhtcwpneund.jpg,,,>,Face,,,,,1,,,,,,,o
207,29,Presentation,4,00120931230fa_sunaakxgygjfqrzpyoz.jpg,00598941031fa_sunacxtcahkymosigud.jpg,00120931230fa.jpg,sunaakxgygjfqrzpyoz.jpg,00598941031fa.jpg,sunacxtcahkymosigud.jpg,,,>,Place,,,,,0,,,,,,,o
208,29,Presentation,4,00568940928fa_sunacsdhbbsybcyxnel.jpg,00906960530fa_sunantryfbloeaomfta.jpg,00568940928fa.jpg,sunacsdhbbsybcyxnel.jpg,00906960530fa.jpg,sunantryfbloeaomfta.jpg,,,<,Face,,,,,1,,,,,,,o
209,29,Presentation,4,00302940422fa_sunabtlfmiwtljmoues.jpg,00719941201fa_sunadvithllcgmfxsrn.jpg,00302940422fa.jpg,sunabtlfmiwtljmoues.jpg,00719941201fa.jpg,sunadvithllcgmfxsrn.jpg,,,<,Place,,,,,1,,,,,,,x
210,29,Memory,4,,,,,,,sunabeyhmxodahoieyk.jpg,,,,,,,,,,,,,,,
211,29,Memory,4,,,,,,,00803941205fa.jpg,,,,,,,,,,,,,,,
212,29,Memory,4,,,,,,,00950960627fa.jpg,,,,,,,,,,,,,,,
213,29,Memory,4,,,,,,,sunabaergayifsgacxt.jpg,,,,,,,,,,,,,,,
214,29,Memory,4,,,,,,,00133931230fa.jpg,,,,,,,,,,,,,,,
215,29,Memory,4,,,,,,,00120931230fa.jpg,,,,,,,,,,,,,,,
216,29,Memory,4,,,,,,,00081941031fa.jpg,,,,,,,,,,,,,,,
217,29,Memory,4,,,,,,,00568940928fa.jpg,,,,,,,,,,,,,,,
218,29,Memory,4,,,,,,,00598940928fa.jpg,,,,,,,,,,,,,,,
219,29,Memory,4,,,,,,,sunaanptmsknhirrzed.jpg,,,,,,,,,,,,,,,
220,29,Memory,4,,,,,,,sunabzuqsrgcsonqlkz.jpg,,,,,,,,,,,,,,,
221,29,Memory,4,,,,,,,sunadnjjzohjhbohlwq.jpg,,,,,,,,,,,,,,,
222,29,Memory,4,,,,,,,sunacxeheuiigkcgquf.jpg,,,,,,,,,,,,,,,
223,29,Memory,4,,,,,,,sunaanlwnpqndclffxt.jpg,,,,,,,,,,,,,,,
224,29,Memory,4,,,,,,,sunaafgqutfaishsxyu.jpg,,,,,,,,,,,,,,,
225,29,Memory,4,,,,,,,sunaakxgygjfqrzpyoz.jpg,,,,,,,,,,,,,,,
226,29,Memory,4,,,,,,,00793941205fa.jpg,,,,,,,,,,,,,,,
227,29,Memory,4,,,,,,,00245940128fa.jpg,,,,,,,,,,,,,,,
228,29,Memory,4,,,,,,,00136931230fb.jpg,,,,,,,,,,,,,,,
229,29,Memory,4,,,,,,,sunacsdhbbsybcyxnel.jpg,,,,,,,,,,,,,,,
230,29,Memory,4,,,,,,,00906960530fa.jpg,,,,,,,,,,,,,,,
231,29,Memory,4,,,,,,,00294940422fb.jpg,,,,,,,,,,,,,,,
232,29,Memory,4,,,,,,,sunadbdqzigzwipuipr.jpg,,,,,,,,,,,,,,,
233,29,Memory,4,,,,,,,00971960627fa.jpg,,,,,,,,,,,,,,,
234,29,Memory,4,,,,,,,sunabrlndkruqokhury.jpg,,,,,,,,,,,,,,,
235,29,Memory,4,,,,,,,sunantryfbloeaomfta.jpg,,,,,,,,,,,,,,,
236,29,Memory,4,,,,,,,00811960530fa.jpg,,,,,,,,,,,,,,,
237,29,Memory,4,,,,,,,sunaaftlyfudyzuhqzf.jpg,,,,,,,,,,,,,,,
238,29,Memory,4,,,,,,,sunahedfrhtcwpneund.jpg,,,,,,,,,,,,,,,
239,29,Memory,4,,,,,,,sunapqwoeotxshkukbh.jpg,,,,,,,,,,,,,,,
240,29,Memory,4,,,,,,,sunagtjwilqjvxohypn.jpg,,,,,,,,,,,,,,,
241,29,Memory,4,,,,,,,sunagvxkjokqimstxpe.jpg,,,,,,,,,,,,,,,
242,29,Memory,4,,,,,,,00926960627Fa.jpg,,,,,,,,,,,,,,,
243,29,Memory,4,,,,,,,00505960627fa.jpg,,,,,,,,,,,,,,,
244,29,Memory,4,,,,,,,00663941121fa.jpg,,,,,,,,,,,,,,,
245,29,Memory,4,,,,,,,00209940128fb.jpg,,,,,,,,,,,,,,,
246,29,Memory,4,,,,,,,00631940928fa.jpg,,,,,,,,,,,,,,,
247,29,Memory,4,,,,,,,sunasrjlmglmjzbmqxb.jpg,,,,,,,,,,,,,,,
248,29,Memory,4,,,,,,,sunbbegcweqnetpdlrh.jpg,,,,,,,,,,,,,,,
249,29,Memory,4,,,,,,,00077931230fb.jpg,,,,,,,,,,,,,,,
250,29,Presentation,5,00109931230fa_sunaajuzribjrizdshh.jpg,00111931230fb_sunaakgekhjklxmvulj.jpg,00109931230fa.jpg,sunaajuzribjrizdshh.jpg,00111931230fb.jpg,sunaakgekhjklxmvulj.jpg,,,>,Face,,,,,1,,,,,,,x
251,29,Presentation,5,00999960627fa_sunbvbrvgbpanfrawft.jpg,00835940307fa_sunaijsqpvodplbwxkf.jpg,00999960627fa.jpg,sunbvbrvgbpanfrawft.jpg,00835940307fa.jpg,sunaijsqpvodplbwxkf.jpg,,,<,Face,,,,,0,,,,,,,x
252,29,Presentation,5,01004960627fa_sunbwtlihsuptkrckid.jpg,00124931230fa_sunaalhlvzmjmitybdn.jpg,01004960627fa.jpg,sunbwtlihsuptkrckid.jpg,00124931230fa.jpg,sunaalhlvzmjmitybdn.jpg,,,>,Place,,,,,1,,,,,,,o
253,29,Presentation,5,00694941121fa_sunadrmfzmstgdjdcod.jpg,00809960620fa_sunahbvlpavurqoxdeq.jpg,00694941121fa.jpg,sunadrmfzmstgdjdcod.jpg,00809960620fa.jpg,sunahbvlpavurqoxdeq.jpg,,,<,Place,,,,,1,,,,,,,x
254,29,Presentation,5,00786941205fa_sunagmhildamktmqjss.jpg,01002960627fb_sunbwaafjdebjzttuvq.jpg,00786941205fa.jpg,sunagmhildamktmqjss.jpg,01002960627fb.jpg,sunbwaafjdebjzttuvq.jpg,,,>,Place,,,,,1,,,,,,,o
255,29,Presentation,5,00884960530fa_sunakodkcslgqhqlgwl.jpg,00266940128fb_sunabkngeblodihjvbk.jpg,00884960530fa.jpg,sunakodkcslgqhqlgwl.jpg,00266940128fb.jpg,sunabkngeblodihjvbk.jpg,,,>,Face,,,,,1,,,,,,,x
256,29,Presentation,5,00889960530fa_sunaletopenvvozhpxc.jpg,00949960627fb_sunasnqkkyhilqkxiqm.jpg,00889960530fa.jpg,sunaletopenvvozhpxc.jpg,00949960627fb.jpg,sunasnqkkyhilqkxiqm.jpg,,,>,Face,,,,,1,,,,,,,x
257,29,Presentation,5,00753941201fa_sunafcofuuzebuadceo.jpg,00754941201fa_sunaffgsyyvoqdlkmnk.jpg,00753941201fa.jpg,sunafcofuuzebuadceo.jpg,00754941201fa.jpg,sunaffgsyyvoqdlkmnk.jpg,,,<,Face,,,,,1,,,,,,,x
258,29,Presentation,5,00787960620fa_sunagoufulkpsxrmklt.jpg,00090931230fa_sunaahedjlmtqekgyvj.jpg,00787960620fa.jpg,sunagoufulkpsxrmklt.jpg,00090931230fa.jpg,sunaahedjlmtqekgyvj.jpg,,,<,Place,,,,,1,,,,,,,o
259,29,Presentation,5,00977960627fa_sunbbxkanhzjgbwyxqs.jpg,00898960530fa_sunamkmeblgteyggink.jpg,00977960627fa.jpg,sunbbxkanhzjgbwyxqs.jpg,00898960530fa.jpg,sunamkmeblgteyggink.jpg,,,<,Place,,,,,1,,,,,,,x
260,29,Memory,5,,,,,,,00979960627fa.jpg,,,,,,,,,,,,,,,
261,29,Memory,5,,,,,,,00574940928fa.jpg,,,,,,,,,,,,,,,
262,29,Memory,5,,,,,,,sunbpflsdaxnddnwcqi.jpg,,,,,,,,,,,,,,,
263,29,Memory,5,,,,,,,sunadpnqovzckyikrjo.jpg,,,,,,,,,,,,,,,
264,29,Memory,5,,,,,,,00089931230fa.jpg,,,,,,,,,,,,,,,
265,29,Memory,5,,,,,,,sunagoufulkpsxrmklt.jpg,,,,,,,,,,,,,,,
266,29,Memory,5,,,,,,,00124931230fa.jpg,,,,,,,,,,,,,,,
267,29,Memory,5,,,,,,,sunbwaafjdebjzttuvq.jpg,,,,,,,,,,,,,,,
268,29,Memory,5,,,,,,,sunahbvlpavurqoxdeq.jpg,,,,,,,,,,,,,,,
269,29,Memory,5,,,,,,,00955960627fb.jpg,,,,,,,,,,,,,,,
270,29,Memory,5,,,,,,,sunaagcpoejbuzyvddd.jpg,,,,,,,,,,,,,,,
271,29,Memory,5,,,,,,,sunauburywlkjszngcq.jpg,,,,,,,,,,,,,,,
272,29,Memory,5,,,,,,,sunagmhildamktmqjss.jpg,,,,,,,,,,,,,,,
273,29,Memory,5,,,,,,,sunacvbrcejzwmcgnoq.jpg,,,,,,,,,,,,,,,
274,29,Memory,5,,,,,,,00111931230fb.jpg,,,,,,,,,,,,,,,
275,29,Memory,5,,,,,,,00227940128fa.jpg,,,,,,,,,,,,,,,
276,29,Memory,5,,,,,,,00694941121fa.jpg,,,,,,,,,,,,,,,
277,29,Memory,5,,,,,,,sunabwjvmoaddlyxfjr.jpg,,,,,,,,,,,,,,,
278,29,Memory,5,,,,,,,sunaijsqpvodplbwxkf.jpg,,,,,,,,,,,,,,,
279,29,Memory,5,,,,,,,01002960627fb.jpg,,,,,,,,,,,,,,,
280,29,Memory,5,,,,,,,00835940307fa.jpg,,,,,,,,,,,,,,,
281,29,Memory,5,,,,,,,00313940422fa.jpg,,,,,,,,,,,,,,,
282,29,Memory,5,,,,,,,sunaakgekhjklxmvulj.jpg,,,,,,,,,,,,,,,
283,29,Memory,5,,,,,,,00061931230fb.jpg,,,,,,,,,,,,,,,
284,29,Memory,5,,,,,,,sunaaekxzjzrfgtkwjf.jpg,,,,,,,,,,,,,,,
285,29,Memory,5,,,,,,,00990960627fa.jpg,,,,,,,,,,,,,,,
286,29,Memory,5,,,,,,,00999960627fa.jpg,,,,,,,,,,,,,,,
287,29,Memory,5,,,,,,,00676941121fa.jpg,,,,,,,,,,,,,,,
288,29,Memory,5,,,,,,,00747941201fa.jpg,,,,,,,,,,,,,,,
289,29,Memory,5,,,,,,,sunbdycacjfaujxitbw.jpg,,,,,,,,,,,,,,,
290,29,Memory,5,,,,,,,sunbvbrvgbpanfrawft.jpg,,,,,,,,,,,,,,,
291,29,Memory,5,,,,,,,00753941201fa.jpg,,,,,,,,,,,,,,,
292,29,Memory,5,,,,,,,00809960620fa.jpg,,,,,,,,,,,,,,,
293,29,Memory,5,,,,,,,00787960620fa.jpg,,,,,,,,,,,,,,,
294,29,Memory,5,,,,,,,sunadrmfzmstgdjdcod.jpg,,,,,,,,,,,,,,,
295,29,Memory,5,,,,,,,sunafcofuuzebuadceo.jpg,,,,,,,,,,,,,,,
296,29,Memory,5,,,,,,,sunabckqabszusgcykj.jpg,,,,,,,,,,,,,,,
297,29,Memory,5,,,,,,,sunaalhlvzmjmitybdn.jpg,,,,,,,,,,,,,,,
298,29,Memory,5,,,,,,,00786941205fa.jpg,,,,,,,,,,,,,,,
299,29,Memory,5,,,,,,,sunaeutbrtswvsozxyk.jpg,,,,,,,,,,,,,,,
300,29,Presentation,6,00789960620fa_sunagpancjmxqfazssf.jpg,00774941201fa_sunafvtpfczkzopbgue.jpg,00789960620fa.jpg,sunagpancjmxqfazssf.jpg,00774941201fa.jpg,sunafvtpfczkzopbgue.jpg,,,>,Place,,,,,1,,,,,,,x
301,29,Presentation,6,00905960530fa_sunanmoqeyprjjjfxjt.jpg,00909960530_sunaobtizabegtwfwul.jpg,00905960530fa.jpg,sunanmoqeyprjjjfxjt.jpg,00909960530.jpg,sunaobtizabegtwfwul.jpg,,,>,Place,,,,,1,,,,,,,o
302,29,Presentation,6,00092931230fa_sunaaheqzstzxuadglu.jpg,00914960620fa_sunaozisvwfbmlkfhzv.jpg,00092931230fa.jpg,sunaaheqzstzxuadglu.jpg,00914960620fa.jpg,sunaozisvwfbmlkfhzv.jpg,,,>,Face,,,,,1,,,,,,,x
303,29,Presentation,6,00965960627fa_sunaydywdmvlfddbxbk.jpg,00153931230fa_sunaauhozyxzeeqstxi.jpg,00965960627fa.jpg,sunaydywdmvlfddbxbk.jpg,00153931230fa.jpg,sunaauhozyxzeeqstxi.jpg,,,<,Face,,,,,0,,,,,,,o
304,29,Presentation,6,00507940519fa_sunacacflqoyxhsqzhe.jpg,00903960620fa_sunanainkqdvktzoxyl.jpg,00507940519fa.jpg,sunacacflqoyxhsqzhe.jpg,00903960620fa.jpg,sunanainkqdvktzoxyl.jpg,,,<,Face,,,,,1,,,,,,,x
305,29,Presentation,6,00933960627fa_sunapwjkcxdaeqehfql.jpg,00138931230fa_sunaapfaivxqoynnwwp.jpg,00933960627fa.jpg,sunapwjkcxdaeqehfql.jpg,00138931230fa.jpg,sunaapfaivxqoynnwwp.jpg,,,<,Face,,,,,1,,,,,,,x
306,29,Presentation,6,00681941121fa_sunadqmjrhfjyuzyvdd.jpg,00936960627fa_sunaqgjuuwvdcyiccjt.jpg,00681941121fa.jpg,sunadqmjrhfjyuzyvdd.jpg,00936960627fa.jpg,sunaqgjuuwvdcyiccjt.jpg,,,<,Place,,,,,1,,,,,,,x
307,29,Presentation,6,00876960620fa_sunajwqkfsykceonyig.jpg,00919960620fa_sunapmfmzadmosuogaz.jpg,00876960620fa.jpg,sunajwqkfsykceonyig.jpg,00919960620fa.jpg,sunapmfmzadmosuogaz.jpg,,,>,Face,,,,,1,,,,,,,o
308,29,Presentation,6,00791941205fa_sunagrmyoovzukhxmlo.jpg,00810941205fa_sunahctntqrunhdxhtb.jpg,00791941205fa.jpg,sunagrmyoovzukhxmlo.jpg,00810941205fa.jpg,sunahctntqrunhdxhtb.jpg,,,<,Place,,,,,1,,,,,,,o
309,29,Presentation,6,00925960627fa_sunapqwnqzxlsfvgsjm.jpg,00978960627fa_sunbddbivbptlrlauhy.jpg,00925960627fa.jpg,sunapqwnqzxlsfvgsjm.jpg,00978960627fa.jpg,sunbddbivbptlrlauhy.jpg,,,>,Place,,,,,1,,,,,,,x
310,29,Memory,6,,,,,,,sunaauhozyxzeeqstxi.jpg,,,,,,,,,,,,,,,
311,29,Memory,6,,,,,,,sunacacflqoyxhsqzhe.jpg,,,,,,,,,,,,,,,
312,29,Memory,6,,,,,,,00959960627fa.jpg,,,,,,,,,,,,,,,
313,29,Memory,6,,,,,,,sunagpancjmxqfazssf.jpg,,,,,,,,,,,,,,,
314,29,Memory,6,,,,,,,sunapqwnqzxlsfvgsjm.jpg,,,,,,,,,,,,,,,
315,29,Memory,6,,,,,,,00185940422fb.jpg,,,,,,,,,,,,,,,
316,29,Memory,6,,,,,,,00768941205fa.jpg,,,,,,,,,,,,,,,
317,29,Memory,6,,,,,,,sunaampvucecsfbdafn.jpg,,,,,,,,,,,,,,,
318,29,Memory,6,,,,,,,01010960627fa.jpg,,,,,,,,,,,,,,,
319,29,Memory,6,,,,,,,sunaqgjuuwvdcyiccjt.jpg,,,,,,,,,,,,,,,
320,29,Memory,6,,,,,,,00876960620fa.jpg,,,,,,,,,,,,,,,
321,29,Memory,6,,,,,,,sunavspxmxubqaeidjt.jpg,,,,,,,,,,,,,,,
322,29,Memory,6,,,,,,,sunaaelotvjgibjtjhs.jpg,,,,,,,,,,,,,,,
323,29,Memory,6,,,,,,,sunafkmnlytenlsywia.jpg,,,,,,,,,,,,,,,
324,29,Memory,6,,,,,,,00153931230fa.jpg,,,,,,,,,,,,,,,
325,29,Memory,6,,,,,,,sunahctntqrunhdxhtb.jpg,,,,,,,,,,,,,,,
326,29,Memory,6,,,,,,,00788941205fa.jpg,,,,,,,,,,,,,,,
327,29,Memory,6,,,,,,,00138931230fa.jpg,,,,,,,,,,,,,,,
328,29,Memory,6,,,,,,,00149931230fa.jpg,,,,,,,,,,,,,,,
329,29,Memory,6,,,,,,,sunavxokzybtomhbmvm.jpg,,,,,,,,,,,,,,,
330,29,Memory,6,,,,,,,sunaydywdmvlfddbxbk.jpg,,,,,,,,,,,,,,,
331,29,Memory,6,,,,,,,sunbddbivbptlrlauhy.jpg,,,,,,,,,,,,,,,
332,29,Memory,6,,,,,,,00958960627fa.jpg,,,,,,,,,,,,,,,
333,29,Memory,6,,,,,,,00647941031fa.jpg,,,,,,,,,,,,,,,
334,29,Memory,6,,,,,,,00789960620fa.jpg,,,,,,,,,,,,,,,
335,29,Memory,6,,,,,,,sunaapfaivxqoynnwwp.jpg,,,,,,,,,,,,,,,
336,29,Memory,6,,,,,,,00810941205fa.jpg,,,,,,,,,,,,,,,
337,29,Memory,6,,,,,,,sunadflbrkckmepztql.jpg,,,,,,,,,,,,,,,
338,29,Memory,6,,,,,,,00978960627fa.jpg,,,,,,,,,,,,,,,
339,29,Memory,6,,,,,,,00936960627fa.jpg,,,,,,,,,,,,,,,
340,29,Memory,6,,,,,,,00965960627fa.jpg,,,,,,,,,,,,,,,
341,29,Memory,6,,,,,,,sunaauglwmctnkxyird.jpg,,,,,,,,,,,,,,,
342,29,Memory,6,,,,,,,sunaawqdbpihmlbwyyn.jpg,,,,,,,,,,,,,,,
343,29,Memory,6,,,,,,,00507940519fa.jpg,,,,,,,,,,,,,,,
344,29,Memory,6,,,,,,,00062931230fb.jpg,,,,,,,,,,,,,,,
345,29,Memory,6,,,,,,,00925960627fa.jpg,,,,,,,,,,,,,,,
346,29,Memory,6,,,,,,,sunajwqkfsykceonyig.jpg,,,,,,,,,,,,,,,
347,29,Memory,6,,,,,,,00127931230fa.jpg,,,,,,,,,,,,,,,
348,29,Memory,6,,,,,,,suncnkvbhypnivcohyx.jpg,,,,,,,,,,,,,,,
349,29,Memory,6,,,,,,,sunagountlxpzkytsmp.jpg,,,,,,,,,,,,,,,
350,29,Presentation,7,00787941205fa_sunagmwxxwymwojbvgi.jpg,00193940928fa_sunaaxjpzcnxligjtjq.jpg,00787941205fa.jpg,sunagmwxxwymwojbvgi.jpg,00193940928fa.jpg,sunaaxjpzcnxligjtjq.jpg,,,<,Place,,,,,1,,,,,,,x
351,29,Presentation,7,00564941031fa_sunacsaovnjezqwbykf.jpg,00807941205fa_sunahawfngukizslzsd.jpg,00564941031fa.jpg,sunacsaovnjezqwbykf.jpg,00807941205fa.jpg,sunahawfngukizslzsd.jpg,,,<,Face,,,,,1,,,,,,,o
352,29,Presentation,7,00796941205fa_sunaguchqqnrtodtezq.jpg,00935960627fa_sunaqbmgkgqucajzrkp.jpg,00796941205fa.jpg,sunaguchqqnrtodtezq.jpg,00935960627fa.jpg,sunaqbmgkgqucajzrkp.jpg,,,<,Face,,,,,1,,,,,,,o
353,29,Presentation,7,00620940928fa_sunacypmnujalygkunp.jpg,00116931230fa_sunaakqepfoeqomfgxf.jpg,00620940928fa.jpg,sunacypmnujalygkunp.jpg,00116931230fa.jpg,sunaakqepfoeqomfgxf.jpg,,,<,Place,,,,,1,,,,,,,x
354,29,Presentation,7,00102931230fa_sunaajspcoepticvplv.jpg,00144931230fb_sunaathajvxrgptwhoj.jpg,00102931230fa.jpg,sunaajspcoepticvplv.jpg,00144931230fb.jpg,sunaathajvxrgptwhoj.jpg,,,>,Place,,,,,1,,,,,,,o
355,29,Presentation,7,00097931230fa_sunaajayojuslbbnneg.jpg,00804960530fa_sunagwswhkvnsmuszlz.jpg,00097931230fa.jpg,sunaajayojuslbbnneg.jpg,00804960530fa.jpg,sunagwswhkvnsmuszlz.jpg,,,>,Face,,,,,1,,,,,,,o
356,29,Presentation,7,00864940307fa_sunajawzbrlrwafowen.jpg,00827940307fa_sunahtfxgsrmkiulnwk.jpg,00864940307fa.jpg,sunajawzbrlrwafowen.jpg,00827940307fa.jpg,sunahtfxgsrmkiulnwk.jpg,,,>,Place,,,,,0,,,,,,,x
357,29,Presentation,7,00096931230fa_sunaaiqiqcggrskoqgy.jpg,00862940307fa_sunaizgnnplsvajzhkc.jpg,00096931230fa.jpg,sunaaiqiqcggrskoqgy.jpg,00862940307fa.jpg,sunaizgnnplsvajzhkc.jpg,,,>,Face,,,,,1,,,,,,,o
358,29,Presentation,7,00260940128fa_sunabgfhvifeijihhjw.jpg,00235940128fb_sunabclssnoeuigtawp.jpg,00260940128fa.jpg,sunabgfhvifeijihhjw.jpg,00235940128fb.jpg,sunabclssnoeuigtawp.jpg,,,>,Face,,,,,1,,,,,,,x
359,29,Presentation,7,00576941031fa_sunacvjlsylseoghjup.jpg,00483940519fa_sunabyvpwkgsjtijdwj.jpg,00576941031fa.jpg,sunacvjlsylseoghjup.jpg,00483940519fa.jpg,sunabyvpwkgsjtijdwj.jpg,,,<,Place,,,,,1,,,,,,,o
360,29,Memory,7,,,,,,,sunbbfqwjpdxniyhies.jpg,,,,,,,,,,,,,,,
361,29,Memory,7,,,,,,,sunahawfngukizslzsd.jpg,,,,,,,,,,,,,,,
362,29,Memory,7,,,,,,,00827940307fa.jpg,,,,,,,,,,,,,,,
363,29,Memory,7,,,,,,,00080931230fb.jpg,,,,,,,,,,,,,,,
364,29,Memory,7,,,,,,,sunalkiibhqpxfamlll.jpg,,,,,,,,,,,,,,,
365,29,Memory,7,,,,,,,sunanwjjyqqwzqrqagd.jpg,,,,,,,,,,,,,,,
366,29,Memory,7,,,,,,,sunagtqhhwxjeuxdebe.jpg,,,,,,,,,,,,,,,
367,29,Memory,7,,,,,,,sunahtfxgsrmkiulnwk.jpg,,,,,,,,,,,,,,,
368,29,Memory,7,,,,,,,00144931230fb.jpg,,,,,,,,,,,,,,,
369,29,Memory,7,,,,,,,sunacypmnujalygkunp.jpg,,,,,,,,,,,,,,,
370,29,Memory,7,,,,,,,sunagmwxxwymwojbvgi.jpg,,,,,,,,,,,,,,,
371,29,Memory,7,,,,,,,sunacvjlsylseoghjup.jpg,,,,,,,,,,,,,,,
372,29,Memory,7,,,,,,,sunabclssnoeuigtawp.jpg,,,,,,,,,,,,,,,
373,29,Memory,7,,,,,,,00620940928fa.jpg,,,,,,,,,,,,,,,
374,29,Memory,7,,,,,,,01207940128fa.jpg,,,,,,,,,,,,,,,
375,29,Memory,7,,,,,,,sunaathajvxrgptwhoj.jpg,,,,,,,,,,,,,,,
376,29,Memory,7,,,,,,,00857940307fa.jpg,,,,,,,,,,,,,,,
377,29,Memory,7,,,,,,,00097931230fa.jpg,,,,,,,,,,,,,,,
378,29,Memory,7,,,,,,,00794960620fa.jpg,,,,,,,,,,,,,,,
379,29,Memory,7,,,,,,,00787941205fa.jpg,,,,,,,,,,,,,,,
380,29,Memory,7,,,,,,,00576941031fa.jpg,,,,,,,,,,,,,,,
381,29,Memory,7,,,,,,,sunaiwfobocrruqznsv.jpg,,,,,,,,,,,,,,,
382,29,Memory,7,,,,,,,sunaajayojuslbbnneg.jpg,,,,,,,,,,,,,,,
383,29,Memory,7,,,,,,,sunaafjszryxyavjzln.jpg,,,,,,,,,,,,,,,
384,29,Memory,7,,,,,,,00483940519fa.jpg,,,,,,,,,,,,,,,
385,29,Memory,7,,,,,,,00966960627fa.jpg,,,,,,,,,,,,,,,
386,29,Memory,7,,,,,,,sunaajspcoepticvplv.jpg,,,,,,,,,,,,,,,
387,29,Memory,7,,,,,,,sundbixjudsgeuuehrn.jpg,,,,,,,,,,,,,,,
388,29,Memory,7,,,,,,,00082931230fa.jpg,,,,,,,,,,,,,,,
389,29,Memory,7,,,,,,,00993960627fa.jpg,,,,,,,,,,,,,,,
390,29,Memory,7,,,,,,,00102931230fa.jpg,,,,,,,,,,,,,,,
391,29,Memory,7,,,,,,,sunabyvpwkgsjtijdwj.jpg,,,,,,,,,,,,,,,
392,29,Memory,7,,,,,,,00807941205fa.jpg,,,,,,,,,,,,,,,
393,29,Memory,7,,,,,,,00891960530fa.jpg,,,,,,,,,,,,,,,
394,29,Memory,7,,,,,,,sunbprywzqxjcezkbch.jpg,,,,,,,,,,,,,,,
395,29,Memory,7,,,,,,,00908960530fa.jpg,,,,,,,,,,,,,,,
396,29,Memory,7,,,,,,,sunaafvitpexrpvumsa.jpg,,,,,,,,,,,,,,,
397,29,Memory,7,,,,,,,00972960627fa.jpg,,,,,,,,,,,,,,,
398,29,Memory,7,,,,,,,00235940128fb.jpg,,,,,,,,,,,,,,,
399,29,Memory,7,,,,,,,sunaygrtwrwfezqjizr.jpg,,,,,,,,,,,,,,,
