,Subject,Trial Type,Run,Cued Composite,Uncued Composite,Cued Face,Cued Place,Uncued Face,Uncued Place,Memory Image,Category,Cued Side,Cued Category,Attention Reaction Time (s),Familiarity Reaction Time (s),Familiarity Rating,Attention Level,Cue Validity,Post Invalid Cue,Pre Invalid Cue,Attention Button,Rating History,Stimulus Onset,Stimulus End,Attention Probe
210,29,Memory,4,,,,,,,sunabeyhmxodahoieyk.jpg,,,,,2.727,1.0,,,,,,,1556034213.515511,1556034216.678847,
211,29,Memory,4,,,,,,,00803941205fa.jpg,,,,,1.725,2.0,,,,,,,1556034218.00159,1556034220.618219,
212,29,Memory,4,,,,,,,00950960627fa.jpg,,,,,2.46,3.0,,,,,,,1556034221.902077,1556034224.968705,
213,29,Memory,4,,,,,,,sunabaergayifsgacxt.jpg,,,,,1.209,2.0,,,,,,,1556034226.271208,1556034228.765837,
214,29,Memory,4,,,,,,,00133931230fa.jpg,,,,,0.811,2.0,,,,,,,1556034230.054328,1556034232.917061,
215,29,Memory,4,,,,,,,00120931230fa.jpg,,,,,0.9,1.0,,,,,,,1556034234.289529,1556034236.939896,
216,29,Memory,4,,,,,,,00081941031fa.jpg,,,,,1.077,1.0,,,,,,,1556034238.290855,1556034240.975969,
217,29,Memory,4,,,,,,,00568940928fa.jpg,,,,,1.242,2.0,,,,,,,1556034242.342208,1556034245.020823,
218,29,Memory,4,,,,,,,00598940928fa.jpg,,,,,0.958,3.0,,,,,,,1556034246.444317,1556034249.005996,
219,29,Memory,4,,,,,,,sunaanptmsknhirrzed.jpg,,,,,1.376,2.0,,,,,,,1556034250.394534,1556034253.3286,
220,29,Memory,4,,,,,,,sunabzuqsrgcsonqlkz.jpg,,,,,1.276,3.0,,,,,,,1556034254.645663,1556034257.27984,
221,29,Memory,4,,,,,,,sunadnjjzohjhbohlwq.jpg,,,,,1.51,3.0,,,,,,,1556034258.563172,1556034261.103214,
222,29,Memory,4,,,,,,,sunacxeheuiigkcgquf.jpg,,,,,1.209,2.0,,,,,,,1556034262.399013,1556034265.111121,
223,29,Memory,4,,,,,,,sunaanlwnpqndclffxt.jpg,,,,,1.226,2.0,,,,,,,1556034266.400313,1556034269.283373,
224,29,Memory,4,,,,,,,sunaafgqutfaishsxyu.jpg,,,,,0.965,3.0,,,,,,,1556034270.768777,1556034273.314679,
225,29,Memory,4,,,,,,,sunaakxgygjfqrzpyoz.jpg,,,,,1.36,4.0,,,,,,,1556034274.718839,1556034277.651791,
226,29,Memory,4,,,,,,,00793941205fa.jpg,,,,,1.31,3.0,,,,,,,1556034278.970301,1556034281.688045,
227,29,Memory,4,,,,,,,00245940128fa.jpg,,,,,1.077,3.0,,,,,,,1556034283.005408,1556034285.73961,
228,29,Memory,4,,,,,,,00136931230fb.jpg,,,,,0.926,2.0,,,,,,,1556034287.023543,1556034289.551424,
229,29,Memory,4,,,,,,,sunacsdhbbsybcyxnel.jpg,,,,,1.16,4.0,,,,,,,1556034290.841775,1556034294.220632,
230,29,Memory,4,,,,,,,00906960530fa.jpg,,,,,0.993,2.0,,,,,,,1556034295.543058,1556034298.438093,
231,29,Memory,4,,,,,,,00294940422fb.jpg,,,,,1.244,2.0,,,,,,,1556034299.776533,1556034302.339777,
232,29,Memory,4,,,,,,,sunadbdqzigzwipuipr.jpg,,,,,1.225,4.0,,,,,,,1556034303.728691,1556034306.679708,
233,29,Memory,4,,,,,,,00971960627fa.jpg,,,,,0.892,2.0,,,,,,,1556034308.096834,1556034310.594635,
234,29,Memory,4,,,,,,,sunabrlndkruqokhury.jpg,,,,,1.893,2.0,,,,,,,1556034311.914178,1556034314.810449,
235,29,Memory,4,,,,,,,sunantryfbloeaomfta.jpg,,,,,1.475,4.0,,,,,,,1556034316.09939,1556034319.096355,
236,29,Memory,4,,,,,,,00811960530fa.jpg,,,,,0.843,3.0,,,,,,,1556034320.367507,1556034323.384582,
237,29,Memory,4,,,,,,,sunaaftlyfudyzuhqzf.jpg,,,,,0.686,2.0,,,,,,,1556034324.751747,1556034327.669925,
238,29,Memory,4,,,,,,,sunahedfrhtcwpneund.jpg,,,,,0.842,3.0,,,,,,,1556034328.969897,1556034331.104027,
239,29,Memory,4,,,,,,,sunapqwoeotxshkukbh.jpg,,,,,1.343,2.0,,,,,,,1556034332.538243,1556034335.43947,
240,29,Memory,4,,,,,,,sunagtjwilqjvxohypn.jpg,,,,,0.959,2.0,,,,,,,1556034336.87254,1556034339.606049,
241,29,Memory,4,,,,,,,sunagvxkjokqimstxpe.jpg,,,,,3.033,2.0,,,,,,,1556034340.891616,1556034344.053683,
242,29,Memory,4,,,,,,,00926960627Fa.jpg,,,,,0.075,2.0,,,,,,,1556034345.325733,1556034348.125849,
243,29,Memory,4,,,,,,,00505960627fa.jpg,,,,,1.326,2.0,,,,,,,1556034349.426354,1556034352.327299,
244,29,Memory,4,,,,,,,00663941121fa.jpg,,,,,1.092,2.0,,,,,,,1556034353.61135,1556034356.440608,
245,29,Memory,4,,,,,,,00209940128fb.jpg,,,,,1.726,2.0,,,,,,,1556034357.712562,1556034360.297546,
246,29,Memory,4,,,,,,,00631940928fa.jpg,,,,,0.777,3.0,,,,,,,1556034361.697722,1556034363.961683,
247,29,Memory,4,,,,,,,sunasrjlmglmjzbmqxb.jpg,,,,,1.209,4.0,,,,,,,1556034365.382905,1556034368.01616,
248,29,Memory,4,,,,,,,sunbbegcweqnetpdlrh.jpg,,,,,0.91,2.0,,,,,,,1556034369.316284,1556034372.179426,
249,29,Memory,4,,,,,,,00077931230fb.jpg,,,,,1.01,2.0,,,,,,,1556034373.451359,1556034376.15235,
