,Subject,Trial Type,Run,Cued Composite,Uncued Composite,Cued Face,Cued Place,Uncued Face,Uncued Place,Memory Image,Category,Cued Side,Cued Category,Attention Reaction Time (s),Familiarity Reaction Time (s),Familiarity Rating,Attention Level,Cue Validity,Post Invalid Cue,Pre Invalid Cue,Attention Button,Rating History,Stimulus Onset,Stimulus End,Attention Probe
0,7,Presentation,0,00776941205fa_sunafxokyavhgptyfye.jpg,00092931230fa_sunaaheqzstzxuadglu.jpg,00776941205fa.jpg,sunafxokyavhgptyfye.jpg,00092931230fa.jpg,sunaaheqzstzxuadglu.jpg,,,>,Face,,,,,1,,,,,,,x
1,7,Presentation,0,00060931230fa_sunaaehaikpckyjsety.jpg,01007960627fa_sunbxarcshsnqsefemx.jpg,00060931230fa.jpg,sunaaehaikpckyjsety.jpg,01007960627fa.jpg,sunbxarcshsnqsefemx.jpg,,,>,Face,,,,,1,,,,,,,o
2,7,Presentation,0,00859940307fa_sunaiycurtqsfkvcaso.jpg,00185940422fb_sunaawqdbpihmlbwyyn.jpg,00859940307fa.jpg,sunaiycurtqsfkvcaso.jpg,00185940422fb.jpg,sunaawqdbpihmlbwyyn.jpg,,,>,Face,,,,,1,,,,,,,o
3,7,Presentation,0,00800941205fb_sunagvjurcwdbixvnyi.jpg,00214940128fa_sunabbafjowbzcvbucc.jpg,00800941205fb.jpg,sunagvjurcwdbixvnyi.jpg,00214940128fa.jpg,sunabbafjowbzcvbucc.jpg,,,>,Face,,,,,1,,,,,,,o
4,7,Presentation,0,00749941201fa_sunaeuvjbmdpknaqqaj.jpg,00245940128fa_sunabeyhmxodahoieyk.jpg,00749941201fa.jpg,sunaeuvjbmdpknaqqaj.jpg,00245940128fa.jpg,sunabeyhmxodahoieyk.jpg,,,>,Face,,,,,1,,,,,,,x
5,7,Presentation,0,00675941121fa_sunadoxcchtmsxewsau.jpg,00891960530fa_sunalkiibhqpxfamlll.jpg,00675941121fa.jpg,sunadoxcchtmsxewsau.jpg,00891960530fa.jpg,sunalkiibhqpxfamlll.jpg,,,>,Face,,,,,1,,,,,,,o
6,7,Presentation,0,00630941031fa_sunadakkdovnuzlycvp.jpg,00919960620fa_sunapmfmzadmosuogaz.jpg,00630941031fa.jpg,sunadakkdovnuzlycvp.jpg,00919960620fa.jpg,sunapmfmzadmosuogaz.jpg,,,>,Face,,,,,1,,,,,,,x
7,7,Presentation,0,00772941201fa_sunafpfpiiujzoesnqg.jpg,00647941031fa_sunadflbrkckmepztql.jpg,00772941201fa.jpg,sunafpfpiiujzoesnqg.jpg,00647941031fa.jpg,sunadflbrkckmepztql.jpg,,,>,Face,,,,,1,,,,,,,x
8,7,Presentation,0,00136931230fb_sunaanptmsknhirrzed.jpg,00936960627fa_sunaqgjuuwvdcyiccjt.jpg,00136931230fb.jpg,sunaanptmsknhirrzed.jpg,00936960627fa.jpg,sunaqgjuuwvdcyiccjt.jpg,,,>,Face,,,,,1,,,,,,,x
9,7,Presentation,0,00950960627fa_sunasrjlmglmjzbmqxb.jpg,00235940128fb_sunabclssnoeuigtawp.jpg,00950960627fa.jpg,sunasrjlmglmjzbmqxb.jpg,00235940128fb.jpg,sunabclssnoeuigtawp.jpg,,,>,Face,,,,,1,,,,,,,x
10,7,Memory,0,,,,,,,00630941031fa.jpg,,,,,,,,,,,,,,,
11,7,Memory,0,,,,,,,sunadflbrkckmepztql.jpg,,,,,,,,,,,,,,,
12,7,Memory,0,,,,,,,sunabbafjowbzcvbucc.jpg,,,,,,,,,,,,,,,
13,7,Memory,0,,,,,,,00809960620fa.jpg,,,,,,,,,,,,,,,
14,7,Memory,0,,,,,,,sunalcrtwiycqobgelp.jpg,,,,,,,,,,,,,,,
15,7,Memory,0,,,,,,,sunahbvlpavurqoxdeq.jpg,,,,,,,,,,,,,,,
16,7,Memory,0,,,,,,,sunaanptmsknhirrzed.jpg,,,,,,,,,,,,,,,
17,7,Memory,0,,,,,,,00092931230fa.jpg,,,,,,,,,,,,,,,
18,7,Memory,0,,,,,,,00670941121fa.jpg,,,,,,,,,,,,,,,
19,7,Memory,0,,,,,,,sunasrjlmglmjzbmqxb.jpg,,,,,,,,,,,,,,,
20,7,Memory,0,,,,,,,00136931230fb.jpg,,,,,,,,,,,,,,,
21,7,Memory,0,,,,,,,00937960627fa.jpg,,,,,,,,,,,,,,,
22,7,Memory,0,,,,,,,00723941201fa.jpg,,,,,,,,,,,,,,,
23,7,Memory,0,,,,,,,sunammbnoambmhdxdwd.jpg,,,,,,,,,,,,,,,
24,7,Memory,0,,,,,,,00887960530.jpg,,,,,,,,,,,,,,,
25,7,Memory,0,,,,,,,00235940128fb.jpg,,,,,,,,,,,,,,,
26,7,Memory,0,,,,,,,sunaaheqzstzxuadglu.jpg,,,,,,,,,,,,,,,
27,7,Memory,0,,,,,,,00772941201fa.jpg,,,,,,,,,,,,,,,
28,7,Memory,0,,,,,,,00859940307fa.jpg,,,,,,,,,,,,,,,
29,7,Memory,0,,,,,,,sunawotxrevnqvamsfp.jpg,,,,,,,,,,,,,,,
30,7,Memory,0,,,,,,,sunaqsolmfydodnakub.jpg,,,,,,,,,,,,,,,
31,7,Memory,0,,,,,,,sunaqgjuuwvdcyiccjt.jpg,,,,,,,,,,,,,,,
32,7,Memory,0,,,,,,,00787960620fa.jpg,,,,,,,,,,,,,,,
33,7,Memory,0,,,,,,,00780960530fa.jpg,,,,,,,,,,,,,,,
34,7,Memory,0,,,,,,,sunaedtgwjvvziytspa.jpg,,,,,,,,,,,,,,,
35,7,Memory,0,,,,,,,sunagetqixeypsysbpn.jpg,,,,,,,,,,,,,,,
36,7,Memory,0,,,,,,,sunadakkdovnuzlycvp.jpg,,,,,,,,,,,,,,,
37,7,Memory,0,,,,,,,sunadochqcucscehsgk.jpg,,,,,,,,,,,,,,,
38,7,Memory,0,,,,,,,sunaiycurtqsfkvcaso.jpg,,,,,,,,,,,,,,,
39,7,Memory,0,,,,,,,sunaaexpnawiehinlpy.jpg,,,,,,,,,,,,,,,
40,7,Memory,0,,,,,,,00071940128fa.jpg,,,,,,,,,,,,,,,
41,7,Memory,0,,,,,,,sunafpfpiiujzoesnqg.jpg,,,,,,,,,,,,,,,
42,7,Memory,0,,,,,,,00950960627fa.jpg,,,,,,,,,,,,,,,
43,7,Memory,0,,,,,,,00214940128fa.jpg,,,,,,,,,,,,,,,
44,7,Memory,0,,,,,,,sunabclssnoeuigtawp.jpg,,,,,,,,,,,,,,,
45,7,Memory,0,,,,,,,sunagoufulkpsxrmklt.jpg,,,,,,,,,,,,,,,
46,7,Memory,0,,,,,,,00936960627fa.jpg,,,,,,,,,,,,,,,
47,7,Memory,0,,,,,,,00961960627fa.jpg,,,,,,,,,,,,,,,
48,7,Memory,0,,,,,,,00647941031fa.jpg,,,,,,,,,,,,,,,
49,7,Memory,0,,,,,,,00901960530fa.jpg,,,,,,,,,,,,,,,
50,7,Presentation,1,00768941205fa_sunafkmnlytenlsywia.jpg,01003960627fb_sunbwdrdvsweerwsdrj.jpg,00768941205fa.jpg,sunafkmnlytenlsywia.jpg,01003960627fb.jpg,sunbwdrdvsweerwsdrj.jpg,,,>,Place,,,,,1,,,,,,,x
51,7,Presentation,1,00730960620fa_sunaekgzpfilgjxpeyq.jpg,00959960627fa_sunavxokzybtomhbmvm.jpg,00730960620fa.jpg,sunaekgzpfilgjxpeyq.jpg,00959960627fa.jpg,sunavxokzybtomhbmvm.jpg,,,>,Place,,,,,1,,,,,,,x
52,7,Presentation,1,00876960620fa_sunajwqkfsykceonyig.jpg,00986960627fa_sunbgzjryivyczuvkvm.jpg,00876960620fa.jpg,sunajwqkfsykceonyig.jpg,00986960627fa.jpg,sunbgzjryivyczuvkvm.jpg,,,>,Place,,,,,1,,,,,,,o
53,7,Presentation,1,00129931230fb_sunaamsdyakblkfoydx.jpg,00111931230fb_sunaakgekhjklxmvulj.jpg,00129931230fb.jpg,sunaamsdyakblkfoydx.jpg,00111931230fb.jpg,sunaakgekhjklxmvulj.jpg,,,>,Place,,,,,1,,,,,,,o
54,7,Presentation,1,00123931230fb_sunaalcrrdbjgdztbiz.jpg,00081941031fa_sunaaftlyfudyzuhqzf.jpg,00123931230fb.jpg,sunaalcrrdbjgdztbiz.jpg,00081941031fa.jpg,sunaaftlyfudyzuhqzf.jpg,,,>,Place,,,,,0,,,,,,,o
55,7,Presentation,1,00090931230fa_sunaahedjlmtqekgyvj.jpg,00828940307fa_sunahuynahneraqftyz.jpg,00090931230fa.jpg,sunaahedjlmtqekgyvj.jpg,00828940307fa.jpg,sunahuynahneraqftyz.jpg,,,>,Place,,,,,1,,,,,,,x
56,7,Presentation,1,00783941205fa_sunagjeesomrwjsfqie.jpg,00796941205fa_sunaguchqqnrtodtezq.jpg,00783941205fa.jpg,sunagjeesomrwjsfqie.jpg,00796941205fa.jpg,sunaguchqqnrtodtezq.jpg,,,>,Place,,,,,1,,,,,,,x
57,7,Presentation,1,00760960620fa_sunaffstbkappprzxnv.jpg,00799941205fa_sunagutjvdvnhxejerz.jpg,00760960620fa.jpg,sunaffstbkappprzxnv.jpg,00799941205fa.jpg,sunagutjvdvnhxejerz.jpg,,,>,Place,,,,,1,,,,,,,x
58,7,Presentation,1,00812941205fa_sunahgtbwgsmtqeodwh.jpg,00866940307fa_sunajbwkywmsqkldfml.jpg,00812941205fa.jpg,sunahgtbwgsmtqeodwh.jpg,00866940307fa.jpg,sunajbwkywmsqkldfml.jpg,,,>,Place,,,,,1,,,,,,,o
59,7,Presentation,1,01000960627fa_sunbvzmgrdvaakxusbu.jpg,00270940422fb_sunabllobxadqcyttej.jpg,01000960627fa.jpg,sunbvzmgrdvaakxusbu.jpg,00270940422fb.jpg,sunabllobxadqcyttej.jpg,,,>,Place,,,,,0,,,,,,,o
60,7,Memory,1,,,,,,,sunagjeesomrwjsfqie.jpg,,,,,,,,,,,,,,,
61,7,Memory,1,,,,,,,00929960627fa.jpg,,,,,,,,,,,,,,,
62,7,Memory,1,,,,,,,sunagutjvdvnhxejerz.jpg,,,,,,,,,,,,,,,
63,7,Memory,1,,,,,,,sunaakqepfoeqomfgxf.jpg,,,,,,,,,,,,,,,
64,7,Memory,1,,,,,,,sunbesrwkdsffeogeqq.jpg,,,,,,,,,,,,,,,
65,7,Memory,1,,,,,,,00270940422fb.jpg,,,,,,,,,,,,,,,
66,7,Memory,1,,,,,,,01000960627fa.jpg,,,,,,,,,,,,,,,
67,7,Memory,1,,,,,,,sunagvxkjokqimstxpe.jpg,,,,,,,,,,,,,,,
68,7,Memory,1,,,,,,,00957960627fa.jpg,,,,,,,,,,,,,,,
69,7,Memory,1,,,,,,,sunahgtbwgsmtqeodwh.jpg,,,,,,,,,,,,,,,
70,7,Memory,1,,,,,,,00986960627fa.jpg,,,,,,,,,,,,,,,
71,7,Memory,1,,,,,,,sunaahedjlmtqekgyvj.jpg,,,,,,,,,,,,,,,
72,7,Memory,1,,,,,,,sunabllobxadqcyttej.jpg,,,,,,,,,,,,,,,
73,7,Memory,1,,,,,,,sunaamsdyakblkfoydx.jpg,,,,,,,,,,,,,,,
74,7,Memory,1,,,,,,,sunablfqiwfqomjarht.jpg,,,,,,,,,,,,,,,
75,7,Memory,1,,,,,,,sunaprnrbmgkomdbchr.jpg,,,,,,,,,,,,,,,
76,7,Memory,1,,,,,,,00799941205fa.jpg,,,,,,,,,,,,,,,
77,7,Memory,1,,,,,,,sunabaergayifsgacxt.jpg,,,,,,,,,,,,,,,
78,7,Memory,1,,,,,,,00982960627fa.jpg,,,,,,,,,,,,,,,
79,7,Memory,1,,,,,,,sunajbwkywmsqkldfml.jpg,,,,,,,,,,,,,,,
80,7,Memory,1,,,,,,,00933960627fa.jpg,,,,,,,,,,,,,,,
81,7,Memory,1,,,,,,,sunaaeowapdkwzqpgqr.jpg,,,,,,,,,,,,,,,
82,7,Memory,1,,,,,,,00267940128fb.jpg,,,,,,,,,,,,,,,
83,7,Memory,1,,,,,,,00209940128fb.jpg,,,,,,,,,,,,,,,
84,7,Memory,1,,,,,,,00803941205fa.jpg,,,,,,,,,,,,,,,
85,7,Memory,1,,,,,,,sunbvzmgrdvaakxusbu.jpg,,,,,,,,,,,,,,,
86,7,Memory,1,,,,,,,sunapwjkcxdaeqehfql.jpg,,,,,,,,,,,,,,,
87,7,Memory,1,,,,,,,00828940307fa.jpg,,,,,,,,,,,,,,,
88,7,Memory,1,,,,,,,00783941205fa.jpg,,,,,,,,,,,,,,,
89,7,Memory,1,,,,,,,00129931230fb.jpg,,,,,,,,,,,,,,,
90,7,Memory,1,,,,,,,00090931230fa.jpg,,,,,,,,,,,,,,,
91,7,Memory,1,,,,,,,sunahuynahneraqftyz.jpg,,,,,,,,,,,,,,,
92,7,Memory,1,,,,,,,00069931230fb.jpg,,,,,,,,,,,,,,,
93,7,Memory,1,,,,,,,00812941205fa.jpg,,,,,,,,,,,,,,,
94,7,Memory,1,,,,,,,00866940307fa.jpg,,,,,,,,,,,,,,,
95,7,Memory,1,,,,,,,sunbgzjryivyczuvkvm.jpg,,,,,,,,,,,,,,,
96,7,Memory,1,,,,,,,00116931230fa.jpg,,,,,,,,,,,,,,,
97,7,Memory,1,,,,,,,sunavhxgmgrqsaptynb.jpg,,,,,,,,,,,,,,,
98,7,Memory,1,,,,,,,sunaakxjfbrrequcjmx.jpg,,,,,,,,,,,,,,,
99,7,Memory,1,,,,,,,00122931230fa.jpg,,,,,,,,,,,,,,,
100,7,Presentation,2,00316940422fa_sunabxmguapjekttvwm.jpg,00792941205fa_sunagsiwrmuixqgdimb.jpg,00316940422fa.jpg,sunabxmguapjekttvwm.jpg,00792941205fa.jpg,sunagsiwrmuixqgdimb.jpg,,,<,Place,,,,,1,,,,,,,x
101,7,Presentation,2,00162931230fb_sunaavjinpnkappuonm.jpg,00807941205fa_sunahawfngukizslzsd.jpg,00162931230fb.jpg,sunaavjinpnkappuonm.jpg,00807941205fa.jpg,sunahawfngukizslzsd.jpg,,,<,Place,,,,,1,,,,,,,x
102,7,Presentation,2,00306940422fa_sunabueyoajufbkraki.jpg,00262940128fa_sunabizydfotqddlnjp.jpg,00306940422fa.jpg,sunabueyoajufbkraki.jpg,00262940128fa.jpg,sunabizydfotqddlnjp.jpg,,,<,Place,,,,,1,,,,,,,x
103,7,Presentation,2,00884960530fa_sunakodkcslgqhqlgwl.jpg,00787941205fa_sunagmwxxwymwojbvgi.jpg,00884960530fa.jpg,sunakodkcslgqhqlgwl.jpg,00787941205fa.jpg,sunagmwxxwymwojbvgi.jpg,,,<,Place,,,,,1,,,,,,,o
104,7,Presentation,2,00479940519fa_sunabxsbfwjccqxxzxq.jpg,00280940422fb_sunabohxbskznglnrhv.jpg,00479940519fa.jpg,sunabxsbfwjccqxxzxq.jpg,00280940422fb.jpg,sunabohxbskznglnrhv.jpg,,,<,Place,,,,,1,,,,,,,x
105,7,Presentation,2,00131931230fb_sunaangbuylfvckqqoo.jpg,00308940422fb_sunabwfvcqqidycwypa.jpg,00131931230fb.jpg,sunaangbuylfvckqqoo.jpg,00308940422fb.jpg,sunabwfvcqqidycwypa.jpg,,,<,Place,,,,,0,,,,,,,x
106,7,Presentation,2,00126931230fb_sunaamdjwemxpmmtypi.jpg,00874940307fa_sunajtrfunvzdfticna.jpg,00126931230fb.jpg,sunaamdjwemxpmmtypi.jpg,00874940307fa.jpg,sunajtrfunvzdfticna.jpg,,,<,Place,,,,,1,,,,,,,o
107,7,Presentation,2,00922960627fa_sunapqkyghktgtosuuk.jpg,00080931230fb_sunaafjszryxyavjzln.jpg,00922960627fa.jpg,sunapqkyghktgtosuuk.jpg,00080931230fb.jpg,sunaafjszryxyavjzln.jpg,,,<,Place,,,,,1,,,,,,,x
108,7,Presentation,2,00763941205fa_sunafhmnhsdurlvddpw.jpg,00947960627fa_sunasmmcxdddtmtazwx.jpg,00763941205fa.jpg,sunafhmnhsdurlvddpw.jpg,00947960627fa.jpg,sunasmmcxdddtmtazwx.jpg,,,<,Place,,,,,1,,,,,,,x
109,7,Presentation,2,00825940307fa_sunahrltmuwbiehihpe.jpg,00996960627fa_sunbpvgllfdejxcpjqp.jpg,00825940307fa.jpg,sunahrltmuwbiehihpe.jpg,00996960627fa.jpg,sunbpvgllfdejxcpjqp.jpg,,,<,Place,,,,,1,,,,,,,x
110,7,Memory,2,,,,,,,sunaecpkgfewqqreqwe.jpg,,,,,,,,,,,,,,,
111,7,Memory,2,,,,,,,00996960627fa.jpg,,,,,,,,,,,,,,,
112,7,Memory,2,,,,,,,sunaiwduelojtwaqeyh.jpg,,,,,,,,,,,,,,,
113,7,Memory,2,,,,,,,sunafhmnhsdurlvddpw.jpg,,,,,,,,,,,,,,,
114,7,Memory,2,,,,,,,00162931230fb.jpg,,,,,,,,,,,,,,,
115,7,Memory,2,,,,,,,sunagsiwrmuixqgdimb.jpg,,,,,,,,,,,,,,,
116,7,Memory,2,,,,,,,sunaavjinpnkappuonm.jpg,,,,,,,,,,,,,,,
117,7,Memory,2,,,,,,,sunagwzdbtlixdhgolm.jpg,,,,,,,,,,,,,,,
118,7,Memory,2,,,,,,,00719960620fa.jpg,,,,,,,,,,,,,,,
119,7,Memory,2,,,,,,,sunaangbuylfvckqqoo.jpg,,,,,,,,,,,,,,,
120,7,Memory,2,,,,,,,sunafgdqbclkwfocdhg.jpg,,,,,,,,,,,,,,,
121,7,Memory,2,,,,,,,sunaathajvxrgptwhoj.jpg,,,,,,,,,,,,,,,
122,7,Memory,2,,,,,,,00316940422fa.jpg,,,,,,,,,,,,,,,
123,7,Memory,2,,,,,,,sunaafjszryxyavjzln.jpg,,,,,,,,,,,,,,,
124,7,Memory,2,,,,,,,00922960627fa.jpg,,,,,,,,,,,,,,,
125,7,Memory,2,,,,,,,sunanaacmmosxrfwmvl.jpg,,,,,,,,,,,,,,,
126,7,Memory,2,,,,,,,sunabizydfotqddlnjp.jpg,,,,,,,,,,,,,,,
127,7,Memory,2,,,,,,,00792941205fa.jpg,,,,,,,,,,,,,,,
128,7,Memory,2,,,,,,,00953960627fa.jpg,,,,,,,,,,,,,,,
129,7,Memory,2,,,,,,,sunapqkyghktgtosuuk.jpg,,,,,,,,,,,,,,,
130,7,Memory,2,,,,,,,00902960530fa.jpg,,,,,,,,,,,,,,,
131,7,Memory,2,,,,,,,sunadzuvtmtmgupotmf.jpg,,,,,,,,,,,,,,,
132,7,Memory,2,,,,,,,00761960627fa.jpg,,,,,,,,,,,,,,,
133,7,Memory,2,,,,,,,00262940128fa.jpg,,,,,,,,,,,,,,,
134,7,Memory,2,,,,,,,00720960620fa.jpg,,,,,,,,,,,,,,,
135,7,Memory,2,,,,,,,00854940307fa.jpg,,,,,,,,,,,,,,,
136,7,Memory,2,,,,,,,sunacvjlsylseoghjup.jpg,,,,,,,,,,,,,,,
137,7,Memory,2,,,,,,,00763941205fa.jpg,,,,,,,,,,,,,,,
138,7,Memory,2,,,,,,,sunaizgnnplsvajzhkc.jpg,,,,,,,,,,,,,,,
139,7,Memory,2,,,,,,,sunbpvgllfdejxcpjqp.jpg,,,,,,,,,,,,,,,
140,7,Memory,2,,,,,,,00805941205fa.jpg,,,,,,,,,,,,,,,
141,7,Memory,2,,,,,,,sunabxmguapjekttvwm.jpg,,,,,,,,,,,,,,,
142,7,Memory,2,,,,,,,00144931230fb.jpg,,,,,,,,,,,,,,,
143,7,Memory,2,,,,,,,00080931230fb.jpg,,,,,,,,,,,,,,,
144,7,Memory,2,,,,,,,00862940307fa.jpg,,,,,,,,,,,,,,,
145,7,Memory,2,,,,,,,00131931230fb.jpg,,,,,,,,,,,,,,,
146,7,Memory,2,,,,,,,sunatstrpjxhvtbaczf.jpg,,,,,,,,,,,,,,,
147,7,Memory,2,,,,,,,sunahawfngukizslzsd.jpg,,,,,,,,,,,,,,,
148,7,Memory,2,,,,,,,00576941031fa.jpg,,,,,,,,,,,,,,,
149,7,Memory,2,,,,,,,00807941205fa.jpg,,,,,,,,,,,,,,,
150,7,Presentation,3,00650941031fa_sunadikxpvqeabxrvvc.jpg,00894960620fa_sunalqmfgeadpqsyzpd.jpg,00650941031fa.jpg,sunadikxpvqeabxrvvc.jpg,00894960620fa.jpg,sunalqmfgeadpqsyzpd.jpg,,,>,Face,,,,,1,,,,,,,o
151,7,Presentation,3,00741941201fa_sunaemcowdozyphwknd.jpg,00548940519fa_sunacerqowiaeoqkmsq.jpg,00741941201fa.jpg,sunaemcowdozyphwknd.jpg,00548940519fa.jpg,sunacerqowiaeoqkmsq.jpg,,,>,Face,,,,,1,,,,,,,o
152,7,Presentation,3,00789960620fa_sunagpancjmxqfazssf.jpg,00571940928fa_sunacuatpqpqhyjhjqk.jpg,00789960620fa.jpg,sunagpancjmxqfazssf.jpg,00571940928fa.jpg,sunacuatpqpqhyjhjqk.jpg,,,>,Face,,,,,1,,,,,,,o
153,7,Presentation,3,00909960530_sunaobtizabegtwfwul.jpg,00093931230fa_sunaahwnmtqsrhocysw.jpg,00909960530.jpg,sunaobtizabegtwfwul.jpg,00093931230fa.jpg,sunaahwnmtqsrhocysw.jpg,,,>,Face,,,,,0,,,,,,,o
154,7,Presentation,3,00609940928fa_sunacycdoztxoluxjyk.jpg,00138931230fa_sunaapfaivxqoynnwwp.jpg,00609940928fa.jpg,sunacycdoztxoluxjyk.jpg,00138931230fa.jpg,sunaapfaivxqoynnwwp.jpg,,,>,Face,,,,,1,,,,,,,o
155,7,Presentation,3,00786941205fa_sunagmhildamktmqjss.jpg,00882960530fa_sunaknlirqjqiwbbeeg.jpg,00786941205fa.jpg,sunagmhildamktmqjss.jpg,00882960530fa.jpg,sunaknlirqjqiwbbeeg.jpg,,,>,Face,,,,,1,,,,,,,x
156,7,Presentation,3,00858940307fa_sunaixpqndlwhwjtjek.jpg,00801941205fa_sunagvprlbprarvgdvj.jpg,00858940307fa.jpg,sunaixpqndlwhwjtjek.jpg,00801941205fa.jpg,sunagvprlbprarvgdvj.jpg,,,>,Face,,,,,1,,,,,,,o
157,7,Presentation,3,00191940128fb_sunaawsdjisukbbginm.jpg,00958960627fa_sunavspxmxubqaeidjt.jpg,00191940128fb.jpg,sunaawsdjisukbbginm.jpg,00958960627fa.jpg,sunavspxmxubqaeidjt.jpg,,,>,Face,,,,,1,,,,,,,o
158,7,Presentation,3,00264940128fb_sunabjzyxcjnmztdonj.jpg,00498960627fa_sunabzjxlmkwnwzimua.jpg,00264940128fb.jpg,sunabjzyxcjnmztdonj.jpg,00498960627fa.jpg,sunabzjxlmkwnwzimua.jpg,,,>,Face,,,,,1,,,,,,,o
159,7,Presentation,3,00529940519fa_sunacbeefkxpymwevpk.jpg,00276940422fa_sunabmytpyhsgigllxu.jpg,00529940519fa.jpg,sunacbeefkxpymwevpk.jpg,00276940422fa.jpg,sunabmytpyhsgigllxu.jpg,,,>,Face,,,,,1,,,,,,,o
160,7,Memory,3,,,,,,,00877960530fa.jpg,,,,,,,,,,,,,,,
161,7,Memory,3,,,,,,,sunabasphceswhwwqvv.jpg,,,,,,,,,,,,,,,
162,7,Memory,3,,,,,,,00650941031fa.jpg,,,,,,,,,,,,,,,
163,7,Memory,3,,,,,,,00909960530.jpg,,,,,,,,,,,,,,,
164,7,Memory,3,,,,,,,sunadikxpvqeabxrvvc.jpg,,,,,,,,,,,,,,,
165,7,Memory,3,,,,,,,00841940307fa.jpg,,,,,,,,,,,,,,,
166,7,Memory,3,,,,,,,00966960627fa.jpg,,,,,,,,,,,,,,,
167,7,Memory,3,,,,,,,sunavspxmxubqaeidjt.jpg,,,,,,,,,,,,,,,
168,7,Memory,3,,,,,,,00571940928fa.jpg,,,,,,,,,,,,,,,
169,7,Memory,3,,,,,,,sunaknlirqjqiwbbeeg.jpg,,,,,,,,,,,,,,,
170,7,Memory,3,,,,,,,sunaobtizabegtwfwul.jpg,,,,,,,,,,,,,,,
171,7,Memory,3,,,,,,,sunacxtcahkymosigud.jpg,,,,,,,,,,,,,,,
172,7,Memory,3,,,,,,,00741941201fa.jpg,,,,,,,,,,,,,,,
173,7,Memory,3,,,,,,,sunbagfpovqwbuexqdn.jpg,,,,,,,,,,,,,,,
174,7,Memory,3,,,,,,,sunaisiwfgppimtnmxl.jpg,,,,,,,,,,,,,,,
175,7,Memory,3,,,,,,,sunagpancjmxqfazssf.jpg,,,,,,,,,,,,,,,
176,7,Memory,3,,,,,,,00211940128fa.jpg,,,,,,,,,,,,,,,
177,7,Memory,3,,,,,,,sunacuatpqpqhyjhjqk.jpg,,,,,,,,,,,,,,,
178,7,Memory,3,,,,,,,00958960627fa.jpg,,,,,,,,,,,,,,,
179,7,Memory,3,,,,,,,00968960627fa.jpg,,,,,,,,,,,,,,,
180,7,Memory,3,,,,,,,00498960627fa.jpg,,,,,,,,,,,,,,,
181,7,Memory,3,,,,,,,sunacfdkbsrughwqwtt.jpg,,,,,,,,,,,,,,,
182,7,Memory,3,,,,,,,00778941205fa.jpg,,,,,,,,,,,,,,,
183,7,Memory,3,,,,,,,sunabzjxlmkwnwzimua.jpg,,,,,,,,,,,,,,,
184,7,Memory,3,,,,,,,sunagmhildamktmqjss.jpg,,,,,,,,,,,,,,,
185,7,Memory,3,,,,,,,00882960530fa.jpg,,,,,,,,,,,,,,,
186,7,Memory,3,,,,,,,sunajxpkuhbizeveguy.jpg,,,,,,,,,,,,,,,
187,7,Memory,3,,,,,,,sunagcthdfirrcawoic.jpg,,,,,,,,,,,,,,,
188,7,Memory,3,,,,,,,00554940519fa.jpg,,,,,,,,,,,,,,,
189,7,Memory,3,,,,,,,00786941205fa.jpg,,,,,,,,,,,,,,,
190,7,Memory,3,,,,,,,sunbmaiocftdtvnzgap.jpg,,,,,,,,,,,,,,,
191,7,Memory,3,,,,,,,00988960627fa.jpg,,,,,,,,,,,,,,,
192,7,Memory,3,,,,,,,00598941031fa.jpg,,,,,,,,,,,,,,,
193,7,Memory,3,,,,,,,sunaygrtwrwfezqjizr.jpg,,,,,,,,,,,,,,,
194,7,Memory,3,,,,,,,00061931230fb.jpg,,,,,,,,,,,,,,,
195,7,Memory,3,,,,,,,00789960620fa.jpg,,,,,,,,,,,,,,,
196,7,Memory,3,,,,,,,sunaemcowdozyphwknd.jpg,,,,,,,,,,,,,,,
197,7,Memory,3,,,,,,,sunaaekxzjzrfgtkwjf.jpg,,,,,,,,,,,,,,,
198,7,Memory,3,,,,,,,00276940422fa.jpg,,,,,,,,,,,,,,,
199,7,Memory,3,,,,,,,sunabmytpyhsgigllxu.jpg,,,,,,,,,,,,,,,
200,7,Presentation,4,00751960620fa_sunaezuszgtxnmsxdbk.jpg,00296940422fa_sunabrwnslxalcohfre.jpg,00751960620fa.jpg,sunaezuszgtxnmsxdbk.jpg,00296940422fa.jpg,sunabrwnslxalcohfre.jpg,,,<,Place,,,,,1,,,,,,,o
201,7,Presentation,4,00977960627fa_sunbbxkanhzjgbwyxqs.jpg,00147931230fb_sunaatpkocdkocwxpkb.jpg,00977960627fa.jpg,sunbbxkanhzjgbwyxqs.jpg,00147931230fb.jpg,sunaatpkocdkocwxpkb.jpg,,,<,Place,,,,,1,,,,,,,x
202,7,Presentation,4,00071941031fa_sunaaexqbtdswxrqjvz.jpg,00663941121fa_sunadnjjzohjhbohlwq.jpg,00071941031fa.jpg,sunaaexqbtdswxrqjvz.jpg,00663941121fa.jpg,sunadnjjzohjhbohlwq.jpg,,,<,Place,,,,,1,,,,,,,o
203,7,Presentation,4,00120931230fa_sunaakxgygjfqrzpyoz.jpg,00838940307fa_sunaiozxhxgtfrmoagh.jpg,00120931230fa.jpg,sunaakxgygjfqrzpyoz.jpg,00838940307fa.jpg,sunaiozxhxgtfrmoagh.jpg,,,<,Place,,,,,1,,,,,,,x
204,7,Presentation,4,00063931230fa_sunaaelyvurpntclgau.jpg,00793941205fa_sunagtjwilqjvxohypn.jpg,00063931230fa.jpg,sunaaelyvurpntclgau.jpg,00793941205fa.jpg,sunagtjwilqjvxohypn.jpg,,,<,Place,,,,,1,,,,,,,x
205,7,Presentation,4,00133931230fa_sunaanlwnpqndclffxt.jpg,00773941201fa_sunafvcflzhlqloapyo.jpg,00133931230fa.jpg,sunaanlwnpqndclffxt.jpg,00773941201fa.jpg,sunafvcflzhlqloapyo.jpg,,,<,Place,,,,,1,,,,,,,x
206,7,Presentation,4,01010960627fa_suncnkvbhypnivcohyx.jpg,00747941201fa_sunaeutbrtswvsozxyk.jpg,01010960627fa.jpg,suncnkvbhypnivcohyx.jpg,00747941201fa.jpg,sunaeutbrtswvsozxyk.jpg,,,<,Place,,,,,1,,,,,,,x
207,7,Presentation,4,01004960627fa_sunbwtlihsuptkrckid.jpg,00810941205fa_sunahctntqrunhdxhtb.jpg,01004960627fa.jpg,sunbwtlihsuptkrckid.jpg,00810941205fa.jpg,sunahctntqrunhdxhtb.jpg,,,<,Place,,,,,0,,,,,,,o
208,7,Presentation,4,00313940422fa_sunabwjvmoaddlyxfjr.jpg,00505960627fa_sunabzuqsrgcsonqlkz.jpg,00313940422fa.jpg,sunabwjvmoaddlyxfjr.jpg,00505960627fa.jpg,sunabzuqsrgcsonqlkz.jpg,,,<,Place,,,,,0,,,,,,,o
209,7,Presentation,4,01011960627fa_sundahdxwmcdluscvot.jpg,00634940928fa_sunadcphrizvfpljiqt.jpg,01011960627fa.jpg,sundahdxwmcdluscvot.jpg,00634940928fa.jpg,sunadcphrizvfpljiqt.jpg,,,<,Place,,,,,1,,,,,,,x
210,7,Memory,4,,,,,,,sunahctntqrunhdxhtb.jpg,,,,,,,,,,,,,,,
211,7,Memory,4,,,,,,,sunalntxqqadigcletd.jpg,,,,,,,,,,,,,,,
212,7,Memory,4,,,,,,,00926960627Fa.jpg,,,,,,,,,,,,,,,
213,7,Memory,4,,,,,,,00700941121fa.jpg,,,,,,,,,,,,,,,
214,7,Memory,4,,,,,,,00663941121fa.jpg,,,,,,,,,,,,,,,
215,7,Memory,4,,,,,,,sunbwtlihsuptkrckid.jpg,,,,,,,,,,,,,,,
216,7,Memory,4,,,,,,,00296940422fa.jpg,,,,,,,,,,,,,,,
217,7,Memory,4,,,,,,,sunagtjwilqjvxohypn.jpg,,,,,,,,,,,,,,,
218,7,Memory,4,,,,,,,sunagdzlvkqtpnfxfcg.jpg,,,,,,,,,,,,,,,
219,7,Memory,4,,,,,,,00810941205fa.jpg,,,,,,,,,,,,,,,
220,7,Memory,4,,,,,,,sunbpflsdaxnddnwcqi.jpg,,,,,,,,,,,,,,,
221,7,Memory,4,,,,,,,00153931230fa.jpg,,,,,,,,,,,,,,,
222,7,Memory,4,,,,,,,00892960530fa.jpg,,,,,,,,,,,,,,,
223,7,Memory,4,,,,,,,sunbbxkanhzjgbwyxqs.jpg,,,,,,,,,,,,,,,
224,7,Memory,4,,,,,,,00133931230fa.jpg,,,,,,,,,,,,,,,
225,7,Memory,4,,,,,,,sunadbhmrgrrpyzglxs.jpg,,,,,,,,,,,,,,,
226,7,Memory,4,,,,,,,sunaezuszgtxnmsxdbk.jpg,,,,,,,,,,,,,,,
227,7,Memory,4,,,,,,,00779941205fa.jpg,,,,,,,,,,,,,,,
228,7,Memory,4,,,,,,,00990960627fa.jpg,,,,,,,,,,,,,,,
229,7,Memory,4,,,,,,,sunabrwnslxalcohfre.jpg,,,,,,,,,,,,,,,
230,7,Memory,4,,,,,,,sunapqwoeotxshkukbh.jpg,,,,,,,,,,,,,,,
231,7,Memory,4,,,,,,,sunabwjvmoaddlyxfjr.jpg,,,,,,,,,,,,,,,
232,7,Memory,4,,,,,,,00564941031fa.jpg,,,,,,,,,,,,,,,
233,7,Memory,4,,,,,,,01004960627fa.jpg,,,,,,,,,,,,,,,
234,7,Memory,4,,,,,,,sunadnjjzohjhbohlwq.jpg,,,,,,,,,,,,,,,
235,7,Memory,4,,,,,,,sunapqkpqdfvxlbqwyo.jpg,,,,,,,,,,,,,,,
236,7,Memory,4,,,,,,,sunadsgmtznewzyasnk.jpg,,,,,,,,,,,,,,,
237,7,Memory,4,,,,,,,sunaauhozyxzeeqstxi.jpg,,,,,,,,,,,,,,,
238,7,Memory,4,,,,,,,00747941201fa.jpg,,,,,,,,,,,,,,,
239,7,Memory,4,,,,,,,00921960627fa.jpg,,,,,,,,,,,,,,,
240,7,Memory,4,,,,,,,00633940928fa.jpg,,,,,,,,,,,,,,,
241,7,Memory,4,,,,,,,sunaanlwnpqndclffxt.jpg,,,,,,,,,,,,,,,
242,7,Memory,4,,,,,,,sunapileznnbbmrwoei.jpg,,,,,,,,,,,,,,,
243,7,Memory,4,,,,,,,00751960620fa.jpg,,,,,,,,,,,,,,,
244,7,Memory,4,,,,,,,sunacsaovnjezqwbykf.jpg,,,,,,,,,,,,,,,
245,7,Memory,4,,,,,,,00915960620fa.jpg,,,,,,,,,,,,,,,
246,7,Memory,4,,,,,,,sunaeutbrtswvsozxyk.jpg,,,,,,,,,,,,,,,
247,7,Memory,4,,,,,,,00977960627fa.jpg,,,,,,,,,,,,,,,
248,7,Memory,4,,,,,,,00313940422fa.jpg,,,,,,,,,,,,,,,
249,7,Memory,4,,,,,,,00793941205fa.jpg,,,,,,,,,,,,,,,
250,7,Presentation,5,00943960627fa_sunarpsxqkduedrrzyi.jpg,00905960530fa_sunanmoqeyprjjjfxjt.jpg,00943960627fa.jpg,sunarpsxqkduedrrzyi.jpg,00905960530fa.jpg,sunanmoqeyprjjjfxjt.jpg,,,<,Face,,,,,1,,,,,,,x
251,7,Presentation,5,00775941205fa_sunafvwfsmqkjrutjta.jpg,00636941031fa_sunaddtdkycxbqlpfqa.jpg,00775941205fa.jpg,sunafvwfsmqkjrutjta.jpg,00636941031fa.jpg,sunaddtdkycxbqlpfqa.jpg,,,<,Face,,,,,1,,,,,,,o
252,7,Presentation,5,00819940307fa_sunahqldjibofgsfdgb.jpg,00290940422fa_sunabqowuarvqqcnipn.jpg,00819940307fa.jpg,sunahqldjibofgsfdgb.jpg,00290940422fa.jpg,sunabqowuarvqqcnipn.jpg,,,<,Face,,,,,1,,,,,,,o
253,7,Presentation,5,00109931230fa_sunaajuzribjrizdshh.jpg,00197940128fa_sunaaylzyqlqrsmfwif.jpg,00109931230fa.jpg,sunaajuzribjrizdshh.jpg,00197940128fa.jpg,sunaaylzyqlqrsmfwif.jpg,,,<,Face,,,,,1,,,,,,,o
254,7,Presentation,5,00952960627fa_sunathzzbcwjykldrem.jpg,00790941205fa_sunagpjzsbltchlwvou.jpg,00952960627fa.jpg,sunathzzbcwjykldrem.jpg,00790941205fa.jpg,sunagpjzsbltchlwvou.jpg,,,<,Face,,,,,0,,,,,,,o
255,7,Presentation,5,00728941205fa_sunaejnvnpltdmhbcsi.jpg,00154931230fa_sunaauueuhhvklldjik.jpg,00728941205fa.jpg,sunaejnvnpltdmhbcsi.jpg,00154931230fa.jpg,sunaauueuhhvklldjik.jpg,,,<,Face,,,,,1,,,,,,,o
256,7,Presentation,5,00540940519fa_sunacdnquypmsshhsbk.jpg,00851940307fa_sunaivflshbyfrfzhqb.jpg,00540940519fa.jpg,sunacdnquypmsshhsbk.jpg,00851940307fa.jpg,sunaivflshbyfrfzhqb.jpg,,,<,Face,,,,,1,,,,,,,o
257,7,Presentation,5,00149931230fa_sunaauglwmctnkxyird.jpg,00754941201fa_sunaffgsyyvoqdlkmnk.jpg,00149931230fa.jpg,sunaauglwmctnkxyird.jpg,00754941201fa.jpg,sunaffgsyyvoqdlkmnk.jpg,,,<,Face,,,,,1,,,,,,,x
258,7,Presentation,5,00784941205fb_sunagjzcrjvmxzqzljx.jpg,00967960627fa_sunbaejotfklekvpxcz.jpg,00784941205fb.jpg,sunagjzcrjvmxzqzljx.jpg,00967960627fa.jpg,sunbaejotfklekvpxcz.jpg,,,<,Face,,,,,1,,,,,,,o
259,7,Presentation,5,00960960627fa_sunawksfbacycuhbrsc.jpg,00762941201fa_sunafgzgbisbopcyslr.jpg,00960960627fa.jpg,sunawksfbacycuhbrsc.jpg,00762941201fa.jpg,sunafgzgbisbopcyslr.jpg,,,<,Face,,,,,1,,,,,,,o
260,7,Memory,5,,,,,,,00184940128fa.jpg,,,,,,,,,,,,,,,
261,7,Memory,5,,,,,,,00795941205fa.jpg,,,,,,,,,,,,,,,
262,7,Memory,5,,,,,,,sunagpjzsbltchlwvou.jpg,,,,,,,,,,,,,,,
263,7,Memory,5,,,,,,,sunaavtbadenwnzeutj.jpg,,,,,,,,,,,,,,,
264,7,Memory,5,,,,,,,sunagjzcrjvmxzqzljx.jpg,,,,,,,,,,,,,,,
265,7,Memory,5,,,,,,,00154931230fa.jpg,,,,,,,,,,,,,,,
266,7,Memory,5,,,,,,,00971960627fa.jpg,,,,,,,,,,,,,,,
267,7,Memory,5,,,,,,,00288940422fa.jpg,,,,,,,,,,,,,,,
268,7,Memory,5,,,,,,,00960960627fa.jpg,,,,,,,,,,,,,,,
269,7,Memory,5,,,,,,,sunaddtdkycxbqlpfqa.jpg,,,,,,,,,,,,,,,
270,7,Memory,5,,,,,,,00728941205fa.jpg,,,,,,,,,,,,,,,
271,7,Memory,5,,,,,,,sunaauueuhhvklldjik.jpg,,,,,,,,,,,,,,,
272,7,Memory,5,,,,,,,00784941205fb.jpg,,,,,,,,,,,,,,,
273,7,Memory,5,,,,,,,sunahqldjibofgsfdgb.jpg,,,,,,,,,,,,,,,
274,7,Memory,5,,,,,,,sunamczizlzavhzhpay.jpg,,,,,,,,,,,,,,,
275,7,Memory,5,,,,,,,sunaejnvnpltdmhbcsi.jpg,,,,,,,,,,,,,,,
276,7,Memory,5,,,,,,,sunawksfbacycuhbrsc.jpg,,,,,,,,,,,,,,,
277,7,Memory,5,,,,,,,00197940128fa.jpg,,,,,,,,,,,,,,,
278,7,Memory,5,,,,,,,sunagtumacdlmciqamz.jpg,,,,,,,,,,,,,,,
279,7,Memory,5,,,,,,,sunabgfhvifeijihhjw.jpg,,,,,,,,,,,,,,,
280,7,Memory,5,,,,,,,00895960530fa.jpg,,,,,,,,,,,,,,,
281,7,Memory,5,,,,,,,00540940519fa.jpg,,,,,,,,,,,,,,,
282,7,Memory,5,,,,,,,00903960620fa.jpg,,,,,,,,,,,,,,,
283,7,Memory,5,,,,,,,00635941031fa.jpg,,,,,,,,,,,,,,,
284,7,Memory,5,,,,,,,sunaijsqpvodplbwxkf.jpg,,,,,,,,,,,,,,,
285,7,Memory,5,,,,,,,sunaddsaeicthrfbkhe.jpg,,,,,,,,,,,,,,,
286,7,Memory,5,,,,,,,sunafgzgbisbopcyslr.jpg,,,,,,,,,,,,,,,
287,7,Memory,5,,,,,,,sunanainkqdvktzoxyl.jpg,,,,,,,,,,,,,,,
288,7,Memory,5,,,,,,,00790941205fa.jpg,,,,,,,,,,,,,,,
289,7,Memory,5,,,,,,,sunacdnquypmsshhsbk.jpg,,,,,,,,,,,,,,,
290,7,Memory,5,,,,,,,00819940307fa.jpg,,,,,,,,,,,,,,,
291,7,Memory,5,,,,,,,sunbbegcweqnetpdlrh.jpg,,,,,,,,,,,,,,,
292,7,Memory,5,,,,,,,sunaaylzyqlqrsmfwif.jpg,,,,,,,,,,,,,,,
293,7,Memory,5,,,,,,,00260940128fa.jpg,,,,,,,,,,,,,,,
294,7,Memory,5,,,,,,,00636941031fa.jpg,,,,,,,,,,,,,,,
295,7,Memory,5,,,,,,,00762941201fa.jpg,,,,,,,,,,,,,,,
296,7,Memory,5,,,,,,,00098931230fa.jpg,,,,,,,,,,,,,,,
297,7,Memory,5,,,,,,,sunabppokiyglaxpcha.jpg,,,,,,,,,,,,,,,
298,7,Memory,5,,,,,,,00835940307fa.jpg,,,,,,,,,,,,,,,
299,7,Memory,5,,,,,,,sunaajpqmulidejvjsr.jpg,,,,,,,,,,,,,,,
300,7,Presentation,6,00743941201fa_sunaeoghzrjarigmwua.jpg,00266940128fb_sunabkngeblodihjvbk.jpg,00743941201fa.jpg,sunaeoghzrjarigmwua.jpg,00266940128fb.jpg,sunabkngeblodihjvbk.jpg,,,>,Place,,,,,1,,,,,,,x
301,7,Presentation,6,00766960620fa_sunafijbgncijwykrnl.jpg,00142931230fb_sunaapxkpvrhpjplsok.jpg,00766960620fa.jpg,sunafijbgncijwykrnl.jpg,00142931230fb.jpg,sunaapxkpvrhpjplsok.jpg,,,>,Place,,,,,1,,,,,,,x
302,7,Presentation,6,00791941205fa_sunagrmyoovzukhxmlo.jpg,00942960627fa_sunarfdklgdnjgeqfjg.jpg,00791941205fa.jpg,sunagrmyoovzukhxmlo.jpg,00942960627fa.jpg,sunarfdklgdnjgeqfjg.jpg,,,>,Place,,,,,0,,,,,,,o
303,7,Presentation,6,00970960627fa_sunbasypfgzjtomktmu.jpg,00893960530Fa_sunaloffvbvysigxent.jpg,00970960627fa.jpg,sunbasypfgzjtomktmu.jpg,00893960530Fa.jpg,sunaloffvbvysigxent.jpg,,,>,Place,,,,,1,,,,,,,x
304,7,Presentation,6,00908960530fa_sunanwjjyqqwzqrqagd.jpg,00857940307fa_sunaiwfobocrruqznsv.jpg,00908960530fa.jpg,sunanwjjyqqwzqrqagd.jpg,00857940307fa.jpg,sunaiwfobocrruqznsv.jpg,,,>,Place,,,,,1,,,,,,,o
305,7,Presentation,6,00242940128fa_sunabcuurugvxwparpk.jpg,00804960530fa_sunagwswhkvnsmuszlz.jpg,00242940128fa.jpg,sunabcuurugvxwparpk.jpg,00804960530fa.jpg,sunagwswhkvnsmuszlz.jpg,,,>,Place,,,,,1,,,,,,,x
306,7,Presentation,6,00969960627fa_sunbaoizrfijvhpnnjn.jpg,00834940307fa_sunaibnpvhkdpdnzcnz.jpg,00969960627fa.jpg,sunbaoizrfijvhpnnjn.jpg,00834940307fa.jpg,sunaibnpvhkdpdnzcnz.jpg,,,>,Place,,,,,1,,,,,,,o
307,7,Presentation,6,00839940307fa_sunaipyohrqlwngaqif.jpg,00694941121fa_sunadrmfzmstgdjdcod.jpg,00839940307fa.jpg,sunaipyohrqlwngaqif.jpg,00694941121fa.jpg,sunadrmfzmstgdjdcod.jpg,,,>,Place,,,,,1,,,,,,,x
308,7,Presentation,6,00993960627fa_sunbprywzqxjcezkbch.jpg,00115931230fa_sunaakmxzhuceuiryah.jpg,00993960627fa.jpg,sunbprywzqxjcezkbch.jpg,00115931230fa.jpg,sunaakmxzhuceuiryah.jpg,,,>,Place,,,,,1,,,,,,,o
309,7,Presentation,6,00944960627fa_sunasbbntuiheekqyaq.jpg,00146960620fb_sunaatpeezlljqaxlhj.jpg,00944960627fa.jpg,sunasbbntuiheekqyaq.jpg,00146960620fb.jpg,sunaatpeezlljqaxlhj.jpg,,,>,Place,,,,,1,,,,,,,x
310,7,Memory,6,,,,,,,sunagwswhkvnsmuszlz.jpg,,,,,,,,,,,,,,,
311,7,Memory,6,,,,,,,sunabkngeblodihjvbk.jpg,,,,,,,,,,,,,,,
312,7,Memory,6,,,,,,,00993960627fa.jpg,,,,,,,,,,,,,,,
313,7,Memory,6,,,,,,,00532960627fa.jpg,,,,,,,,,,,,,,,
314,7,Memory,6,,,,,,,sunadrmfzmstgdjdcod.jpg,,,,,,,,,,,,,,,
315,7,Memory,6,,,,,,,sunaglqunwuycxydmyu.jpg,,,,,,,,,,,,,,,
316,7,Memory,6,,,,,,,sunbprywzqxjcezkbch.jpg,,,,,,,,,,,,,,,
317,7,Memory,6,,,,,,,00266940128fb.jpg,,,,,,,,,,,,,,,
318,7,Memory,6,,,,,,,00976960627fa.jpg,,,,,,,,,,,,,,,
319,7,Memory,6,,,,,,,sunabcuurugvxwparpk.jpg,,,,,,,,,,,,,,,
320,7,Memory,6,,,,,,,sunajawzbrlrwafowen.jpg,,,,,,,,,,,,,,,
321,7,Memory,6,,,,,,,sunagufzbeteqdjxais.jpg,,,,,,,,,,,,,,,
322,7,Memory,6,,,,,,,00804960530fa.jpg,,,,,,,,,,,,,,,
323,7,Memory,6,,,,,,,sunbbhqyyzmsxhsbjmp.jpg,,,,,,,,,,,,,,,
324,7,Memory,6,,,,,,,00242940128fa.jpg,,,,,,,,,,,,,,,
325,7,Memory,6,,,,,,,sunaavodbcpygkggnfp.jpg,,,,,,,,,,,,,,,
326,7,Memory,6,,,,,,,sunafijbgncijwykrnl.jpg,,,,,,,,,,,,,,,
327,7,Memory,6,,,,,,,sunagfvluwixdsozaql.jpg,,,,,,,,,,,,,,,
328,7,Memory,6,,,,,,,sunahtfxgsrmkiulnwk.jpg,,,,,,,,,,,,,,,
329,7,Memory,6,,,,,,,sunaakmxzhuceuiryah.jpg,,,,,,,,,,,,,,,
330,7,Memory,6,,,,,,,00163931230fb.jpg,,,,,,,,,,,,,,,
331,7,Memory,6,,,,,,,sunaahzooisqkwlxwoz.jpg,,,,,,,,,,,,,,,
332,7,Memory,6,,,,,,,00115931230fa.jpg,,,,,,,,,,,,,,,
333,7,Memory,6,,,,,,,sunaloffvbvysigxent.jpg,,,,,,,,,,,,,,,
334,7,Memory,6,,,,,,,sunaccdtpgenvcbcbcf.jpg,,,,,,,,,,,,,,,
335,7,Memory,6,,,,,,,sunasbbntuiheekqyaq.jpg,,,,,,,,,,,,,,,
336,7,Memory,6,,,,,,,sunaajtnvzzpsjdzres.jpg,,,,,,,,,,,,,,,
337,7,Memory,6,,,,,,,00782941205fa.jpg,,,,,,,,,,,,,,,
338,7,Memory,6,,,,,,,00893960530Fa.jpg,,,,,,,,,,,,,,,
339,7,Memory,6,,,,,,,00864940307fa.jpg,,,,,,,,,,,,,,,
340,7,Memory,6,,,,,,,sunagrmyoovzukhxmlo.jpg,,,,,,,,,,,,,,,
341,7,Memory,6,,,,,,,00694941121fa.jpg,,,,,,,,,,,,,,,
342,7,Memory,6,,,,,,,00095931230fa.jpg,,,,,,,,,,,,,,,
343,7,Memory,6,,,,,,,00108960530fa.jpg,,,,,,,,,,,,,,,
344,7,Memory,6,,,,,,,00827940307fa.jpg,,,,,,,,,,,,,,,
345,7,Memory,6,,,,,,,00791941205fa.jpg,,,,,,,,,,,,,,,
346,7,Memory,6,,,,,,,00785941205fa.jpg,,,,,,,,,,,,,,,
347,7,Memory,6,,,,,,,00797960620fa.jpg,,,,,,,,,,,,,,,
348,7,Memory,6,,,,,,,00766960620fa.jpg,,,,,,,,,,,,,,,
349,7,Memory,6,,,,,,,00944960627fa.jpg,,,,,,,,,,,,,,,
350,7,Presentation,7,00271940422fa_sunabmbnddafmywtjjj.jpg,00062931230fb_sunaaelotvjgibjtjhs.jpg,00271940422fa.jpg,sunabmbnddafmywtjjj.jpg,00062931230fb.jpg,sunaaelotvjgibjtjhs.jpg,,,<,Face,,,,,1,,,,,,,o
351,7,Presentation,7,00878960530fa_sunakgbnzxmfohgehnu.jpg,00963960627fa_sunayaepykrqvenaqqy.jpg,00878960530fa.jpg,sunakgbnzxmfohgehnu.jpg,00963960627fa.jpg,sunayaepykrqvenaqqy.jpg,,,<,Face,,,,,1,,,,,,,o
352,7,Presentation,7,00073931230fa_sunaafbmtoniaasysgu.jpg,00562941031fa_sunacjnahdmqfnjfwqx.jpg,00073931230fa.jpg,sunaafbmtoniaasysgu.jpg,00562941031fa.jpg,sunacjnahdmqfnjfwqx.jpg,,,<,Face,,,,,1,,,,,,,x
353,7,Presentation,7,00938960627fa_sunaqyylsngywqzwfmx.jpg,00939960627fa_sunarceibpcyacbmfga.jpg,00938960627fa.jpg,sunaqyylsngywqzwfmx.jpg,00939960627fa.jpg,sunarceibpcyacbmfga.jpg,,,<,Face,,,,,1,,,,,,,o
354,7,Presentation,7,00979960627fa_sunbdycacjfaujxitbw.jpg,00314940422fa_sunabwmcbaxwioksdgw.jpg,00979960627fa.jpg,sunbdycacjfaujxitbw.jpg,00314940422fa.jpg,sunabwmcbaxwioksdgw.jpg,,,<,Face,,,,,1,,,,,,,x
355,7,Presentation,7,00481940519fa_sunabxsuqbleluwczoy.jpg,00880960530fa_sunakmnfgklupjijsgf.jpg,00481940519fa.jpg,sunabxsuqbleluwczoy.jpg,00880960530fa.jpg,sunakmnfgklupjijsgf.jpg,,,<,Face,,,,,1,,,,,,,x
356,7,Presentation,7,00997960627fa_sunbtpilbhhbmhmeuzq.jpg,00130931230fa_sunaamvxnvouicstkjb.jpg,00997960627fa.jpg,sunbtpilbhhbmhmeuzq.jpg,00130931230fa.jpg,sunaamvxnvouicstkjb.jpg,,,<,Face,,,,,1,,,,,,,o
357,7,Presentation,7,00898960530fa_sunamkmeblgteyggink.jpg,00097931230fa_sunaajayojuslbbnneg.jpg,00898960530fa.jpg,sunamkmeblgteyggink.jpg,00097931230fa.jpg,sunaajayojuslbbnneg.jpg,,,<,Face,,,,,1,,,,,,,x
358,7,Presentation,7,00725941201fa_sunaefgzwiramypjvtd.jpg,00885960530fa_sunakwlvxjpddialozd.jpg,00725941201fa.jpg,sunaefgzwiramypjvtd.jpg,00885960530fa.jpg,sunakwlvxjpddialozd.jpg,,,<,Face,,,,,1,,,,,,,x
359,7,Presentation,7,00972960627fa_sunbbfqwjpdxniyhies.jpg,00581940928fa_sunacvzhvcksnwqcqbw.jpg,00972960627fa.jpg,sunbbfqwjpdxniyhies.jpg,00581940928fa.jpg,sunacvzhvcksnwqcqbw.jpg,,,<,Face,,,,,1,,,,,,,x
360,7,Memory,7,,,,,,,00816941205fa.jpg,,,,,,,,,,,,,,,
361,7,Memory,7,,,,,,,sunaaiqiqcggrskoqgy.jpg,,,,,,,,,,,,,,,
362,7,Memory,7,,,,,,,00869940307fa.jpg,,,,,,,,,,,,,,,
363,7,Memory,7,,,,,,,00239940128fa.jpg,,,,,,,,,,,,,,,
364,7,Memory,7,,,,,,,00096931230fa.jpg,,,,,,,,,,,,,,,
365,7,Memory,7,,,,,,,00208940128fa.jpg,,,,,,,,,,,,,,,
366,7,Memory,7,,,,,,,sunaazzyhbvqjpmazjq.jpg,,,,,,,,,,,,,,,
367,7,Memory,7,,,,,,,00963960627fa.jpg,,,,,,,,,,,,,,,
368,7,Memory,7,,,,,,,sunaenwuebvlpdmntju.jpg,,,,,,,,,,,,,,,
369,7,Memory,7,,,,,,,sunabctlikybqabezjv.jpg,,,,,,,,,,,,,,,
370,7,Memory,7,,,,,,,00481940519fa.jpg,,,,,,,,,,,,,,,
371,7,Memory,7,,,,,,,sunahmhrncocyhsjpxk.jpg,,,,,,,,,,,,,,,
372,7,Memory,7,,,,,,,sunamlotskmmsjeogby.jpg,,,,,,,,,,,,,,,
373,7,Memory,7,,,,,,,sunaamvxnvouicstkjb.jpg,,,,,,,,,,,,,,,
374,7,Memory,7,,,,,,,sunbdycacjfaujxitbw.jpg,,,,,,,,,,,,,,,
375,7,Memory,7,,,,,,,00938960627fa.jpg,,,,,,,,,,,,,,,
376,7,Memory,7,,,,,,,00972960627fa.jpg,,,,,,,,,,,,,,,
377,7,Memory,7,,,,,,,00900960530fa.jpg,,,,,,,,,,,,,,,
378,7,Memory,7,,,,,,,sunaaelotvjgibjtjhs.jpg,,,,,,,,,,,,,,,
379,7,Memory,7,,,,,,,sunbbfqwjpdxniyhies.jpg,,,,,,,,,,,,,,,
380,7,Memory,7,,,,,,,00742941201fa.jpg,,,,,,,,,,,,,,,
381,7,Memory,7,,,,,,,sunagtqhhwxjeuxdebe.jpg,,,,,,,,,,,,,,,
382,7,Memory,7,,,,,,,sunainqelldeebvxtcz.jpg,,,,,,,,,,,,,,,
383,7,Memory,7,,,,,,,00880960530fa.jpg,,,,,,,,,,,,,,,
384,7,Memory,7,,,,,,,00130931230fa.jpg,,,,,,,,,,,,,,,
385,7,Memory,7,,,,,,,00062931230fb.jpg,,,,,,,,,,,,,,,
386,7,Memory,7,,,,,,,sunbtpilbhhbmhmeuzq.jpg,,,,,,,,,,,,,,,
387,7,Memory,7,,,,,,,00581940928fa.jpg,,,,,,,,,,,,,,,
388,7,Memory,7,,,,,,,sunayaepykrqvenaqqy.jpg,,,,,,,,,,,,,,,
389,7,Memory,7,,,,,,,00979960627fa.jpg,,,,,,,,,,,,,,,
390,7,Memory,7,,,,,,,sunakmnfgklupjijsgf.jpg,,,,,,,,,,,,,,,
391,7,Memory,7,,,,,,,sunacvzhvcksnwqcqbw.jpg,,,,,,,,,,,,,,,
392,7,Memory,7,,,,,,,00997960627fa.jpg,,,,,,,,,,,,,,,
393,7,Memory,7,,,,,,,sunabxsuqbleluwczoy.jpg,,,,,,,,,,,,,,,
394,7,Memory,7,,,,,,,00868960307fa.jpg,,,,,,,,,,,,,,,
395,7,Memory,7,,,,,,,00836940307fa.jpg,,,,,,,,,,,,,,,
396,7,Memory,7,,,,,,,sunajoveqhiprwqgoco.jpg,,,,,,,,,,,,,,,
397,7,Memory,7,,,,,,,sunaqyylsngywqzwfmx.jpg,,,,,,,,,,,,,,,
398,7,Memory,7,,,,,,,00794960620fa.jpg,,,,,,,,,,,,,,,
399,7,Memory,7,,,,,,,sunajjxttslobudoqbv.jpg,,,,,,,,,,,,,,,
