,Subject,Trial Type,Run,Cued Composite,Uncued Composite,Cued Face,Cued Place,Uncued Face,Uncued Place,Memory Image,Category,Cued Side,Cued Category,Attention Reaction Time (s),Familiarity Reaction Time (s),Familiarity Rating,Attention Level,Cue Validity,Post Invalid Cue,Pre Invalid Cue,Attention Button,Rating History,Stimulus Onset,Stimulus End,Attention Probe
10,7,Memory,0,,,,,,,00630941031fa.jpg,,,,,0.987,1,,,,,,,1538572110.844298,1538572113.347235,
11,7,Memory,0,,,,,,,sunadflbrkckmepztql.jpg,,,,,2.203,2,,,,,,,1538572114.764044,1538572117.264336,
12,7,Memory,0,,,,,,,sunabbafjowbzcvbucc.jpg,,,,,1.188,1,,,,,,,1538572118.71467,1538572121.132209,
13,7,Memory,0,,,,,,,00809960620fa.jpg,,,,,1.17,3,,,,,,,1538572122.533375,1538572124.88376,
14,7,Memory,0,,,,,,,sunalcrtwiycqobgelp.jpg,,,,,1.086,1,,,,,,,1538572126.31699,1538572128.751883,
15,7,Memory,0,,,,,,,sunahbvlpavurqoxdeq.jpg,,,,,0.771,1,,,,,,,1538572130.21789,1538572132.686761,
16,7,Memory,0,,,,,,,sunaanptmsknhirrzed.jpg,,,,,0.986,3,,,,,,,1538572134.086252,1538572136.470604,
17,7,Memory,0,,,,,,,00092931230fa.jpg,,,,,1.386,2,,,,,,,1538572137.870658,1538572140.171133,
18,7,Memory,0,,,,,,,00670941121fa.jpg,,,,,0.954,4,,,,,,,1538572141.555293,1538572143.906489,
19,7,Memory,0,,,,,,,sunasrjlmglmjzbmqxb.jpg,,,,,1.369,3,,,,,,,1538572145.372538,1538572147.691022,
20,7,Memory,0,,,,,,,00136931230fb.jpg,,,,,0.902,4,,,,,,,1538572149.092543,1538572151.524276,
21,7,Memory,0,,,,,,,00937960627fa.jpg,,,,,1.072,2,,,,,,,1538572152.975927,1538572155.493236,
22,7,Memory,0,,,,,,,00723941201fa.jpg,,,,,0.789,1,,,,,,,1538572156.910131,1538572159.395641,
23,7,Memory,0,,,,,,,sunammbnoambmhdxdwd.jpg,,,,,0.97,2,,,,,,,1538572160.960792,1538572163.245939,
24,7,Memory,0,,,,,,,00887960530.jpg,,,,,0.737,3,,,,,,,1538572164.71289,1538572166.980021,
25,7,Memory,0,,,,,,,00235940128fb.jpg,,,,,1.837,4,,,,,,,1538572168.447845,1538572170.947927,
26,7,Memory,0,,,,,,,sunaaheqzstzxuadglu.jpg,,,,,1.103,2,,,,,,,1538572172.315686,1538572174.884268,
27,7,Memory,0,,,,,,,00772941201fa.jpg,,,,,0.838,3,,,,,,,1538572176.350017,1538572178.716757,
28,7,Memory,0,,,,,,,00859940307fa.jpg,,,,,1.019,4,,,,,,,1538572180.101526,1538572182.434848,
29,7,Memory,0,,,,,,,sunawotxrevnqvamsfp.jpg,,,,,1.219,3,,,,,,,1538572183.752066,1538572186.152342,
30,7,Memory,0,,,,,,,sunaqsolmfydodnakub.jpg,,,,,0.769,1,,,,,,,1538572187.586598,1538572189.986486,
31,7,Memory,0,,,,,,,sunaqgjuuwvdcyiccjt.jpg,,,,,1.434,3,,,,,,,1538572191.388568,1538572193.67226,
32,7,Memory,0,,,,,,,00787960620fa.jpg,,,,,0.87,3,,,,,,,1538572195.072356,1538572197.488997,
33,7,Memory,0,,,,,,,00780960530fa.jpg,,,,,0.735,3,,,,,,,1538572199.040256,1538572201.357145,
34,7,Memory,0,,,,,,,sunaedtgwjvvziytspa.jpg,,,,,0.986,1,,,,,,,1538572202.841898,1538572205.14187,
35,7,Memory,0,,,,,,,sunagetqixeypsysbpn.jpg,,,,,0.868,1,,,,,,,1538572206.50891,1538572209.077606,
36,7,Memory,0,,,,,,,sunadakkdovnuzlycvp.jpg,,,,,0.885,3,,,,,,,1538572210.461292,1538572213.128978,
37,7,Memory,0,,,,,,,sunadochqcucscehsgk.jpg,,,,,0.769,4,,,,,,,1538572214.478881,1538572216.863231,
38,7,Memory,0,,,,,,,sunaiycurtqsfkvcaso.jpg,,,,,0.985,3,,,,,,,1538572218.280004,1538572220.713105,
39,7,Memory,0,,,,,,,sunaaexpnawiehinlpy.jpg,,,,,1.037,4,,,,,,,1538572222.180653,1538572224.550033,
40,7,Memory,0,,,,,,,00071940128fa.jpg,,,,,0.985,3,,,,,,,1538572225.94794,1538572228.30069,
41,7,Memory,0,,,,,,,sunafpfpiiujzoesnqg.jpg,,,,,1.334,2,,,,,,,1538572229.733929,1538572232.234042,
42,7,Memory,0,,,,,,,00950960627fa.jpg,,,,,0.92,3,,,,,,,1538572233.685226,1538572236.13479,
43,7,Memory,0,,,,,,,00214940128fa.jpg,,,,,0.768,2,,,,,,,1538572237.535689,1538572239.953614,
44,7,Memory,0,,,,,,,sunabclssnoeuigtawp.jpg,,,,,1.236,4,,,,,,,1538572241.387637,1538572243.754639,
45,7,Memory,0,,,,,,,sunagoufulkpsxrmklt.jpg,,,,,0.886,3,,,,,,,1538572245.239203,1538572247.605627,
46,7,Memory,0,,,,,,,00936960627fa.jpg,,,,,1.051,4,,,,,,,1538572249.023764,1538572251.406483,
47,7,Memory,0,,,,,,,00961960627fa.jpg,,,,,0.737,4,,,,,,,1538572252.907662,1538572255.275051,
48,7,Memory,0,,,,,,,00647941031fa.jpg,,,,,1.037,2,,,,,,,1538572256.692397,1538572259.243492,
49,7,Memory,0,,,,,,,00901960530fa.jpg,,,,,1.185,1,,,,,,,1538572260.726425,1538572263.127571,
