,Subject,Trial Type,Run,Cued Composite,Uncued Composite,Cued Face,Cued Place,Uncued Face,Uncued Place,Memory Image,Category,Cued Side,Cued Category,Attention Reaction Time (s),Familiarity Reaction Time (s),Familiarity Rating,Attention Level,Cue Validity,Post Invalid Cue,Pre Invalid Cue,Attention Button,Rating History,Stimulus Onset,Stimulus End,Attention Probe
110,7,Memory,2,,,,,,,sunaecpkgfewqqreqwe.jpg,,,,,1.186,3.0,,,,,,,1538572871.738564,1538572874.273107,
111,7,Memory,2,,,,,,,00996960627fa.jpg,,,,,1.169,2.0,,,,,,,1538572875.691147,1538572878.058124,
112,7,Memory,2,,,,,,,sunaiwduelojtwaqeyh.jpg,,,,,1.236,1.0,,,,,,,1538572879.408425,1538572881.875188,
113,7,Memory,2,,,,,,,sunafhmnhsdurlvddpw.jpg,,,,,1.318,3.0,,,,,,,1538572883.260513,1538572885.727381,
114,7,Memory,2,,,,,,,00162931230fb.jpg,,,,,0.738,2.0,,,,,,,1538572887.077305,1538572889.578545,
115,7,Memory,2,,,,,,,sunagsiwrmuixqgdimb.jpg,,,,,0.836,4.0,,,,,,,1538572890.962433,1538572893.413978,
116,7,Memory,2,,,,,,,sunaavjinpnkappuonm.jpg,,,,,0.869,4.0,,,,,,,1538572894.814279,1538572897.263489,
117,7,Memory,2,,,,,,,sunagwzdbtlixdhgolm.jpg,,,,,0.902,1.0,,,,,,,1538572898.648972,1538572900.982402,
118,7,Memory,2,,,,,,,00719960620fa.jpg,,,,,0.621,3.0,,,,,,,1538572902.398866,1538572904.884708,
119,7,Memory,2,,,,,,,sunaangbuylfvckqqoo.jpg,,,,,1.054,2.0,,,,,,,1538572906.317487,1538572908.6511,
120,7,Memory,2,,,,,,,sunafgdqbclkwfocdhg.jpg,,,,,0.719,1.0,,,,,,,1538572910.118747,1538572912.451376,
121,7,Memory,2,,,,,,,sunaathajvxrgptwhoj.jpg,,,,,0.653,1.0,,,,,,,1538572913.987105,1538572916.403849,
122,7,Memory,2,,,,,,,00316940422fa.jpg,,,,,1.287,2.0,,,,,,,1538572917.788433,1538572920.254936,
123,7,Memory,2,,,,,,,sunaafjszryxyavjzln.jpg,,,,,0.921,4.0,,,,,,,1538572921.689525,1538572924.106216,
124,7,Memory,2,,,,,,,00922960627fa.jpg,,,,,0.587,3.0,,,,,,,1538572925.557816,1538572928.108824,
125,7,Memory,2,,,,,,,sunanaacmmosxrfwmvl.jpg,,,,,1.334,1.0,,,,,,,1538572929.641807,1538572931.991537,
126,7,Memory,2,,,,,,,sunabizydfotqddlnjp.jpg,,,,,1.686,1.0,,,,,,,1538572933.459889,1538572935.909878,
127,7,Memory,2,,,,,,,00792941205fa.jpg,,,,,1.102,1.0,,,,,,,1538572937.310018,1538572939.678454,
128,7,Memory,2,,,,,,,00953960627fa.jpg,,,,,0.704,3.0,,,,,,,1538572941.111494,1538572943.529289,
129,7,Memory,2,,,,,,,sunapqkyghktgtosuuk.jpg,,,,,0.886,4.0,,,,,,,1538572944.979539,1538572947.329836,
130,7,Memory,2,,,,,,,00902960530fa.jpg,,,,,0.783,1.0,,,,,,,1538572948.714641,1538572951.131626,
131,7,Memory,2,,,,,,,sunadzuvtmtmgupotmf.jpg,,,,,0.971,1.0,,,,,,,1538572952.549011,1538572955.033818,
132,7,Memory,2,,,,,,,00761960627fa.jpg,,,,,0.767,1.0,,,,,,,1538572956.551261,1538572958.917086,
133,7,Memory,2,,,,,,,00262940128fa.jpg,,,,,0.735,3.0,,,,,,,1538572960.318617,1538572962.76923,
134,7,Memory,2,,,,,,,00720960620fa.jpg,,,,,0.67,2.0,,,,,,,1538572964.136306,1538572966.452227,
135,7,Memory,2,,,,,,,00854940307fa.jpg,,,,,0.901,2.0,,,,,,,1538572967.854507,1538572970.154361,
136,7,Memory,2,,,,,,,sunacvjlsylseoghjup.jpg,,,,,0.719,1.0,,,,,,,1538572971.604764,1538572973.956784,
137,7,Memory,2,,,,,,,00763941205fa.jpg,,,,,1.254,1.0,,,,,,,1538572975.373236,1538572977.756196,
138,7,Memory,2,,,,,,,sunaizgnnplsvajzhkc.jpg,,,,,1.169,3.0,,,,,,,1538572979.20836,1538572981.5916,
139,7,Memory,2,,,,,,,sunbpvgllfdejxcpjqp.jpg,,,,,0.751,1.0,,,,,,,1538572983.008557,1538572985.425856,
140,7,Memory,2,,,,,,,00805941205fa.jpg,,,,,0.736,2.0,,,,,,,1538572986.759471,1538572989.177166,
141,7,Memory,2,,,,,,,sunabxmguapjekttvwm.jpg,,,,,0.738,1.0,,,,,,,1538572990.644603,1538572993.21332,
142,7,Memory,2,,,,,,,00144931230fb.jpg,,,,,0.985,2.0,,,,,,,1538572994.579338,1538572996.996162,
143,7,Memory,2,,,,,,,00080931230fb.jpg,,,,,0.72,1.0,,,,,,,1538572998.430466,1538573000.864465,
144,7,Memory,2,,,,,,,00862940307fa.jpg,,,,,0.77,3.0,,,,,,,1538573002.297796,1538573004.648787,
145,7,Memory,2,,,,,,,00131931230fb.jpg,,,,,0.936,2.0,,,,,,,1538573005.999763,1538573008.483792,
146,7,Memory,2,,,,,,,sunatstrpjxhvtbaczf.jpg,,,,,1.555,1.0,,,,,,,1538573010.001275,1538573012.502127,
147,7,Memory,2,,,,,,,sunahawfngukizslzsd.jpg,,,,,1.152,1.0,,,,,,,1538573013.953001,1538573016.36957,
148,7,Memory,2,,,,,,,00576941031fa.jpg,,,,,0.806,2.0,,,,,,,1538573017.838016,1538573020.254252,
149,7,Memory,2,,,,,,,00807941205fa.jpg,,,,,1.104,1.0,,,,,,,1538573021.721364,1538573024.038046,
