,Subject,Trial Type,Run,Cued Composite,Uncued Composite,Cued Face,Cued Place,Uncued Face,Uncued Place,Memory Image,Category,Cued Side,Cued Category,Attention Response Time (s),Familiarity Reaction Time (s),Familiarity Rating,Attention Level,Cue Validity,Post Invalid Cue,Pre Invalid Cue,Attention Button,Rating History,Stimulus Onset,Stimulus End,Attention Probe
0,0,Presentation,0,00145931230fb_sunaatjesvdupctftmn.jpg,00741941201fa_sunaemcowdozyphwknd.jpg,,,,,,,<,Face,,,,,1,,,,,,,x
1,0,Presentation,0,00267940128fb_sunablfqiwfqomjarht.jpg,00787941205fa_sunagmwxxwymwojbvgi.jpg,,,,,,,>,Face,,,,,1,,,,,,,x
2,0,Presentation,0,00866940307fa_sunajbwkywmsqkldfml.jpg,00313940422fa_sunabwjvmoaddlyxfjr.jpg,,,,,,,>,Place,,,,,1,,,,,,,o
3,0,Presentation,0,00124931230fa_sunaalhlvzmjmitybdn.jpg,00978960627fa_sunbddbivbptlrlauhy.jpg,,,,,,,<,Face,,,,,1,,,,,,,o
4,0,Presentation,0,00125931230fa_sunaalltyvjhbzhkmvg.jpg,00144931230fb_sunaathajvxrgptwhoj.jpg,,,,,,,<,Place,,,,,1,,,,,,,o
5,0,Presentation,0,00193940928fa_sunaaxjpzcnxligjtjq.jpg,00965960627fa_sunaydywdmvlfddbxbk.jpg,,,,,,,<,Face,,,,,1,,,,,,,x
6,0,Presentation,0,00132931230fb_sunaanjcbzdvtvblsdy.jpg,00063931230fa_sunaaelyvurpntclgau.jpg,,,,,,,>,Place,,,,,1,,,,,,,o
7,0,Presentation,0,00794960620fa_sunagtqhhwxjeuxdebe.jpg,00747941201fa_sunaeutbrtswvsozxyk.jpg,,,,,,,>,Face,,,,,1,,,,,,,x
8,0,Presentation,0,00796941205fa_sunaguchqqnrtodtezq.jpg,00868960307fa_sunajjxttslobudoqbv.jpg,,,,,,,<,Place,,,,,1,,,,,,,o
9,0,Presentation,0,00925960627fa_sunapqwnqzxlsfvgsjm.jpg,00901960530fa_sunammbnoambmhdxdwd.jpg,,,,,,,>,Place,,,,,1,,,,,,,o
10,0,Memory,0,,,,,,,sunaemcowdozyphwknd.jpg,,,,,,,,,,,,,,,
11,0,Memory,0,,,,,,,sunajbwkywmsqkldfml.jpg,,,,,,,,,,,,,,,
12,0,Memory,0,,,,,,,00866940307fa.jpg,,,,,,,,,,,,,,,
13,0,Memory,0,,,,,,,00796941205fa.jpg,,,,,,,,,,,,,,,
14,0,Memory,0,,,,,,,00123931230fb.jpg,,,,,,,,,,,,,,,
15,0,Memory,0,,,,,,,00925960627fa.jpg,,,,,,,,,,,,,,,
16,0,Memory,0,,,,,,,00978960627fa.jpg,,,,,,,,,,,,,,,
17,0,Memory,0,,,,,,,sunabwjvmoaddlyxfjr.jpg,,,,,,,,,,,,,,,
18,0,Memory,0,,,,,,,sunagfvluwixdsozaql.jpg,,,,,,,,,,,,,,,
19,0,Memory,0,,,,,,,00741941201fa.jpg,,,,,,,,,,,,,,,
20,0,Memory,0,,,,,,,00901960530fa.jpg,,,,,,,,,,,,,,,
21,0,Memory,0,,,,,,,sunammbnoambmhdxdwd.jpg,,,,,,,,,,,,,,,
22,0,Memory,0,,,,,,,00132931230fb.jpg,,,,,,,,,,,,,,,
23,0,Memory,0,,,,,,,sunbbegcweqnetpdlrh.jpg,,,,,,,,,,,,,,,
24,0,Memory,0,,,,,,,sunagmwxxwymwojbvgi.jpg,,,,,,,,,,,,,,,
25,0,Memory,0,,,,,,,00851940307fa.jpg,,,,,,,,,,,,,,,
26,0,Memory,0,,,,,,,sunaagcpoejbuzyvddd.jpg,,,,,,,,,,,,,,,
27,0,Memory,0,,,,,,,sunbbgtoeuzierkkajt.jpg,,,,,,,,,,,,,,,
28,0,Memory,0,,,,,,,sunaalcrrdbjgdztbiz.jpg,,,,,,,,,,,,,,,
29,0,Memory,0,,,,,,,sunagvxkjokqimstxpe.jpg,,,,,,,,,,,,,,,
30,0,Memory,0,,,,,,,00782941205fa.jpg,,,,,,,,,,,,,,,
31,0,Memory,0,,,,,,,00787941205fa.jpg,,,,,,,,,,,,,,,
32,0,Memory,0,,,,,,,01010960627fa.jpg,,,,,,,,,,,,,,,
33,0,Memory,0,,,,,,,sunaguchqqnrtodtezq.jpg,,,,,,,,,,,,,,,
34,0,Memory,0,,,,,,,sunbddbivbptlrlauhy.jpg,,,,,,,,,,,,,,,
35,0,Memory,0,,,,,,,sunapqwnqzxlsfvgsjm.jpg,,,,,,,,,,,,,,,
36,0,Memory,0,,,,,,,sunablfqiwfqomjarht.jpg,,,,,,,,,,,,,,,
37,0,Memory,0,,,,,,,00483940519fa.jpg,,,,,,,,,,,,,,,
38,0,Memory,0,,,,,,,00803941205fa.jpg,,,,,,,,,,,,,,,
39,0,Memory,0,,,,,,,00101931230fb.jpg,,,,,,,,,,,,,,,
40,0,Memory,0,,,,,,,sunaivflshbyfrfzhqb.jpg,,,,,,,,,,,,,,,
41,0,Memory,0,,,,,,,00971960627fa.jpg,,,,,,,,,,,,,,,
42,0,Memory,0,,,,,,,sunaajqmsaavkmgbsth.jpg,,,,,,,,,,,,,,,
43,0,Memory,0,,,,,,,00313940422fa.jpg,,,,,,,,,,,,,,,
44,0,Memory,0,,,,,,,sunabyvpwkgsjtijdwj.jpg,,,,,,,,,,,,,,,
45,0,Memory,0,,,,,,,00973960627fa.jpg,,,,,,,,,,,,,,,
46,0,Memory,0,,,,,,,00089931230fa.jpg,,,,,,,,,,,,,,,
47,0,Memory,0,,,,,,,sunaanjcbzdvtvblsdy.jpg,,,,,,,,,,,,,,,
48,0,Memory,0,,,,,,,suncnkvbhypnivcohyx.jpg,,,,,,,,,,,,,,,
49,0,Memory,0,,,,,,,00267940128fb.jpg,,,,,,,,,,,,,,,
50,0,Presentation,1,00857940307fa_sunaiwfobocrruqznsv.jpg,00265940128fb_sunabkmdplkdbvxriff.jpg,,,,,,,>,Place,,,,,1,,,,,,,x
51,0,Presentation,1,00942960627fa_sunarfdklgdnjgeqfjg.jpg,00266940128fb_sunabkngeblodihjvbk.jpg,,,,,,,<,Face,,,,,0,,,,,,,x
52,0,Presentation,1,00949960627fb_sunasnqkkyhilqkxiqm.jpg,00108960530fa_sunaajtnvzzpsjdzres.jpg,,,,,,,>,Face,,,,,1,,,,,,,x
53,0,Presentation,1,00810941205fa_sunahctntqrunhdxhtb.jpg,00797960620fa_sunagufzbeteqdjxais.jpg,,,,,,,<,Place,,,,,1,,,,,,,o
54,0,Presentation,1,00197940128fa_sunaaylzyqlqrsmfwif.jpg,00647941031fa_sunadflbrkckmepztql.jpg,,,,,,,>,Place,,,,,1,,,,,,,x
55,0,Presentation,1,00131931230fb_sunaangbuylfvckqqoo.jpg,00598941031fa_sunacxtcahkymosigud.jpg,,,,,,,<,Face,,,,,0,,,,,,,x
56,0,Presentation,1,00822940307fa_sunahqrxievfeusiqlt.jpg,00751960620fa_sunaezuszgtxnmsxdbk.jpg,,,,,,,>,Face,,,,,1,,,,,,,x
57,0,Presentation,1,00194940128fb_sunaayehfdqcyxggsej.jpg,01000960627fa_sunbvzmgrdvaakxusbu.jpg,,,,,,,<,Place,,,,,1,,,,,,,o
58,0,Presentation,1,00859940307fa_sunaiycurtqsfkvcaso.jpg,00663941121fa_sunadnjjzohjhbohlwq.jpg,,,,,,,>,Face,,,,,1,,,,,,,o
59,0,Presentation,1,00138931230fa_sunaapfaivxqoynnwwp.jpg,01002960627fb_sunbwaafjdebjzttuvq.jpg,,,,,,,<,Place,,,,,1,,,,,,,o
60,0,Memory,1,,,,,,,sunaayehfdqcyxggsej.jpg,,,,,,,,,,,,,,,
61,0,Memory,1,,,,,,,sunabkmdplkdbvxriff.jpg,,,,,,,,,,,,,,,
62,0,Memory,1,,,,,,,00750941201fa.jpg,,,,,,,,,,,,,,,
63,0,Memory,1,,,,,,,00194940128fb.jpg,,,,,,,,,,,,,,,
64,0,Memory,1,,,,,,,sunabueyoajufbkraki.jpg,,,,,,,,,,,,,,,
65,0,Memory,1,,,,,,,01002960627fb.jpg,,,,,,,,,,,,,,,
66,0,Memory,1,,,,,,,sunaeuzwggvibufclwf.jpg,,,,,,,,,,,,,,,
67,0,Memory,1,,,,,,,00790941205fa.jpg,,,,,,,,,,,,,,,
68,0,Memory,1,,,,,,,00266940128fb.jpg,,,,,,,,,,,,,,,
69,0,Memory,1,,,,,,,sunalkiibhqpxfamlll.jpg,,,,,,,,,,,,,,,
70,0,Memory,1,,,,,,,sunabizydfotqddlnjp.jpg,,,,,,,,,,,,,,,
71,0,Memory,1,,,,,,,00891960530fa.jpg,,,,,,,,,,,,,,,
72,0,Memory,1,,,,,,,00854940307fa.jpg,,,,,,,,,,,,,,,
73,0,Memory,1,,,,,,,sunbfzchmomnvzhbxdg.jpg,,,,,,,,,,,,,,,
74,0,Memory,1,,,,,,,sunamlotskmmsjeogby.jpg,,,,,,,,,,,,,,,
75,0,Memory,1,,,,,,,sunaapfaivxqoynnwwp.jpg,,,,,,,,,,,,,,,
76,0,Memory,1,,,,,,,sunbwaafjdebjzttuvq.jpg,,,,,,,,,,,,,,,
77,0,Memory,1,,,,,,,sunabkngeblodihjvbk.jpg,,,,,,,,,,,,,,,
78,0,Memory,1,,,,,,,sunaangbuylfvckqqoo.jpg,,,,,,,,,,,,,,,
79,0,Memory,1,,,,,,,sunaiwduelojtwaqeyh.jpg,,,,,,,,,,,,,,,
80,0,Memory,1,,,,,,,00138931230fa.jpg,,,,,,,,,,,,,,,
81,0,Memory,1,,,,,,,00647941031fa.jpg,,,,,,,,,,,,,,,
82,0,Memory,1,,,,,,,00984960627fa.jpg,,,,,,,,,,,,,,,
83,0,Memory,1,,,,,,,00942960627fa.jpg,,,,,,,,,,,,,,,
84,0,Memory,1,,,,,,,sunbvzmgrdvaakxusbu.jpg,,,,,,,,,,,,,,,
85,0,Memory,1,,,,,,,00262940128fa.jpg,,,,,,,,,,,,,,,
86,0,Memory,1,,,,,,,00900960530fa.jpg,,,,,,,,,,,,,,,
87,0,Memory,1,,,,,,,sunadflbrkckmepztql.jpg,,,,,,,,,,,,,,,
88,0,Memory,1,,,,,,,sunagpjzsbltchlwvou.jpg,,,,,,,,,,,,,,,
89,0,Memory,1,,,,,,,sunadsgmtznewzyasnk.jpg,,,,,,,,,,,,,,,
90,0,Memory,1,,,,,,,01000960627fa.jpg,,,,,,,,,,,,,,,
91,0,Memory,1,,,,,,,sunahctntqrunhdxhtb.jpg,,,,,,,,,,,,,,,
92,0,Memory,1,,,,,,,00265940128fb.jpg,,,,,,,,,,,,,,,
93,0,Memory,1,,,,,,,00306940422fa.jpg,,,,,,,,,,,,,,,
94,0,Memory,1,,,,,,,sunapileznnbbmrwoei.jpg,,,,,,,,,,,,,,,
95,0,Memory,1,,,,,,,sunarfdklgdnjgeqfjg.jpg,,,,,,,,,,,,,,,
96,0,Memory,1,,,,,,,00915960620fa.jpg,,,,,,,,,,,,,,,
97,0,Memory,1,,,,,,,00810941205fa.jpg,,,,,,,,,,,,,,,
98,0,Memory,1,,,,,,,00700941121fa.jpg,,,,,,,,,,,,,,,
99,0,Memory,1,,,,,,,00131931230fb.jpg,,,,,,,,,,,,,,,
100,0,Presentation,2,00990960627fa_sunbpflsdaxnddnwcqi.jpg,00559940519fa_sunacjkmnpawfzbyvae.jpg,,,,,,,<,Face,,,,,1,,,,,,,x
101,0,Presentation,2,00081941031fa_sunaaftlyfudyzuhqzf.jpg,00133931230fa_sunaanlwnpqndclffxt.jpg,,,,,,,>,Place,,,,,1,,,,,,,o
102,0,Presentation,2,00481940519fa_sunabxsuqbleluwczoy.jpg,00095931230fa_sunaahzooisqkwlxwoz.jpg,,,,,,,>,Face,,,,,1,,,,,,,x
103,0,Presentation,2,00952960627fa_sunathzzbcwjykldrem.jpg,00862940307fa_sunaizgnnplsvajzhkc.jpg,,,,,,,<,Place,,,,,1,,,,,,,o
104,0,Presentation,2,00096931230fa_sunaaiqiqcggrskoqgy.jpg,00676941121fa_sunadpnqovzckyikrjo.jpg,,,,,,,>,Place,,,,,1,,,,,,,o
105,0,Presentation,2,00960960627fa_sunawksfbacycuhbrsc.jpg,00801941205fa_sunagvprlbprarvgdvj.jpg,,,,,,,<,Face,,,,,1,,,,,,,o
106,0,Presentation,2,00126931230fb_sunaamdjwemxpmmtypi.jpg,00746941201fa_sunaetydippjxikifsb.jpg,,,,,,,>,Place,,,,,1,,,,,,,o
107,0,Presentation,2,00060931230fa_sunaaehaikpckyjsety.jpg,00788941205fa_sunagountlxpzkytsmp.jpg,,,,,,,<,Face,,,,,0,,,,,,,x
108,0,Presentation,2,00937960627fa_sunaqsolmfydodnakub.jpg,00633940928fa_sunadbhmrgrrpyzglxs.jpg,,,,,,,<,Place,,,,,1,,,,,,,o
109,0,Presentation,2,00874940307fa_sunajtrfunvzdfticna.jpg,00308940422fb_sunabwfvcqqidycwypa.jpg,,,,,,,>,Face,,,,,1,,,,,,,x
110,0,Memory,2,,,,,,,00982960627fa.jpg,,,,,,,,,,,,,,,
111,0,Memory,2,,,,,,,sunabbafjowbzcvbucc.jpg,,,,,,,,,,,,,,,
112,0,Memory,2,,,,,,,01009960627fa.jpg,,,,,,,,,,,,,,,
113,0,Memory,2,,,,,,,sunbxzweleltykebgan.jpg,,,,,,,,,,,,,,,
114,0,Memory,2,,,,,,,00214940128fa.jpg,,,,,,,,,,,,,,,
115,0,Memory,2,,,,,,,sunbpflsdaxnddnwcqi.jpg,,,,,,,,,,,,,,,
116,0,Memory,2,,,,,,,sunacycdoztxoluxjyk.jpg,,,,,,,,,,,,,,,
117,0,Memory,2,,,,,,,sunawksfbacycuhbrsc.jpg,,,,,,,,,,,,,,,
118,0,Memory,2,,,,,,,sunbprywzqxjcezkbch.jpg,,,,,,,,,,,,,,,
119,0,Memory,2,,,,,,,sunadpnqovzckyikrjo.jpg,,,,,,,,,,,,,,,
120,0,Memory,2,,,,,,,00263940128fb.jpg,,,,,,,,,,,,,,,
121,0,Memory,2,,,,,,,00957960627fa.jpg,,,,,,,,,,,,,,,
122,0,Memory,2,,,,,,,sunabwfvcqqidycwypa.jpg,,,,,,,,,,,,,,,
123,0,Memory,2,,,,,,,sunabxsuqbleluwczoy.jpg,,,,,,,,,,,,,,,
124,0,Memory,2,,,,,,,00481940519fa.jpg,,,,,,,,,,,,,,,
125,0,Memory,2,,,,,,,00609940928fa.jpg,,,,,,,,,,,,,,,
126,0,Memory,2,,,,,,,00993960627fa.jpg,,,,,,,,,,,,,,,
127,0,Memory,2,,,,,,,00133931230fa.jpg,,,,,,,,,,,,,,,
128,0,Memory,2,,,,,,,sunavhxgmgrqsaptynb.jpg,,,,,,,,,,,,,,,
129,0,Memory,2,,,,,,,00308940422fb.jpg,,,,,,,,,,,,,,,
130,0,Memory,2,,,,,,,sunagjeesomrwjsfqie.jpg,,,,,,,,,,,,,,,
131,0,Memory,2,,,,,,,00676941121fa.jpg,,,,,,,,,,,,,,,
132,0,Memory,2,,,,,,,sunagtjwilqjvxohypn.jpg,,,,,,,,,,,,,,,
133,0,Memory,2,,,,,,,00793941205fa.jpg,,,,,,,,,,,,,,,
134,0,Memory,2,,,,,,,00862940307fa.jpg,,,,,,,,,,,,,,,
135,0,Memory,2,,,,,,,sunaaftlyfudyzuhqzf.jpg,,,,,,,,,,,,,,,
136,0,Memory,2,,,,,,,00990960627fa.jpg,,,,,,,,,,,,,,,
137,0,Memory,2,,,,,,,sunaqsolmfydodnakub.jpg,,,,,,,,,,,,,,,
138,0,Memory,2,,,,,,,sunabjuovqvyfuzvqwt.jpg,,,,,,,,,,,,,,,
139,0,Memory,2,,,,,,,sunaizgnnplsvajzhkc.jpg,,,,,,,,,,,,,,,
140,0,Memory,2,,,,,,,sunagountlxpzkytsmp.jpg,,,,,,,,,,,,,,,
141,0,Memory,2,,,,,,,00937960627fa.jpg,,,,,,,,,,,,,,,
142,0,Memory,2,,,,,,,00788941205fa.jpg,,,,,,,,,,,,,,,
143,0,Memory,2,,,,,,,00960960627fa.jpg,,,,,,,,,,,,,,,
144,0,Memory,2,,,,,,,sunaanlwnpqndclffxt.jpg,,,,,,,,,,,,,,,
145,0,Memory,2,,,,,,,sunagmhildamktmqjss.jpg,,,,,,,,,,,,,,,
146,0,Memory,2,,,,,,,00081941031fa.jpg,,,,,,,,,,,,,,,
147,0,Memory,2,,,,,,,00786941205fa.jpg,,,,,,,,,,,,,,,
148,0,Memory,2,,,,,,,00783941205fa.jpg,,,,,,,,,,,,,,,
149,0,Memory,2,,,,,,,sunbesrwkdsffeogeqq.jpg,,,,,,,,,,,,,,,
150,0,Presentation,3,00080931230fb_sunaafjszryxyavjzln.jpg,00753941201fa_sunafcofuuzebuadceo.jpg,,,,,,,<,Place,,,,,1,,,,,,,o
151,0,Presentation,3,00877960530fa_sunajxpkuhbizeveguy.jpg,00905960530fa_sunanmoqeyprjjjfxjt.jpg,,,,,,,>,Face,,,,,1,,,,,,,x
152,0,Presentation,3,00815941205fa_sunahiphsekjihkafsl.jpg,00290940422fa_sunabqowuarvqqcnipn.jpg,,,,,,,>,Place,,,,,1,,,,,,,x
153,0,Presentation,3,00963960627fa_sunayaepykrqvenaqqy.jpg,00780960530fa_sunagetqixeypsysbpn.jpg,,,,,,,<,Place,,,,,1,,,,,,,o
154,0,Presentation,3,00280940422fb_sunabohxbskznglnrhv.jpg,00819940307fa_sunahqldjibofgsfdgb.jpg,,,,,,,>,Face,,,,,1,,,,,,,o
155,0,Presentation,3,00829940307fa_sunahwgbqkqcrwprgvh.jpg,00554940519fa_sunacfdkbsrughwqwtt.jpg,,,,,,,<,Face,,,,,1,,,,,,,x
156,0,Presentation,3,00723941201fa_sunaedtgwjvvziytspa.jpg,00221940128fa_sunabcfpwlpolnutyju.jpg,,,,,,,>,Place,,,,,1,,,,,,,x
157,0,Presentation,3,00154931230fa_sunaauueuhhvklldjik.jpg,00564941031fa_sunacsaovnjezqwbykf.jpg,,,,,,,<,Place,,,,,0,,,,,,,o
158,0,Presentation,3,00742941201fa_sunaenwuebvlpdmntju.jpg,00902960530fa_sunanaacmmosxrfwmvl.jpg,,,,,,,<,Face,,,,,1,,,,,,,o
159,0,Presentation,3,00090931230fa_sunaahedjlmtqekgyvj.jpg,00895960530fa_sunamczizlzavhzhpay.jpg,,,,,,,>,Face,,,,,1,,,,,,,x
160,0,Memory,3,,,,,,,sunaafjszryxyavjzln.jpg,,,,,,,,,,,,,,,
161,0,Memory,3,,,,,,,sunacbeefkxpymwevpk.jpg,,,,,,,,,,,,,,,
162,0,Memory,3,,,,,,,00804960530fa.jpg,,,,,,,,,,,,,,,
163,0,Memory,3,,,,,,,sunaptrqvaooxfvktvw.jpg,,,,,,,,,,,,,,,
164,0,Memory,3,,,,,,,sunabohxbskznglnrhv.jpg,,,,,,,,,,,,,,,
165,0,Memory,3,,,,,,,00080931230fb.jpg,,,,,,,,,,,,,,,
166,0,Memory,3,,,,,,,sunabeyhmxodahoieyk.jpg,,,,,,,,,,,,,,,
167,0,Memory,3,,,,,,,00819940307fa.jpg,,,,,,,,,,,,,,,
168,0,Memory,3,,,,,,,sunabcfpwlpolnutyju.jpg,,,,,,,,,,,,,,,
169,0,Memory,3,,,,,,,00554940519fa.jpg,,,,,,,,,,,,,,,
170,0,Memory,3,,,,,,,sunaauglwmctnkxyird.jpg,,,,,,,,,,,,,,,
171,0,Memory,3,,,,,,,00090931230fa.jpg,,,,,,,,,,,,,,,
172,0,Memory,3,,,,,,,sunabwmcbaxwioksdgw.jpg,,,,,,,,,,,,,,,
173,0,Memory,3,,,,,,,00909960530.jpg,,,,,,,,,,,,,,,
174,0,Memory,3,,,,,,,sunaauueuhhvklldjik.jpg,,,,,,,,,,,,,,,
175,0,Memory,3,,,,,,,00902960530fa.jpg,,,,,,,,,,,,,,,
176,0,Memory,3,,,,,,,00762941201fa.jpg,,,,,,,,,,,,,,,
177,0,Memory,3,,,,,,,00895960530fa.jpg,,,,,,,,,,,,,,,
178,0,Memory,3,,,,,,,sunaobtizabegtwfwul.jpg,,,,,,,,,,,,,,,
179,0,Memory,3,,,,,,,sunacfdkbsrughwqwtt.jpg,,,,,,,,,,,,,,,
180,0,Memory,3,,,,,,,00976960627fa.jpg,,,,,,,,,,,,,,,
181,0,Memory,3,,,,,,,00529940519fa.jpg,,,,,,,,,,,,,,,
182,0,Memory,3,,,,,,,sunamczizlzavhzhpay.jpg,,,,,,,,,,,,,,,
183,0,Memory,3,,,,,,,00314940422fa.jpg,,,,,,,,,,,,,,,
184,0,Memory,3,,,,,,,00221940128fa.jpg,,,,,,,,,,,,,,,
185,0,Memory,3,,,,,,,sunajxpkuhbizeveguy.jpg,,,,,,,,,,,,,,,
186,0,Memory,3,,,,,,,00784941205fb.jpg,,,,,,,,,,,,,,,
187,0,Memory,3,,,,,,,sunahqldjibofgsfdgb.jpg,,,,,,,,,,,,,,,
188,0,Memory,3,,,,,,,00931960627fa.jpg,,,,,,,,,,,,,,,
189,0,Memory,3,,,,,,,sunagjzcrjvmxzqzljx.jpg,,,,,,,,,,,,,,,
190,0,Memory,3,,,,,,,sunanaacmmosxrfwmvl.jpg,,,,,,,,,,,,,,,
191,0,Memory,3,,,,,,,00154931230fa.jpg,,,,,,,,,,,,,,,
192,0,Memory,3,,,,,,,sunafgzgbisbopcyslr.jpg,,,,,,,,,,,,,,,
193,0,Memory,3,,,,,,,00877960530fa.jpg,,,,,,,,,,,,,,,
194,0,Memory,3,,,,,,,sunagwswhkvnsmuszlz.jpg,,,,,,,,,,,,,,,
195,0,Memory,3,,,,,,,00149931230fa.jpg,,,,,,,,,,,,,,,
196,0,Memory,3,,,,,,,00280940422fb.jpg,,,,,,,,,,,,,,,
197,0,Memory,3,,,,,,,sunaahedjlmtqekgyvj.jpg,,,,,,,,,,,,,,,
198,0,Memory,3,,,,,,,sunbbhqyyzmsxhsbjmp.jpg,,,,,,,,,,,,,,,
199,0,Memory,3,,,,,,,00245940128fa.jpg,,,,,,,,,,,,,,,
200,0,Presentation,4,00773941201fa_sunafvcflzhlqloapyo.jpg,00799941205fa_sunagutjvdvnhxejerz.jpg,,,,,,,<,Face,,,,,1,,,,,,,o
201,0,Presentation,4,00913960530fa_sunaooffzffbhcpirmm.jpg,00835940307fa_sunaijsqpvodplbwxkf.jpg,,,,,,,>,Face,,,,,1,,,,,,,o
202,0,Presentation,4,00288940422fa_sunabppokiyglaxpcha.jpg,00809960620fa_sunahbvlpavurqoxdeq.jpg,,,,,,,<,Face,,,,,1,,,,,,,x
203,0,Presentation,4,00093931230fa_sunaahwnmtqsrhocysw.jpg,00630941031fa_sunadakkdovnuzlycvp.jpg,,,,,,,<,Place,,,,,1,,,,,,,x
204,0,Presentation,4,00979960627fa_sunbdycacjfaujxitbw.jpg,00903960620fa_sunanainkqdvktzoxyl.jpg,,,,,,,>,Place,,,,,1,,,,,,,x
205,0,Presentation,4,00800941205fb_sunagvjurcwdbixvnyi.jpg,00071940128fa_sunaaexpnawiehinlpy.jpg,,,,,,,<,Face,,,,,1,,,,,,,o
206,0,Presentation,4,00955960627fb_sunauburywlkjszngcq.jpg,00705960530fa_sunaduslxfzlbxlllnz.jpg,,,,,,,<,Place,,,,,1,,,,,,,o
207,0,Presentation,4,00985960627fa_sunbgklxeqjhdbyfhhy.jpg,00838940307fa_sunaiozxhxgtfrmoagh.jpg,,,,,,,>,Place,,,,,1,,,,,,,o
208,0,Presentation,4,00292940422fb_sunabrjdpmoedcdjbpo.jpg,00894960620fa_sunalqmfgeadpqsyzpd.jpg,,,,,,,>,Face,,,,,1,,,,,,,o
209,0,Presentation,4,00210940128fb_sunabanoxjtqxamkucc.jpg,00858940307fa_sunaixpqndlwhwjtjek.jpg,,,,,,,>,Place,,,,,1,,,,,,,x
210,0,Memory,4,,,,,,,sunbasypfgzjtomktmu.jpg,,,,,,,,,,,,,,,
211,0,Memory,4,,,,,,,00985960627fa.jpg,,,,,,,,,,,,,,,
212,0,Memory,4,,,,,,,sunahgtbwgsmtqeodwh.jpg,,,,,,,,,,,,,,,
213,0,Memory,4,,,,,,,00809960620fa.jpg,,,,,,,,,,,,,,,
214,0,Memory,4,,,,,,,00812941205fa.jpg,,,,,,,,,,,,,,,
215,0,Memory,4,,,,,,,00800941205fb.jpg,,,,,,,,,,,,,,,
216,0,Memory,4,,,,,,,sunaipyohrqlwngaqif.jpg,,,,,,,,,,,,,,,
217,0,Memory,4,,,,,,,00158931230fb.jpg,,,,,,,,,,,,,,,
218,0,Memory,4,,,,,,,sunabclssnoeuigtawp.jpg,,,,,,,,,,,,,,,
219,0,Memory,4,,,,,,,sunaaexpnawiehinlpy.jpg,,,,,,,,,,,,,,,
220,0,Memory,4,,,,,,,00288940422fa.jpg,,,,,,,,,,,,,,,
221,0,Memory,4,,,,,,,sunagvjurcwdbixvnyi.jpg,,,,,,,,,,,,,,,
222,0,Memory,4,,,,,,,sunadakkdovnuzlycvp.jpg,,,,,,,,,,,,,,,
223,0,Memory,4,,,,,,,00093931230fa.jpg,,,,,,,,,,,,,,,
224,0,Memory,4,,,,,,,sunahbvlpavurqoxdeq.jpg,,,,,,,,,,,,,,,
225,0,Memory,4,,,,,,,00574940928fa.jpg,,,,,,,,,,,,,,,
226,0,Memory,4,,,,,,,00636941031fa.jpg,,,,,,,,,,,,,,,
227,0,Memory,4,,,,,,,sunaeisnjeetzmkbuad.jpg,,,,,,,,,,,,,,,
228,0,Memory,4,,,,,,,00235940128fb.jpg,,,,,,,,,,,,,,,
229,0,Memory,4,,,,,,,sunbgklxeqjhdbyfhhy.jpg,,,,,,,,,,,,,,,
230,0,Memory,4,,,,,,,00773941201fa.jpg,,,,,,,,,,,,,,,
231,0,Memory,4,,,,,,,sunafvcflzhlqloapyo.jpg,,,,,,,,,,,,,,,
232,0,Memory,4,,,,,,,00970960627fa.jpg,,,,,,,,,,,,,,,
233,0,Memory,4,,,,,,,sunacvbrcejzwmcgnoq.jpg,,,,,,,,,,,,,,,
234,0,Memory,4,,,,,,,00835940307fa.jpg,,,,,,,,,,,,,,,
235,0,Memory,4,,,,,,,sunagpancjmxqfazssf.jpg,,,,,,,,,,,,,,,
236,0,Memory,4,,,,,,,00839940307fa.jpg,,,,,,,,,,,,,,,
237,0,Memory,4,,,,,,,00630941031fa.jpg,,,,,,,,,,,,,,,
238,0,Memory,4,,,,,,,00727941205fa.jpg,,,,,,,,,,,,,,,
239,0,Memory,4,,,,,,,sunabppokiyglaxpcha.jpg,,,,,,,,,,,,,,,
240,0,Memory,4,,,,,,,sunaavchcbptaerhcfy.jpg,,,,,,,,,,,,,,,
241,0,Memory,4,,,,,,,00894960620fa.jpg,,,,,,,,,,,,,,,
242,0,Memory,4,,,,,,,00789960620fa.jpg,,,,,,,,,,,,,,,
243,0,Memory,4,,,,,,,sunalqmfgeadpqsyzpd.jpg,,,,,,,,,,,,,,,
244,0,Memory,4,,,,,,,sunaahwnmtqsrhocysw.jpg,,,,,,,,,,,,,,,
245,0,Memory,4,,,,,,,sunaijsqpvodplbwxkf.jpg,,,,,,,,,,,,,,,
246,0,Memory,4,,,,,,,00071940128fa.jpg,,,,,,,,,,,,,,,
247,0,Memory,4,,,,,,,00919960620fa.jpg,,,,,,,,,,,,,,,
248,0,Memory,4,,,,,,,sunaddtdkycxbqlpfqa.jpg,,,,,,,,,,,,,,,
249,0,Memory,4,,,,,,,sunapmfmzadmosuogaz.jpg,,,,,,,,,,,,,,,
250,0,Presentation,5,00959960627fa_sunavxokzybtomhbmvm.jpg,00694941121fa_sunadrmfzmstgdjdcod.jpg,,,,,,,<,Face,,,,,1,,,,,,,o
251,0,Presentation,5,00938960627fa_sunaqyylsngywqzwfmx.jpg,01007960627fa_sunbxarcshsnqsefemx.jpg,,,,,,,<,Place,,,,,1,,,,,,,x
252,0,Presentation,5,00792941205fa_sunagsiwrmuixqgdimb.jpg,01207940128fa_sundbixjudsgeuuehrn.jpg,,,,,,,>,Place,,,,,0,,,,,,,x
253,0,Presentation,5,00947960627fa_sunasmmcxdddtmtazwx.jpg,00681941121fa_sunadqmjrhfjyuzyvdd.jpg,,,,,,,<,Face,,,,,1,,,,,,,o
254,0,Presentation,5,00885960530fa_sunakwlvxjpddialozd.jpg,00564940928fa_sunacmpqqfbsvlzinzl.jpg,,,,,,,>,Place,,,,,1,,,,,,,x
255,0,Presentation,5,00061931230fb_sunaaekxzjzrfgtkwjf.jpg,00771941205fa_sunafowswglhxcsufpo.jpg,,,,,,,>,Face,,,,,0,,,,,,,o
256,0,Presentation,5,00239940128fa_sunabctlikybqabezjv.jpg,00102931230fa_sunaajspcoepticvplv.jpg,,,,,,,<,Face,,,,,1,,,,,,,o
257,0,Presentation,5,00811960530fa_sunahedfrhtcwpneund.jpg,00568940928fa_sunacsdhbbsybcyxnel.jpg,,,,,,,>,Place,,,,,1,,,,,,,x
258,0,Presentation,5,00191940128fb_sunaawsdjisukbbginm.jpg,00825940307fa_sunahrltmuwbiehihpe.jpg,,,,,,,<,Place,,,,,0,,,,,,,o
259,0,Presentation,5,00847940307fa_sunaivdjruhkrfywfed.jpg,00705941205fa_sunadtlxenqqxsyjvix.jpg,,,,,,,>,Face,,,,,1,,,,,,,x
260,0,Memory,5,,,,,,,00825940307fa.jpg,,,,,,,,,,,,,,,
261,0,Memory,5,,,,,,,01007960627fa.jpg,,,,,,,,,,,,,,,
262,0,Memory,5,,,,,,,sunarpsxqkduedrrzyi.jpg,,,,,,,,,,,,,,,
263,0,Memory,5,,,,,,,sunasmmcxdddtmtazwx.jpg,,,,,,,,,,,,,,,
264,0,Memory,5,,,,,,,00564940928fa.jpg,,,,,,,,,,,,,,,
265,0,Memory,5,,,,,,,00270940422fb.jpg,,,,,,,,,,,,,,,
266,0,Memory,5,,,,,,,00947960627fa.jpg,,,,,,,,,,,,,,,
267,0,Memory,5,,,,,,,sunaajspcoepticvplv.jpg,,,,,,,,,,,,,,,
268,0,Memory,5,,,,,,,00725941201fa.jpg,,,,,,,,,,,,,,,
269,0,Memory,5,,,,,,,sunbxarcshsnqsefemx.jpg,,,,,,,,,,,,,,,
270,0,Memory,5,,,,,,,sunaefgzwiramypjvtd.jpg,,,,,,,,,,,,,,,
271,0,Memory,5,,,,,,,00140931230fb.jpg,,,,,,,,,,,,,,,
272,0,Memory,5,,,,,,,sunacmpqqfbsvlzinzl.jpg,,,,,,,,,,,,,,,
273,0,Memory,5,,,,,,,sunaaekxzjzrfgtkwjf.jpg,,,,,,,,,,,,,,,
274,0,Memory,5,,,,,,,sunaqyylsngywqzwfmx.jpg,,,,,,,,,,,,,,,
275,0,Memory,5,,,,,,,sunbgzjryivyczuvkvm.jpg,,,,,,,,,,,,,,,
276,0,Memory,5,,,,,,,sunagsiwrmuixqgdimb.jpg,,,,,,,,,,,,,,,
277,0,Memory,5,,,,,,,00061931230fb.jpg,,,,,,,,,,,,,,,
278,0,Memory,5,,,,,,,00996960627fa.jpg,,,,,,,,,,,,,,,
279,0,Memory,5,,,,,,,00792941205fa.jpg,,,,,,,,,,,,,,,
280,0,Memory,5,,,,,,,00968960627fa.jpg,,,,,,,,,,,,,,,
281,0,Memory,5,,,,,,,00082931230fa.jpg,,,,,,,,,,,,,,,
282,0,Memory,5,,,,,,,00102931230fa.jpg,,,,,,,,,,,,,,,
283,0,Memory,5,,,,,,,sunabllobxadqcyttej.jpg,,,,,,,,,,,,,,,
284,0,Memory,5,,,,,,,sunaawsdjisukbbginm.jpg,,,,,,,,,,,,,,,
285,0,Memory,5,,,,,,,00694941121fa.jpg,,,,,,,,,,,,,,,
286,0,Memory,5,,,,,,,sunaafvitpexrpvumsa.jpg,,,,,,,,,,,,,,,
287,0,Memory,5,,,,,,,00938960627fa.jpg,,,,,,,,,,,,,,,
288,0,Memory,5,,,,,,,sunahrltmuwbiehihpe.jpg,,,,,,,,,,,,,,,
289,0,Memory,5,,,,,,,00834940307fa.jpg,,,,,,,,,,,,,,,
290,0,Memory,5,,,,,,,00943960627fa.jpg,,,,,,,,,,,,,,,
291,0,Memory,5,,,,,,,00730960620fa.jpg,,,,,,,,,,,,,,,
292,0,Memory,5,,,,,,,sunadrmfzmstgdjdcod.jpg,,,,,,,,,,,,,,,
293,0,Memory,5,,,,,,,sunbpvgllfdejxcpjqp.jpg,,,,,,,,,,,,,,,
294,0,Memory,5,,,,,,,sunaekgzpfilgjxpeyq.jpg,,,,,,,,,,,,,,,
295,0,Memory,5,,,,,,,00986960627fa.jpg,,,,,,,,,,,,,,,
296,0,Memory,5,,,,,,,sunaibnpvhkdpdnzcnz.jpg,,,,,,,,,,,,,,,
297,0,Memory,5,,,,,,,sunbagfpovqwbuexqdn.jpg,,,,,,,,,,,,,,,
298,0,Memory,5,,,,,,,sunaapllqyqlykszopd.jpg,,,,,,,,,,,,,,,
299,0,Memory,5,,,,,,,00191940128fb.jpg,,,,,,,,,,,,,,,
300,0,Presentation,6,00153931230fa_sunaauhozyxzeeqstxi.jpg,00779941205fa_sunagdzlvkqtpnfxfcg.jpg,,,,,,,>,Face,,,,,1,,,,,,,o
301,0,Presentation,6,00163931230fb_sunaavodbcpygkggnfp.jpg,00816941205fa_sunahmhrncocyhsjpxk.jpg,,,,,,,<,Place,,,,,1,,,,,,,o
302,0,Presentation,6,00540940519fa_sunacdnquypmsshhsbk.jpg,00969960627fa_sunbaoizrfijvhpnnjn.jpg,,,,,,,>,Face,,,,,1,,,,,,,x
303,0,Presentation,6,00302940422fa_sunabtlfmiwtljmoues.jpg,00988960627fa_sunbmaiocftdtvnzgap.jpg,,,,,,,<,Face,,,,,1,,,,,,,x
304,0,Presentation,6,00749941201fa_sunaeuvjbmdpknaqqaj.jpg,00069931230fb_sunaaeowapdkwzqpgqr.jpg,,,,,,,>,Place,,,,,1,,,,,,,o
305,0,Presentation,6,00860940307fa_sunaizeyhvjzknwjudw.jpg,00109931230fa_sunaajuzribjrizdshh.jpg,,,,,,,<,Place,,,,,1,,,,,,,x
306,0,Presentation,6,00097931230fa_sunaajayojuslbbnneg.jpg,00631940928fa_sunadbdqzigzwipuipr.jpg,,,,,,,>,Face,,,,,1,,,,,,,o
307,0,Presentation,6,00869940307fa_sunajoveqhiprwqgoco.jpg,00635941031fa_sunaddsaeicthrfbkhe.jpg,,,,,,,<,Face,,,,,1,,,,,,,o
308,0,Presentation,6,00911960530fa_sunaooaqzputrowwbsw.jpg,00185940422fb_sunaawqdbpihmlbwyyn.jpg,,,,,,,<,Place,,,,,1,,,,,,,x
309,0,Presentation,6,00836940307fa_sunainqelldeebvxtcz.jpg,00532960627fa_sunaccdtpgenvcbcbcf.jpg,,,,,,,>,Place,,,,,0,,,,,,,x
310,0,Memory,6,,,,,,,sunahpblecxtmuzkmxb.jpg,,,,,,,,,,,,,,,
311,0,Memory,6,,,,,,,00631940928fa.jpg,,,,,,,,,,,,,,,
312,0,Memory,6,,,,,,,sunaffgsyyvoqdlkmnk.jpg,,,,,,,,,,,,,,,
313,0,Memory,6,,,,,,,sunaooaqzputrowwbsw.jpg,,,,,,,,,,,,,,,
314,0,Memory,6,,,,,,,00540940519fa.jpg,,,,,,,,,,,,,,,
315,0,Memory,6,,,,,,,00818940307fa.jpg,,,,,,,,,,,,,,,
316,0,Memory,6,,,,,,,sunadbdqzigzwipuipr.jpg,,,,,,,,,,,,,,,
317,0,Memory,6,,,,,,,00163931230fb.jpg,,,,,,,,,,,,,,,
318,0,Memory,6,,,,,,,00130931230fa.jpg,,,,,,,,,,,,,,,
319,0,Memory,6,,,,,,,sunagdzlvkqtpnfxfcg.jpg,,,,,,,,,,,,,,,
320,0,Memory,6,,,,,,,00779941205fa.jpg,,,,,,,,,,,,,,,
321,0,Memory,6,,,,,,,00142931230fb.jpg,,,,,,,,,,,,,,,
322,0,Memory,6,,,,,,,sunainqelldeebvxtcz.jpg,,,,,,,,,,,,,,,
323,0,Memory,6,,,,,,,00754941201fa.jpg,,,,,,,,,,,,,,,
324,0,Memory,6,,,,,,,00836940307fa.jpg,,,,,,,,,,,,,,,
325,0,Memory,6,,,,,,,00911960530fa.jpg,,,,,,,,,,,,,,,
326,0,Memory,6,,,,,,,sunaavodbcpygkggnfp.jpg,,,,,,,,,,,,,,,
327,0,Memory,6,,,,,,,00816941205fa.jpg,,,,,,,,,,,,,,,
328,0,Memory,6,,,,,,,sunajrujcsdxmfbssmc.jpg,,,,,,,,,,,,,,,
329,0,Memory,6,,,,,,,sunacwggadqsfpovdjv.jpg,,,,,,,,,,,,,,,
330,0,Memory,6,,,,,,,sunahmhrncocyhsjpxk.jpg,,,,,,,,,,,,,,,
331,0,Memory,6,,,,,,,sunadvithllcgmfxsrn.jpg,,,,,,,,,,,,,,,
332,0,Memory,6,,,,,,,00562941031fa.jpg,,,,,,,,,,,,,,,
333,0,Memory,6,,,,,,,sunaizeyhvjzknwjudw.jpg,,,,,,,,,,,,,,,
334,0,Memory,6,,,,,,,sunacjnahdmqfnjfwqx.jpg,,,,,,,,,,,,,,,
335,0,Memory,6,,,,,,,00185940422fb.jpg,,,,,,,,,,,,,,,
336,0,Memory,6,,,,,,,sunaawqdbpihmlbwyyn.jpg,,,,,,,,,,,,,,,
337,0,Memory,6,,,,,,,00860940307fa.jpg,,,,,,,,,,,,,,,
338,0,Memory,6,,,,,,,00871940307.jpg,,,,,,,,,,,,,,,
339,0,Memory,6,,,,,,,sunaccdtpgenvcbcbcf.jpg,,,,,,,,,,,,,,,
340,0,Memory,6,,,,,,,00719941201fa.jpg,,,,,,,,,,,,,,,
341,0,Memory,6,,,,,,,sunaamvxnvouicstkjb.jpg,,,,,,,,,,,,,,,
342,0,Memory,6,,,,,,,00589940928fa.jpg,,,,,,,,,,,,,,,
343,0,Memory,6,,,,,,,sunacdnquypmsshhsbk.jpg,,,,,,,,,,,,,,,
344,0,Memory,6,,,,,,,00910960530fa.jpg,,,,,,,,,,,,,,,
345,0,Memory,6,,,,,,,00791941205fa.jpg,,,,,,,,,,,,,,,
346,0,Memory,6,,,,,,,sunagrmyoovzukhxmlo.jpg,,,,,,,,,,,,,,,
347,0,Memory,6,,,,,,,sunaofikylqtxphvdem.jpg,,,,,,,,,,,,,,,
348,0,Memory,6,,,,,,,sunaapxkpvrhpjplsok.jpg,,,,,,,,,,,,,,,
349,0,Memory,6,,,,,,,00532960627fa.jpg,,,,,,,,,,,,,,,
350,0,Presentation,7,00076931230fa_sunaafewhewbxmjiurz.jpg,00933960627fa_sunapwjkcxdaeqehfql.jpg,,,,,,,<,Place,,,,,1,,,,,,,o
351,0,Presentation,7,00944960627fa_sunasbbntuiheekqyaq.jpg,00999960627fa_sunbvbrvgbpanfrawft.jpg,,,,,,,>,Face,,,,,1,,,,,,,x
352,0,Presentation,7,00760960620fa_sunaffstbkappprzxnv.jpg,00127931230fa_sunaampvucecsfbdafn.jpg,,,,,,,>,Place,,,,,1,,,,,,,x
353,0,Presentation,7,00070940307fa_sunaaeplwsfslcbtojr.jpg,00967960627fa_sunbaejotfklekvpxcz.jpg,,,,,,,<,Place,,,,,1,,,,,,,o
354,0,Presentation,7,00571940928fa_sunacuatpqpqhyjhjqk.jpg,00761960627fa_sunafgdqbclkwfocdhg.jpg,,,,,,,<,Face,,,,,1,,,,,,,x
355,0,Presentation,7,00870940307fa_sunajrgtewnualfcerj.jpg,00507940519fa_sunacacflqoyxhsqzhe.jpg,,,,,,,>,Face,,,,,1,,,,,,,x
356,0,Presentation,7,00906960530fa_sunantryfbloeaomfta.jpg,00129931230fb_sunaamsdyakblkfoydx.jpg,,,,,,,>,Place,,,,,1,,,,,,,o
357,0,Presentation,7,00122931230fa_sunaakxjfbrrequcjmx.jpg,00218940128fa_sunabbwggenhfbftyvi.jpg,,,,,,,<,Face,,,,,1,,,,,,,x
358,0,Presentation,7,00198940128fb_sunaazezcsunmhttzxz.jpg,00184940128fa_sunaavtbadenwnzeutj.jpg,,,,,,,>,Face,,,,,1,,,,,,,x
359,0,Presentation,7,00778941205fa_sunagcthdfirrcawoic.jpg,00876960620fa_sunajwqkfsykceonyig.jpg,,,,,,,<,Place,,,,,1,,,,,,,x
360,0,Memory,7,,,,,,,sunantryfbloeaomfta.jpg,,,,,,,,,,,,,,,
361,0,Memory,7,,,,,,,sunafkmnlytenlsywia.jpg,,,,,,,,,,,,,,,
362,0,Memory,7,,,,,,,00218940128fa.jpg,,,,,,,,,,,,,,,
363,0,Memory,7,,,,,,,sunaffstbkappprzxnv.jpg,,,,,,,,,,,,,,,
364,0,Memory,7,,,,,,,00773960620fa.jpg,,,,,,,,,,,,,,,
365,0,Memory,7,,,,,,,sunaavtbadenwnzeutj.jpg,,,,,,,,,,,,,,,
366,0,Memory,7,,,,,,,00571940928fa.jpg,,,,,,,,,,,,,,,
367,0,Memory,7,,,,,,,00768941205fa.jpg,,,,,,,,,,,,,,,
368,0,Memory,7,,,,,,,sunaamsdyakblkfoydx.jpg,,,,,,,,,,,,,,,
369,0,Memory,7,,,,,,,sunaafynehyrzpsoaml.jpg,,,,,,,,,,,,,,,
370,0,Memory,7,,,,,,,01005960627fa.jpg,,,,,,,,,,,,,,,
371,0,Memory,7,,,,,,,sunagcthdfirrcawoic.jpg,,,,,,,,,,,,,,,
372,0,Memory,7,,,,,,,00086931230fa.jpg,,,,,,,,,,,,,,,
373,0,Memory,7,,,,,,,sunabbwggenhfbftyvi.jpg,,,,,,,,,,,,,,,
374,0,Memory,7,,,,,,,sunaanptmsknhirrzed.jpg,,,,,,,,,,,,,,,
375,0,Memory,7,,,,,,,sunbwyuesflwdpqtgoy.jpg,,,,,,,,,,,,,,,
376,0,Memory,7,,,,,,,sunajwqkfsykceonyig.jpg,,,,,,,,,,,,,,,
377,0,Memory,7,,,,,,,sunaazezcsunmhttzxz.jpg,,,,,,,,,,,,,,,
378,0,Memory,7,,,,,,,sunapwjkcxdaeqehfql.jpg,,,,,,,,,,,,,,,
379,0,Memory,7,,,,,,,00906960530fa.jpg,,,,,,,,,,,,,,,
380,0,Memory,7,,,,,,,00242940128fa.jpg,,,,,,,,,,,,,,,
381,0,Memory,7,,,,,,,00184940128fa.jpg,,,,,,,,,,,,,,,
382,0,Memory,7,,,,,,,00198940128fb.jpg,,,,,,,,,,,,,,,
383,0,Memory,7,,,,,,,00062931230fb.jpg,,,,,,,,,,,,,,,
384,0,Memory,7,,,,,,,sunasrjlmglmjzbmqxb.jpg,,,,,,,,,,,,,,,
385,0,Memory,7,,,,,,,00129931230fb.jpg,,,,,,,,,,,,,,,
386,0,Memory,7,,,,,,,00778941205fa.jpg,,,,,,,,,,,,,,,
387,0,Memory,7,,,,,,,00787960620fa.jpg,,,,,,,,,,,,,,,
388,0,Memory,7,,,,,,,sunabcuurugvxwparpk.jpg,,,,,,,,,,,,,,,
389,0,Memory,7,,,,,,,00977960627fa.jpg,,,,,,,,,,,,,,,
390,0,Memory,7,,,,,,,sunacuatpqpqhyjhjqk.jpg,,,,,,,,,,,,,,,
391,0,Memory,7,,,,,,,sunbbxkanhzjgbwyxqs.jpg,,,,,,,,,,,,,,,
392,0,Memory,7,,,,,,,sunafvsxtzaizojicxx.jpg,,,,,,,,,,,,,,,
393,0,Memory,7,,,,,,,00950960627fa.jpg,,,,,,,,,,,,,,,
394,0,Memory,7,,,,,,,00876960620fa.jpg,,,,,,,,,,,,,,,
395,0,Memory,7,,,,,,,00933960627fa.jpg,,,,,,,,,,,,,,,
396,0,Memory,7,,,,,,,sunagoufulkpsxrmklt.jpg,,,,,,,,,,,,,,,
397,0,Memory,7,,,,,,,00136931230fb.jpg,,,,,,,,,,,,,,,
398,0,Memory,7,,,,,,,sunaaelotvjgibjtjhs.jpg,,,,,,,,,,,,,,,
399,0,Memory,7,,,,,,,00760960620fa.jpg,,,,,,,,,,,,,,,
