,Subject,Trial Type,Run,Cued Composite,Uncued Composite,Cued Face,Cued Place,Uncued Face,Uncued Place,Memory Image,Category,Cued Side,Cued Category,Attention Reaction Time (s),Familiarity Reaction Time (s),Familiarity Rating,Attention Level,Cue Validity,Post Invalid Cue,Pre Invalid Cue,Attention Button,Rating History,Stimulus Onset,Stimulus End,Attention Probe
360,0,Memory,7,,,,,,,00063931230fa.jpg,,,,,0.72,1.0,,,,,,,1537894924.276093,1537894926.87678,
361,0,Memory,7,,,,,,,sunagjeesomrwjsfqie.jpg,,,,,1.002,1.0,,,,,,,1537894928.260107,1537894930.644755,
362,0,Memory,7,,,,,,,sunahbvlpavurqoxdeq.jpg,,,,,0.754,2.0,,,,,,,1537894932.011838,1537894934.496152,
363,0,Memory,7,,,,,,,sunahwgbqkqcrwprgvh.jpg,,,,,0.638,1.0,,,,,,,1537894936.146211,1537894938.664097,
364,0,Memory,7,,,,,,,00543940519fa.jpg,,,,,0.769,2.0,,,,,,,1537894939.997741,1537894942.481812,
365,0,Memory,7,,,,,,,00829940307fa.jpg,,,,,0.702,1.0,,,,,,,1537894943.932413,1537894946.399849,
366,0,Memory,7,,,,,,,00647941031fa.jpg,,,,,0.503,2.0,,,,,,,1537894947.766736,1537894950.168454,
367,0,Memory,7,,,,,,,sunahedfrhtcwpneund.jpg,,,,,0.453,2.0,,,,,,,1537894951.551967,1537894953.935439,
368,0,Memory,7,,,,,,,sunaaftlyfudyzuhqzf.jpg,,,,,0.503,3.0,,,,,,,1537894955.402917,1537894957.702349,
369,0,Memory,7,,,,,,,sunayaepykrqvenaqqy.jpg,,,,,0.304,2.0,,,,,,,1537894959.103758,1537894961.370316,
370,0,Memory,7,,,,,,,00193940928fa.jpg,,,,,0.736,1.0,,,,,,,1537894962.755389,1537894965.071942,
371,0,Memory,7,,,,,,,00153931230fa.jpg,,,,,0.771,2.0,,,,,,,1537894966.489172,1537894968.907253,
372,0,Memory,7,,,,,,,00742941201fa.jpg,,,,,0.487,2.0,,,,,,,1537894970.325236,1537894972.757543,
373,0,Memory,7,,,,,,,00963960627fa.jpg,,,,,0.436,2.0,,,,,,,1537894974.159379,1537894976.475799,
374,0,Memory,7,,,,,,,00762941201fa.jpg,,,,,0.455,2.0,,,,,,,1537894977.810366,1537894980.244645,
375,0,Memory,7,,,,,,,00670941121fa.jpg,,,,,0.353,2.0,,,,,,,1537894981.628623,1537894984.0453,
376,0,Memory,7,,,,,,,00783941205fa.jpg,,,,,0.836,1.0,,,,,,,1537894985.396277,1537894987.779894,
377,0,Memory,7,,,,,,,00777941205fa.jpg,,,,,0.386,2.0,,,,,,,1537894989.130458,1537894991.41441,
378,0,Memory,7,,,,,,,sunacxtcahkymosigud.jpg,,,,,0.505,1.0,,,,,,,1537894992.848531,1537894995.316375,
379,0,Memory,7,,,,,,,00809960620fa.jpg,,,,,0.536,2.0,,,,,,,1537894996.766564,1537894999.317026,
380,0,Memory,7,,,,,,,sunacepzfrmtkiqonpy.jpg,,,,,0.503,1.0,,,,,,,1537895000.718035,1537895003.235157,
381,0,Memory,7,,,,,,,00768941205fa.jpg,,,,,0.62,2.0,,,,,,,1537895004.6189,1537895007.002166,
382,0,Memory,7,,,,,,,00081941031fa.jpg,,,,,0.655,2.0,,,,,,,1537895008.535988,1537895010.936606,
383,0,Memory,7,,,,,,,sunabeyhmxodahoieyk.jpg,,,,,0.57,1.0,,,,,,,1537895012.337779,1537895014.572207,
384,0,Memory,7,,,,,,,sunaaxjpzcnxligjtjq.jpg,,,,,0.552,2.0,,,,,,,1537895015.95581,1537895018.305521,
385,0,Memory,7,,,,,,,sunaakvmbftkrgqhjun.jpg,,,,,0.519,1.0,,,,,,,1537895019.740445,1537895022.175094,
386,0,Memory,7,,,,,,,00811960530fa.jpg,,,,,0.569,1.0,,,,,,,1537895023.540434,1537895025.876094,
387,0,Memory,7,,,,,,,sunaaelyvurpntclgau.jpg,,,,,0.421,2.0,,,,,,,1537895027.22635,1537895029.561211,
388,0,Memory,7,,,,,,,sunafkmnlytenlsywia.jpg,,,,,0.403,2.0,,,,,,,1537895031.010985,1537895033.410891,
389,0,Memory,7,,,,,,,sunadflbrkckmepztql.jpg,,,,,0.503,2.0,,,,,,,1537895034.77965,1537895037.279736,
390,0,Memory,7,,,,,,,00598941031fa.jpg,,,,,0.32,1.0,,,,,,,1537895038.696778,1537895041.164729,
391,0,Memory,7,,,,,,,sunaqgjuuwvdcyiccjt.jpg,,,,,1.17,1.0,,,,,,,1537895042.630454,1537895044.982151,
392,0,Memory,7,,,,,,,00245940128fa.jpg,,,,,0.368,2.0,,,,,,,1537895046.365307,1537895048.699216,
393,0,Memory,7,,,,,,,sunafgzgbisbopcyslr.jpg,,,,,0.352,1.0,,,,,,,1537895050.117344,1537895052.501773,
394,0,Memory,7,,,,,,,sunaenwuebvlpdmntju.jpg,,,,,0.401,2.0,,,,,,,1537895053.903129,1537895056.302539,
395,0,Memory,7,,,,,,,sunadochqcucscehsgk.jpg,,,,,0.372,1.0,,,,,,,1537895057.736703,1537895060.203845,
396,0,Memory,7,,,,,,,sunaauhozyxzeeqstxi.jpg,,,,,0.468,2.0,,,,,,,1537895061.654333,1537895064.00525,
397,0,Memory,7,,,,,,,sunagcinxkccdtrjmlv.jpg,,,,,0.454,2.0,,,,,,,1537895065.455403,1537895067.855666,
398,0,Memory,7,,,,,,,00936960627fa.jpg,,,,,0.786,2.0,,,,,,,1537895069.3067,1537895071.707004,
399,0,Memory,7,,,,,,,00119931230fb.jpg,,,,,0.405,2.0,,,,,,,1537895073.140823,1537895075.458842,
