,Subject,Trial Type,Run,Cued Composite,Uncued Composite,Cued Face,Cued Place,Uncued Face,Uncued Place,Memory Image,Category,Cued Side,Cued Category,Attention Response Time (s),Familiarity Reaction Time (s),Familiarity Rating,Attention Level,Cue Validity,Post Invalid Cue,Pre Invalid Cue,Attention Button,Rating History,Stimulus Onset,Stimulus End,Attention Probe
0,hungry,Presentation,0,00911960530fa_sunaooaqzputrowwbsw.jpg,00803941205fa_sunagvxkjokqimstxpe.jpg,,,,,,,>,Face,,,,,1,,,,,,,x
1,hungry,Presentation,0,00796941205fa_sunaguchqqnrtodtezq.jpg,00960960627fa_sunawksfbacycuhbrsc.jpg,,,,,,,>,Place,,,,,1,,,,,,,o
2,hungry,Presentation,0,00635941031fa_sunaddsaeicthrfbkhe.jpg,00919960620fa_sunapmfmzadmosuogaz.jpg,,,,,,,<,Face,,,,,1,,,,,,,x
3,hungry,Presentation,0,00210940128fb_sunabanoxjtqxamkucc.jpg,00815941205fa_sunahiphsekjihkafsl.jpg,,,,,,,>,Place,,,,,1,,,,,,,x
4,hungry,Presentation,0,00149931230fa_sunaauglwmctnkxyird.jpg,00153931230fa_sunaauhozyxzeeqstxi.jpg,,,,,,,<,Place,,,,,0,,,,,,,x
5,hungry,Presentation,0,00891960530fa_sunalkiibhqpxfamlll.jpg,00267940128fb_sunablfqiwfqomjarht.jpg,,,,,,,>,Place,,,,,1,,,,,,,x
6,hungry,Presentation,0,00065931230fb_sunaaemixhfquhnxxlm.jpg,00773960620fa_sunafvsxtzaizojicxx.jpg,,,,,,,<,Face,,,,,1,,,,,,,o
7,hungry,Presentation,0,00913960530fa_sunaooffzffbhcpirmm.jpg,00730960620fa_sunaekgzpfilgjxpeyq.jpg,,,,,,,>,Face,,,,,1,,,,,,,o
8,hungry,Presentation,0,00825940307fa_sunahrltmuwbiehihpe.jpg,00296940422fa_sunabrwnslxalcohfre.jpg,,,,,,,<,Place,,,,,1,,,,,,,x
9,hungry,Presentation,0,00915960620fa_sunapileznnbbmrwoei.jpg,00302940422fa_sunabtlfmiwtljmoues.jpg,,,,,,,<,Face,,,,,1,,,,,,,o
10,hungry,Memory,0,,,,,,,00815941205fa.jpg,,,,,,,,,,,,,,,
11,hungry,Memory,0,,,,,,,00913960530fa.jpg,,,,,,,,,,,,,,,
12,hungry,Memory,0,,,,,,,00891960530fa.jpg,,,,,,,,,,,,,,,
13,hungry,Memory,0,,,,,,,sunadzuvtmtmgupotmf.jpg,,,,,,,,,,,,,,,
14,hungry,Memory,0,,,,,,,00919960620fa.jpg,,,,,,,,,,,,,,,
15,hungry,Memory,0,,,,,,,00296940422fa.jpg,,,,,,,,,,,,,,,
16,hungry,Memory,0,,,,,,,sunaaemixhfquhnxxlm.jpg,,,,,,,,,,,,,,,
17,hungry,Memory,0,,,,,,,sunaguchqqnrtodtezq.jpg,,,,,,,,,,,,,,,
18,hungry,Memory,0,,,,,,,00065931230fb.jpg,,,,,,,,,,,,,,,
19,hungry,Memory,0,,,,,,,sunaetydippjxikifsb.jpg,,,,,,,,,,,,,,,
20,hungry,Memory,0,,,,,,,00598941031fa.jpg,,,,,,,,,,,,,,,
21,hungry,Memory,0,,,,,,,00796941205fa.jpg,,,,,,,,,,,,,,,
22,hungry,Memory,0,,,,,,,00162931230fb.jpg,,,,,,,,,,,,,,,
23,hungry,Memory,0,,,,,,,sunacxtcahkymosigud.jpg,,,,,,,,,,,,,,,
24,hungry,Memory,0,,,,,,,00828940307fa.jpg,,,,,,,,,,,,,,,
25,hungry,Memory,0,,,,,,,sunaizgnnplsvajzhkc.jpg,,,,,,,,,,,,,,,
26,hungry,Memory,0,,,,,,,sunaahzooisqkwlxwoz.jpg,,,,,,,,,,,,,,,
27,hungry,Memory,0,,,,,,,sunahiphsekjihkafsl.jpg,,,,,,,,,,,,,,,
28,hungry,Memory,0,,,,,,,sunabrwnslxalcohfre.jpg,,,,,,,,,,,,,,,
29,hungry,Memory,0,,,,,,,00153931230fa.jpg,,,,,,,,,,,,,,,
30,hungry,Memory,0,,,,,,,sunaekgzpfilgjxpeyq.jpg,,,,,,,,,,,,,,,
31,hungry,Memory,0,,,,,,,sunbbfqwjpdxniyhies.jpg,,,,,,,,,,,,,,,
32,hungry,Memory,0,,,,,,,sunaauhozyxzeeqstxi.jpg,,,,,,,,,,,,,,,
33,hungry,Memory,0,,,,,,,00730960620fa.jpg,,,,,,,,,,,,,,,
34,hungry,Memory,0,,,,,,,sunahuynahneraqftyz.jpg,,,,,,,,,,,,,,,
35,hungry,Memory,0,,,,,,,sunalkiibhqpxfamlll.jpg,,,,,,,,,,,,,,,
36,hungry,Memory,0,,,,,,,00911960530fa.jpg,,,,,,,,,,,,,,,
37,hungry,Memory,0,,,,,,,sunagvprlbprarvgdvj.jpg,,,,,,,,,,,,,,,
38,hungry,Memory,0,,,,,,,sunapmfmzadmosuogaz.jpg,,,,,,,,,,,,,,,
39,hungry,Memory,0,,,,,,,00801941205fa.jpg,,,,,,,,,,,,,,,
40,hungry,Memory,0,,,,,,,sunaatjesvdupctftmn.jpg,,,,,,,,,,,,,,,
41,hungry,Memory,0,,,,,,,sunaooaqzputrowwbsw.jpg,,,,,,,,,,,,,,,
42,hungry,Memory,0,,,,,,,00972960627fa.jpg,,,,,,,,,,,,,,,
43,hungry,Memory,0,,,,,,,00719960620fa.jpg,,,,,,,,,,,,,,,
44,hungry,Memory,0,,,,,,,00862940307fa.jpg,,,,,,,,,,,,,,,
45,hungry,Memory,0,,,,,,,00095931230fa.jpg,,,,,,,,,,,,,,,
46,hungry,Memory,0,,,,,,,00145931230fb.jpg,,,,,,,,,,,,,,,
47,hungry,Memory,0,,,,,,,sunaooffzffbhcpirmm.jpg,,,,,,,,,,,,,,,
48,hungry,Memory,0,,,,,,,00746941201fa.jpg,,,,,,,,,,,,,,,
49,hungry,Memory,0,,,,,,,sunaavjinpnkappuonm.jpg,,,,,,,,,,,,,,,
50,hungry,Presentation,1,00773941201fa_sunafvcflzhlqloapyo.jpg,00111931230fb_sunaakgekhjklxmvulj.jpg,,,,,,,>,Place,,,,,1,,,,,,,x
51,hungry,Presentation,1,00109931230fa_sunaajuzribjrizdshh.jpg,00805941205fa_sunagwzdbtlixdhgolm.jpg,,,,,,,>,Face,,,,,1,,,,,,,x
52,hungry,Presentation,1,00129931230fb_sunaamsdyakblkfoydx.jpg,00955960627fb_sunauburywlkjszngcq.jpg,,,,,,,<,Face,,,,,1,,,,,,,o
53,hungry,Presentation,1,00308940422fb_sunabwfvcqqidycwypa.jpg,00957960627fa_sunavhxgmgrqsaptynb.jpg,,,,,,,<,Place,,,,,1,,,,,,,o
54,hungry,Presentation,1,00935960627fa_sunaqbmgkgqucajzrkp.jpg,00214940128fa_sunabbafjowbzcvbucc.jpg,,,,,,,<,Face,,,,,1,,,,,,,x
55,hungry,Presentation,1,00779941205fa_sunagdzlvkqtpnfxfcg.jpg,00260940128fa_sunabgfhvifeijihhjw.jpg,,,,,,,>,Place,,,,,1,,,,,,,x
56,hungry,Presentation,1,00131931230fb_sunaangbuylfvckqqoo.jpg,00809960620fa_sunahbvlpavurqoxdeq.jpg,,,,,,,<,Place,,,,,0,,,,,,,o
57,hungry,Presentation,1,00835940307fa_sunaijsqpvodplbwxkf.jpg,00146960620fb_sunaatpeezlljqaxlhj.jpg,,,,,,,>,Face,,,,,1,,,,,,,o
58,hungry,Presentation,1,00598940928fa_sunacxeheuiigkcgquf.jpg,00082931230fa_sunaafvitpexrpvumsa.jpg,,,,,,,<,Face,,,,,1,,,,,,,o
59,hungry,Presentation,1,00090931230fa_sunaahedjlmtqekgyvj.jpg,00909960530_sunaobtizabegtwfwul.jpg,,,,,,,>,Place,,,,,1,,,,,,,x
60,hungry,Memory,1,,,,,,,00705941205fa.jpg,,,,,,,,,,,,,,,
61,hungry,Memory,1,,,,,,,sunacxeheuiigkcgquf.jpg,,,,,,,,,,,,,,,
62,hungry,Memory,1,,,,,,,sunaqbmgkgqucajzrkp.jpg,,,,,,,,,,,,,,,
63,hungry,Memory,1,,,,,,,sunantryfbloeaomfta.jpg,,,,,,,,,,,,,,,
64,hungry,Memory,1,,,,,,,00782941205fa.jpg,,,,,,,,,,,,,,,
65,hungry,Memory,1,,,,,,,sunauburywlkjszngcq.jpg,,,,,,,,,,,,,,,
66,hungry,Memory,1,,,,,,,00835940307fa.jpg,,,,,,,,,,,,,,,
67,hungry,Memory,1,,,,,,,sunbwdrdvsweerwsdrj.jpg,,,,,,,,,,,,,,,
68,hungry,Memory,1,,,,,,,sunadtlxenqqxsyjvix.jpg,,,,,,,,,,,,,,,
69,hungry,Memory,1,,,,,,,sunacypmnujalygkunp.jpg,,,,,,,,,,,,,,,
70,hungry,Memory,1,,,,,,,sunaatpkocdkocwxpkb.jpg,,,,,,,,,,,,,,,
71,hungry,Memory,1,,,,,,,00147931230fb.jpg,,,,,,,,,,,,,,,
72,hungry,Memory,1,,,,,,,sunagfvluwixdsozaql.jpg,,,,,,,,,,,,,,,
73,hungry,Memory,1,,,,,,,00935960627fa.jpg,,,,,,,,,,,,,,,
74,hungry,Memory,1,,,,,,,00598940928fa.jpg,,,,,,,,,,,,,,,
75,hungry,Memory,1,,,,,,,sunaijsqpvodplbwxkf.jpg,,,,,,,,,,,,,,,
76,hungry,Memory,1,,,,,,,00957960627fa.jpg,,,,,,,,,,,,,,,
77,hungry,Memory,1,,,,,,,00909960530.jpg,,,,,,,,,,,,,,,
78,hungry,Memory,1,,,,,,,sunaaelyvurpntclgau.jpg,,,,,,,,,,,,,,,
79,hungry,Memory,1,,,,,,,sunagdzlvkqtpnfxfcg.jpg,,,,,,,,,,,,,,,
80,hungry,Memory,1,,,,,,,00620940928fa.jpg,,,,,,,,,,,,,,,
81,hungry,Memory,1,,,,,,,sunaakgekhjklxmvulj.jpg,,,,,,,,,,,,,,,
82,hungry,Memory,1,,,,,,,sunaczwgyukesaajxnx.jpg,,,,,,,,,,,,,,,
83,hungry,Memory,1,,,,,,,00630940928fa.jpg,,,,,,,,,,,,,,,
84,hungry,Memory,1,,,,,,,01003960627fb.jpg,,,,,,,,,,,,,,,
85,hungry,Memory,1,,,,,,,sunabgfhvifeijihhjw.jpg,,,,,,,,,,,,,,,
86,hungry,Memory,1,,,,,,,00963960627fa.jpg,,,,,,,,,,,,,,,
87,hungry,Memory,1,,,,,,,sunavhxgmgrqsaptynb.jpg,,,,,,,,,,,,,,,
88,hungry,Memory,1,,,,,,,00260940128fa.jpg,,,,,,,,,,,,,,,
89,hungry,Memory,1,,,,,,,sunayaepykrqvenaqqy.jpg,,,,,,,,,,,,,,,
90,hungry,Memory,1,,,,,,,sunaobtizabegtwfwul.jpg,,,,,,,,,,,,,,,
91,hungry,Memory,1,,,,,,,00191940128fb.jpg,,,,,,,,,,,,,,,
92,hungry,Memory,1,,,,,,,00906960530fa.jpg,,,,,,,,,,,,,,,
93,hungry,Memory,1,,,,,,,00109931230fa.jpg,,,,,,,,,,,,,,,
94,hungry,Memory,1,,,,,,,00779941205fa.jpg,,,,,,,,,,,,,,,
95,hungry,Memory,1,,,,,,,sunaajuzribjrizdshh.jpg,,,,,,,,,,,,,,,
96,hungry,Memory,1,,,,,,,sunaawsdjisukbbginm.jpg,,,,,,,,,,,,,,,
97,hungry,Memory,1,,,,,,,00063931230fa.jpg,,,,,,,,,,,,,,,
98,hungry,Memory,1,,,,,,,00955960627fb.jpg,,,,,,,,,,,,,,,
99,hungry,Memory,1,,,,,,,00111931230fb.jpg,,,,,,,,,,,,,,,
100,hungry,Presentation,2,01010960627fa_suncnkvbhypnivcohyx.jpg,00925960627fa_sunapqwnqzxlsfvgsjm.jpg,,,,,,,<,Face,,,,,0,,,,,,,x
101,hungry,Presentation,2,00483940519fa_sunabyvpwkgsjtijdwj.jpg,00498960627fa_sunabzjxlmkwnwzimua.jpg,,,,,,,>,Place,,,,,1,,,,,,,o
102,hungry,Presentation,2,00864940307fa_sunajawzbrlrwafowen.jpg,00235940128fb_sunabclssnoeuigtawp.jpg,,,,,,,<,Place,,,,,1,,,,,,,o
103,hungry,Presentation,2,00142931230fb_sunaapxkpvrhpjplsok.jpg,00144931230fb_sunaathajvxrgptwhoj.jpg,,,,,,,>,Face,,,,,1,,,,,,,o
104,hungry,Presentation,2,00197940128fa_sunaaylzyqlqrsmfwif.jpg,00784941205fb_sunagjzcrjvmxzqzljx.jpg,,,,,,,>,Place,,,,,1,,,,,,,x
105,hungry,Presentation,2,00985960627fa_sunbgklxeqjhdbyfhhy.jpg,00790941205fa_sunagpjzsbltchlwvou.jpg,,,,,,,<,Place,,,,,0,,,,,,,x
106,hungry,Presentation,2,00753941201fa_sunafcofuuzebuadceo.jpg,00742941201fa_sunaenwuebvlpdmntju.jpg,,,,,,,>,Face,,,,,1,,,,,,,o
107,hungry,Presentation,2,00062931230fb_sunaaelotvjgibjtjhs.jpg,00727941205fa_sunaeisnjeetzmkbuad.jpg,,,,,,,<,Face,,,,,1,,,,,,,x
108,hungry,Presentation,2,00119931230fb_sunaakvmbftkrgqhjun.jpg,00070940307fa_sunaaeplwsfslcbtojr.jpg,,,,,,,>,Face,,,,,1,,,,,,,o
109,hungry,Presentation,2,00071941031fa_sunaaexqbtdswxrqjvz.jpg,01002960627fb_sunbwaafjdebjzttuvq.jpg,,,,,,,<,Place,,,,,1,,,,,,,o
110,hungry,Memory,2,,,,,,,sunainqelldeebvxtcz.jpg,,,,,,,,,,,,,,,
111,hungry,Memory,2,,,,,,,00482940519fa.jpg,,,,,,,,,,,,,,,
112,hungry,Memory,2,,,,,,,00750941201fa.jpg,,,,,,,,,,,,,,,
113,hungry,Memory,2,,,,,,,sunaloffvbvysigxent.jpg,,,,,,,,,,,,,,,
114,hungry,Memory,2,,,,,,,00116931230fa.jpg,,,,,,,,,,,,,,,
115,hungry,Memory,2,,,,,,,sunaffgsyyvoqdlkmnk.jpg,,,,,,,,,,,,,,,
116,hungry,Memory,2,,,,,,,00860940307fa.jpg,,,,,,,,,,,,,,,
117,hungry,Memory,2,,,,,,,00753941201fa.jpg,,,,,,,,,,,,,,,
118,hungry,Memory,2,,,,,,,sunaakqepfoeqomfgxf.jpg,,,,,,,,,,,,,,,
119,hungry,Memory,2,,,,,,,sunaazezcsunmhttzxz.jpg,,,,,,,,,,,,,,,
120,hungry,Memory,2,,,,,,,sunacvzhvcksnwqcqbw.jpg,,,,,,,,,,,,,,,
121,hungry,Memory,2,,,,,,,sunabyvpwkgsjtijdwj.jpg,,,,,,,,,,,,,,,
122,hungry,Memory,2,,,,,,,00893960530Fa.jpg,,,,,,,,,,,,,,,
123,hungry,Memory,2,,,,,,,sunaeuzwggvibufclwf.jpg,,,,,,,,,,,,,,,
124,hungry,Memory,2,,,,,,,00784941205fb.jpg,,,,,,,,,,,,,,,
125,hungry,Memory,2,,,,,,,00754941201fa.jpg,,,,,,,,,,,,,,,
126,hungry,Memory,2,,,,,,,00119931230fb.jpg,,,,,,,,,,,,,,,
127,hungry,Memory,2,,,,,,,00982960627fa.jpg,,,,,,,,,,,,,,,
128,hungry,Memory,2,,,,,,,00742941201fa.jpg,,,,,,,,,,,,,,,
129,hungry,Memory,2,,,,,,,sunaaeplwsfslcbtojr.jpg,,,,,,,,,,,,,,,
130,hungry,Memory,2,,,,,,,sunagjzcrjvmxzqzljx.jpg,,,,,,,,,,,,,,,
131,hungry,Memory,2,,,,,,,00070940307fa.jpg,,,,,,,,,,,,,,,
132,hungry,Memory,2,,,,,,,sunabyfxcxhdebvdyfd.jpg,,,,,,,,,,,,,,,
133,hungry,Memory,2,,,,,,,sunafcofuuzebuadceo.jpg,,,,,,,,,,,,,,,
134,hungry,Memory,2,,,,,,,sunbesrwkdsffeogeqq.jpg,,,,,,,,,,,,,,,
135,hungry,Memory,2,,,,,,,00142931230fb.jpg,,,,,,,,,,,,,,,
136,hungry,Memory,2,,,,,,,sunaeisnjeetzmkbuad.jpg,,,,,,,,,,,,,,,
137,hungry,Memory,2,,,,,,,00836940307fa.jpg,,,,,,,,,,,,,,,
138,hungry,Memory,2,,,,,,,sunaenwuebvlpdmntju.jpg,,,,,,,,,,,,,,,
139,hungry,Memory,2,,,,,,,00483940519fa.jpg,,,,,,,,,,,,,,,
140,hungry,Memory,2,,,,,,,sunaapxkpvrhpjplsok.jpg,,,,,,,,,,,,,,,
141,hungry,Memory,2,,,,,,,00581940928fa.jpg,,,,,,,,,,,,,,,
142,hungry,Memory,2,,,,,,,sunabclssnoeuigtawp.jpg,,,,,,,,,,,,,,,
143,hungry,Memory,2,,,,,,,sunaizeyhvjzknwjudw.jpg,,,,,,,,,,,,,,,
144,hungry,Memory,2,,,,,,,suncnkvbhypnivcohyx.jpg,,,,,,,,,,,,,,,
145,hungry,Memory,2,,,,,,,00198940128fb.jpg,,,,,,,,,,,,,,,
146,hungry,Memory,2,,,,,,,sunaakvmbftkrgqhjun.jpg,,,,,,,,,,,,,,,
147,hungry,Memory,2,,,,,,,01010960627fa.jpg,,,,,,,,,,,,,,,
148,hungry,Memory,2,,,,,,,00235940128fb.jpg,,,,,,,,,,,,,,,
149,hungry,Memory,2,,,,,,,00727941205fa.jpg,,,,,,,,,,,,,,,
150,hungry,Presentation,3,00901960530fa_sunammbnoambmhdxdwd.jpg,00857940307fa_sunaiwfobocrruqznsv.jpg,,,,,,,>,Face,,,,,1,,,,,,,x
151,hungry,Presentation,3,00741941201fa_sunaemcowdozyphwknd.jpg,00634940928fa_sunadcphrizvfpljiqt.jpg,,,,,,,<,Face,,,,,1,,,,,,,x
152,hungry,Presentation,3,00804960530fa_sunagwswhkvnsmuszlz.jpg,00894960620fa_sunalqmfgeadpqsyzpd.jpg,,,,,,,>,Place,,,,,1,,,,,,,o
153,hungry,Presentation,3,00949960627fb_sunasnqkkyhilqkxiqm.jpg,00869940307fa_sunajoveqhiprwqgoco.jpg,,,,,,,>,Face,,,,,1,,,,,,,x
154,hungry,Presentation,3,00768941205fa_sunafkmnlytenlsywia.jpg,00943960627fa_sunarpsxqkduedrrzyi.jpg,,,,,,,<,Place,,,,,1,,,,,,,o
155,hungry,Presentation,3,00868960307fa_sunajjxttslobudoqbv.jpg,00895960530fa_sunamczizlzavhzhpay.jpg,,,,,,,<,Face,,,,,1,,,,,,,x
156,hungry,Presentation,3,00559940519fa_sunacjkmnpawfzbyvae.jpg,00209940128fb_sunabaergayifsgacxt.jpg,,,,,,,>,Place,,,,,1,,,,,,,x
157,hungry,Presentation,3,00719941201fa_sunadvithllcgmfxsrn.jpg,00812941205fa_sunahgtbwgsmtqeodwh.jpg,,,,,,,<,Place,,,,,1,,,,,,,x
158,hungry,Presentation,3,00751960620fa_sunaezuszgtxnmsxdbk.jpg,00970960627fa_sunbasypfgzjtomktmu.jpg,,,,,,,>,Face,,,,,1,,,,,,,o
159,hungry,Presentation,3,00997960627fa_sunbtpilbhhbmhmeuzq.jpg,00073931230fa_sunaafbmtoniaasysgu.jpg,,,,,,,<,Place,,,,,1,,,,,,,x
160,hungry,Memory,3,,,,,,,00749941201fa.jpg,,,,,,,,,,,,,,,
161,hungry,Memory,3,,,,,,,00895960530fa.jpg,,,,,,,,,,,,,,,
162,hungry,Memory,3,,,,,,,sunbwyuesflwdpqtgoy.jpg,,,,,,,,,,,,,,,
163,hungry,Memory,3,,,,,,,sunabwjvmoaddlyxfjr.jpg,,,,,,,,,,,,,,,
164,hungry,Memory,3,,,,,,,sunagtumacdlmciqamz.jpg,,,,,,,,,,,,,,,
165,hungry,Memory,3,,,,,,,sunaeuvjbmdpknaqqaj.jpg,,,,,,,,,,,,,,,
166,hungry,Memory,3,,,,,,,00529940519fa.jpg,,,,,,,,,,,,,,,
167,hungry,Memory,3,,,,,,,sunbasypfgzjtomktmu.jpg,,,,,,,,,,,,,,,
168,hungry,Memory,3,,,,,,,00609940928fa.jpg,,,,,,,,,,,,,,,
169,hungry,Memory,3,,,,,,,sunamczizlzavhzhpay.jpg,,,,,,,,,,,,,,,
170,hungry,Memory,3,,,,,,,sunacycdoztxoluxjyk.jpg,,,,,,,,,,,,,,,
171,hungry,Memory,3,,,,,,,sunaakjaacuzulqckgl.jpg,,,,,,,,,,,,,,,
172,hungry,Memory,3,,,,,,,sunaezuszgtxnmsxdbk.jpg,,,,,,,,,,,,,,,
173,hungry,Memory,3,,,,,,,sunacwggadqsfpovdjv.jpg,,,,,,,,,,,,,,,
174,hungry,Memory,3,,,,,,,sunagtjwilqjvxohypn.jpg,,,,,,,,,,,,,,,
175,hungry,Memory,3,,,,,,,00719941201fa.jpg,,,,,,,,,,,,,,,
176,hungry,Memory,3,,,,,,,sunacbeefkxpymwevpk.jpg,,,,,,,,,,,,,,,
177,hungry,Memory,3,,,,,,,00313940422fa.jpg,,,,,,,,,,,,,,,
178,hungry,Memory,3,,,,,,,sunbtpilbhhbmhmeuzq.jpg,,,,,,,,,,,,,,,
179,hungry,Memory,3,,,,,,,sunaafbmtoniaasysgu.jpg,,,,,,,,,,,,,,,
180,hungry,Memory,3,,,,,,,01005960627fa.jpg,,,,,,,,,,,,,,,
181,hungry,Memory,3,,,,,,,00768941205fa.jpg,,,,,,,,,,,,,,,
182,hungry,Memory,3,,,,,,,00559940519fa.jpg,,,,,,,,,,,,,,,
183,hungry,Memory,3,,,,,,,sunbbgtoeuzierkkajt.jpg,,,,,,,,,,,,,,,
184,hungry,Memory,3,,,,,,,00997960627fa.jpg,,,,,,,,,,,,,,,
185,hungry,Memory,3,,,,,,,00589940928fa.jpg,,,,,,,,,,,,,,,
186,hungry,Memory,3,,,,,,,sunarpsxqkduedrrzyi.jpg,,,,,,,,,,,,,,,
187,hungry,Memory,3,,,,,,,00795941205fa.jpg,,,,,,,,,,,,,,,
188,hungry,Memory,3,,,,,,,sunadvithllcgmfxsrn.jpg,,,,,,,,,,,,,,,
189,hungry,Memory,3,,,,,,,00112931230fa.jpg,,,,,,,,,,,,,,,
190,hungry,Memory,3,,,,,,,sunabaergayifsgacxt.jpg,,,,,,,,,,,,,,,
191,hungry,Memory,3,,,,,,,sunafkmnlytenlsywia.jpg,,,,,,,,,,,,,,,
192,hungry,Memory,3,,,,,,,00073931230fa.jpg,,,,,,,,,,,,,,,
193,hungry,Memory,3,,,,,,,sunacjkmnpawfzbyvae.jpg,,,,,,,,,,,,,,,
194,hungry,Memory,3,,,,,,,00751960620fa.jpg,,,,,,,,,,,,,,,
195,hungry,Memory,3,,,,,,,00209940128fb.jpg,,,,,,,,,,,,,,,
196,hungry,Memory,3,,,,,,,00970960627fa.jpg,,,,,,,,,,,,,,,
197,hungry,Memory,3,,,,,,,00943960627fa.jpg,,,,,,,,,,,,,,,
198,hungry,Memory,3,,,,,,,00793941205fa.jpg,,,,,,,,,,,,,,,
199,hungry,Memory,3,,,,,,,00973960627fa.jpg,,,,,,,,,,,,,,,
200,hungry,Presentation,4,00910960530fa_sunaofikylqtxphvdem.jpg,00163931230fb_sunaavodbcpygkggnfp.jpg,,,,,,,<,Face,,,,,1,,,,,,,x
201,hungry,Presentation,4,00902960530fa_sunanaacmmosxrfwmvl.jpg,00576941031fa_sunacvjlsylseoghjup.jpg,,,,,,,>,Face,,,,,1,,,,,,,o
202,hungry,Presentation,4,00783941205fa_sunagjeesomrwjsfqie.jpg,00937960627fa_sunaqsolmfydodnakub.jpg,,,,,,,<,Place,,,,,1,,,,,,,o
203,hungry,Presentation,4,00060931230fa_sunaaehaikpckyjsety.jpg,00548940519fa_sunacerqowiaeoqkmsq.jpg,,,,,,,>,Face,,,,,0,,,,,,,o
204,hungry,Presentation,4,00938960627fa_sunaqyylsngywqzwfmx.jpg,00996960627fa_sunbpvgllfdejxcpjqp.jpg,,,,,,,>,Place,,,,,1,,,,,,,x
205,hungry,Presentation,4,00270940422fb_sunabllobxadqcyttej.jpg,00874940307fa_sunajtrfunvzdfticna.jpg,,,,,,,<,Place,,,,,0,,,,,,,x
206,hungry,Presentation,4,00986960627fa_sunbgzjryivyczuvkvm.jpg,00101931230fb_sunaajqmsaavkmgbsth.jpg,,,,,,,<,Face,,,,,1,,,,,,,o
207,hungry,Presentation,4,00921960627fa_sunapqkpqdfvxlbqwyo.jpg,00978960627fa_sunbddbivbptlrlauhy.jpg,,,,,,,>,Place,,,,,1,,,,,,,o
208,hungry,Presentation,4,00071940128fa_sunaaexpnawiehinlpy.jpg,00158931230fb_sunaavchcbptaerhcfy.jpg,,,,,,,<,Face,,,,,1,,,,,,,x
209,hungry,Presentation,4,00777941205fa_sunagcinxkccdtrjmlv.jpg,00126931230fb_sunaamdjwemxpmmtypi.jpg,,,,,,,>,Place,,,,,1,,,,,,,x
210,hungry,Memory,4,,,,,,,sunaaexpnawiehinlpy.jpg,,,,,,,,,,,,,,,
211,hungry,Memory,4,,,,,,,00944960627fa.jpg,,,,,,,,,,,,,,,
212,hungry,Memory,4,,,,,,,sunagrmyoovzukhxmlo.jpg,,,,,,,,,,,,,,,
213,hungry,Memory,4,,,,,,,sunbgzjryivyczuvkvm.jpg,,,,,,,,,,,,,,,
214,hungry,Memory,4,,,,,,,00866940307fa.jpg,,,,,,,,,,,,,,,
215,hungry,Memory,4,,,,,,,00576941031fa.jpg,,,,,,,,,,,,,,,
216,hungry,Memory,4,,,,,,,sunacvjlsylseoghjup.jpg,,,,,,,,,,,,,,,
217,hungry,Memory,4,,,,,,,00140931230fb.jpg,,,,,,,,,,,,,,,
218,hungry,Memory,4,,,,,,,sunaqsolmfydodnakub.jpg,,,,,,,,,,,,,,,
219,hungry,Memory,4,,,,,,,00851940307fa.jpg,,,,,,,,,,,,,,,
220,hungry,Memory,4,,,,,,,01011960627fa.jpg,,,,,,,,,,,,,,,
221,hungry,Memory,4,,,,,,,sunanaacmmosxrfwmvl.jpg,,,,,,,,,,,,,,,
222,hungry,Memory,4,,,,,,,00986960627fa.jpg,,,,,,,,,,,,,,,
223,hungry,Memory,4,,,,,,,00071940128fa.jpg,,,,,,,,,,,,,,,
224,hungry,Memory,4,,,,,,,00791941205fa.jpg,,,,,,,,,,,,,,,
225,hungry,Memory,4,,,,,,,sunahqldjibofgsfdgb.jpg,,,,,,,,,,,,,,,
226,hungry,Memory,4,,,,,,,00921960627fa.jpg,,,,,,,,,,,,,,,
227,hungry,Memory,4,,,,,,,sunabqowuarvqqcnipn.jpg,,,,,,,,,,,,,,,
228,hungry,Memory,4,,,,,,,sunbmaiocftdtvnzgap.jpg,,,,,,,,,,,,,,,
229,hungry,Memory,4,,,,,,,sunajbwkywmsqkldfml.jpg,,,,,,,,,,,,,,,
230,hungry,Memory,4,,,,,,,00060931230fa.jpg,,,,,,,,,,,,,,,
231,hungry,Memory,4,,,,,,,00126931230fb.jpg,,,,,,,,,,,,,,,
232,hungry,Memory,4,,,,,,,00996960627fa.jpg,,,,,,,,,,,,,,,
233,hungry,Memory,4,,,,,,,sunaivflshbyfrfzhqb.jpg,,,,,,,,,,,,,,,
234,hungry,Memory,4,,,,,,,00988960627fa.jpg,,,,,,,,,,,,,,,
235,hungry,Memory,4,,,,,,,sunasbbntuiheekqyaq.jpg,,,,,,,,,,,,,,,
236,hungry,Memory,4,,,,,,,sunbpvgllfdejxcpjqp.jpg,,,,,,,,,,,,,,,
237,hungry,Memory,4,,,,,,,00290940422fa.jpg,,,,,,,,,,,,,,,
238,hungry,Memory,4,,,,,,,sundahdxwmcdluscvot.jpg,,,,,,,,,,,,,,,
239,hungry,Memory,4,,,,,,,sunaapllqyqlykszopd.jpg,,,,,,,,,,,,,,,
240,hungry,Memory,4,,,,,,,00819940307fa.jpg,,,,,,,,,,,,,,,
241,hungry,Memory,4,,,,,,,sunaamdjwemxpmmtypi.jpg,,,,,,,,,,,,,,,
242,hungry,Memory,4,,,,,,,sunapqkpqdfvxlbqwyo.jpg,,,,,,,,,,,,,,,
243,hungry,Memory,4,,,,,,,00158931230fb.jpg,,,,,,,,,,,,,,,
244,hungry,Memory,4,,,,,,,sunaaehaikpckyjsety.jpg,,,,,,,,,,,,,,,
245,hungry,Memory,4,,,,,,,sunamlotskmmsjeogby.jpg,,,,,,,,,,,,,,,
246,hungry,Memory,4,,,,,,,00900960530fa.jpg,,,,,,,,,,,,,,,
247,hungry,Memory,4,,,,,,,00937960627fa.jpg,,,,,,,,,,,,,,,
248,hungry,Memory,4,,,,,,,00902960530fa.jpg,,,,,,,,,,,,,,,
249,hungry,Memory,4,,,,,,,sunaavchcbptaerhcfy.jpg,,,,,,,,,,,,,,,
250,hungry,Presentation,5,00983960627fa_sunbfyvfqiimvdaxlqn.jpg,00752960620fa_sunafbwnojpqeyzssoe.jpg,,,,,,,>,Place,,,,,1,,,,,,,o
251,hungry,Presentation,5,00877960530fa_sunajxpkuhbizeveguy.jpg,00880960530fa_sunakmnfgklupjijsgf.jpg,,,,,,,<,Face,,,,,1,,,,,,,x
252,hungry,Presentation,5,00133931230fa_sunaanlwnpqndclffxt.jpg,00858940307fa_sunaixpqndlwhwjtjek.jpg,,,,,,,>,Place,,,,,1,,,,,,,o
253,hungry,Presentation,5,00242940128fa_sunabcuurugvxwparpk.jpg,00905960530fa_sunanmoqeyprjjjfxjt.jpg,,,,,,,>,Face,,,,,1,,,,,,,x
254,hungry,Presentation,5,00271940422fa_sunabmbnddafmywtjjj.jpg,00314940422fa_sunabwmcbaxwioksdgw.jpg,,,,,,,<,Place,,,,,1,,,,,,,o
255,hungry,Presentation,5,00936960627fa_sunaqgjuuwvdcyiccjt.jpg,00211940128fa_sunabasphceswhwwqvv.jpg,,,,,,,<,Face,,,,,1,,,,,,,o
256,hungry,Presentation,5,00080931230fb_sunaafjszryxyavjzln.jpg,00834940307fa_sunaibnpvhkdpdnzcnz.jpg,,,,,,,>,Place,,,,,1,,,,,,,x
257,hungry,Presentation,5,00797960620fa_sunagufzbeteqdjxais.jpg,00885960530fa_sunakwlvxjpddialozd.jpg,,,,,,,<,Place,,,,,1,,,,,,,o
258,hungry,Presentation,5,00929960627fa_sunaprnrbmgkomdbchr.jpg,00069931230fb_sunaaeowapdkwzqpgqr.jpg,,,,,,,>,Face,,,,,1,,,,,,,x
259,hungry,Presentation,5,00847940307fa_sunaivdjruhkrfywfed.jpg,00939960627fa_sunarceibpcyacbmfga.jpg,,,,,,,<,Face,,,,,1,,,,,,,o
260,hungry,Memory,5,,,,,,,00752960620fa.jpg,,,,,,,,,,,,,,,
261,hungry,Memory,5,,,,,,,00242940128fa.jpg,,,,,,,,,,,,,,,
262,hungry,Memory,5,,,,,,,00880960530fa.jpg,,,,,,,,,,,,,,,
263,hungry,Memory,5,,,,,,,sunaampvucecsfbdafn.jpg,,,,,,,,,,,,,,,
264,hungry,Memory,5,,,,,,,sunafbwnojpqeyzssoe.jpg,,,,,,,,,,,,,,,
265,hungry,Memory,5,,,,,,,00080931230fb.jpg,,,,,,,,,,,,,,,
266,hungry,Memory,5,,,,,,,sunafpfpiiujzoesnqg.jpg,,,,,,,,,,,,,,,
267,hungry,Memory,5,,,,,,,sunaawqdbpihmlbwyyn.jpg,,,,,,,,,,,,,,,
268,hungry,Memory,5,,,,,,,sunbfyvfqiimvdaxlqn.jpg,,,,,,,,,,,,,,,
269,hungry,Memory,5,,,,,,,00208940128fa.jpg,,,,,,,,,,,,,,,
270,hungry,Memory,5,,,,,,,sunarceibpcyacbmfga.jpg,,,,,,,,,,,,,,,
271,hungry,Memory,5,,,,,,,00069931230fb.jpg,,,,,,,,,,,,,,,
272,hungry,Memory,5,,,,,,,sunabeyhmxodahoieyk.jpg,,,,,,,,,,,,,,,
273,hungry,Memory,5,,,,,,,00939960627fa.jpg,,,,,,,,,,,,,,,
274,hungry,Memory,5,,,,,,,00127931230fa.jpg,,,,,,,,,,,,,,,
275,hungry,Memory,5,,,,,,,sunaivdjruhkrfywfed.jpg,,,,,,,,,,,,,,,
276,hungry,Memory,5,,,,,,,sunabcfpwlpolnutyju.jpg,,,,,,,,,,,,,,,
277,hungry,Memory,5,,,,,,,00905960530fa.jpg,,,,,,,,,,,,,,,
278,hungry,Memory,5,,,,,,,sunaiwduelojtwaqeyh.jpg,,,,,,,,,,,,,,,
279,hungry,Memory,5,,,,,,,sunaazzyhbvqjpmazjq.jpg,,,,,,,,,,,,,,,
280,hungry,Memory,5,,,,,,,00772941201fa.jpg,,,,,,,,,,,,,,,
281,hungry,Memory,5,,,,,,,sunabcuurugvxwparpk.jpg,,,,,,,,,,,,,,,
282,hungry,Memory,5,,,,,,,sunagmhildamktmqjss.jpg,,,,,,,,,,,,,,,
283,hungry,Memory,5,,,,,,,00786941205fa.jpg,,,,,,,,,,,,,,,
284,hungry,Memory,5,,,,,,,sunanmoqeyprjjjfxjt.jpg,,,,,,,,,,,,,,,
285,hungry,Memory,5,,,,,,,sunafhmnhsdurlvddpw.jpg,,,,,,,,,,,,,,,
286,hungry,Memory,5,,,,,,,00847940307fa.jpg,,,,,,,,,,,,,,,
287,hungry,Memory,5,,,,,,,00936960627fa.jpg,,,,,,,,,,,,,,,
288,hungry,Memory,5,,,,,,,00221940128fa.jpg,,,,,,,,,,,,,,,
289,hungry,Memory,5,,,,,,,sunaaeowapdkwzqpgqr.jpg,,,,,,,,,,,,,,,
290,hungry,Memory,5,,,,,,,sunaqgjuuwvdcyiccjt.jpg,,,,,,,,,,,,,,,
291,hungry,Memory,5,,,,,,,00562941031fa.jpg,,,,,,,,,,,,,,,
292,hungry,Memory,5,,,,,,,00763941205fa.jpg,,,,,,,,,,,,,,,
293,hungry,Memory,5,,,,,,,sunakmnfgklupjijsgf.jpg,,,,,,,,,,,,,,,
294,hungry,Memory,5,,,,,,,00245940128fa.jpg,,,,,,,,,,,,,,,
295,hungry,Memory,5,,,,,,,sunaafjszryxyavjzln.jpg,,,,,,,,,,,,,,,
296,hungry,Memory,5,,,,,,,sunacjnahdmqfnjfwqx.jpg,,,,,,,,,,,,,,,
297,hungry,Memory,5,,,,,,,00983960627fa.jpg,,,,,,,,,,,,,,,
298,hungry,Memory,5,,,,,,,00185940422fb.jpg,,,,,,,,,,,,,,,
299,hungry,Memory,5,,,,,,,00854940307fa.jpg,,,,,,,,,,,,,,,
300,hungry,Presentation,6,01007960627fa_sunbxarcshsnqsefemx.jpg,00193940928fa_sunaaxjpzcnxligjtjq.jpg,,,,,,,<,Place,,,,,1,,,,,,,x
301,hungry,Presentation,6,00122931230fa_sunaakxjfbrrequcjmx.jpg,00953960627fa_sunatstrpjxhvtbaczf.jpg,,,,,,,<,Face,,,,,1,,,,,,,x
302,hungry,Presentation,6,00288940422fa_sunabppokiyglaxpcha.jpg,00108960530fa_sunaajtnvzzpsjdzres.jpg,,,,,,,>,Place,,,,,1,,,,,,,x
303,hungry,Presentation,6,00770941201fa_sunaflojskatpeqyzqp.jpg,01207940128fa_sundbixjudsgeuuehrn.jpg,,,,,,,<,Place,,,,,1,,,,,,,o
304,hungry,Presentation,6,00086931230fa_sunaafynehyrzpsoaml.jpg,00990960627fa_sunbpflsdaxnddnwcqi.jpg,,,,,,,>,Place,,,,,1,,,,,,,o
305,hungry,Presentation,6,00097931230fa_sunaajayojuslbbnneg.jpg,00662941121fa_sunadkazmlajmohnwfl.jpg,,,,,,,>,Face,,,,,1,,,,,,,x
306,hungry,Presentation,6,00700941121fa_sunadsgmtznewzyasnk.jpg,00061931230fb_sunaaekxzjzrfgtkwjf.jpg,,,,,,,<,Face,,,,,1,,,,,,,o
307,hungry,Presentation,6,00898960530fa_sunamkmeblgteyggink.jpg,00787941205fa_sunagmwxxwymwojbvgi.jpg,,,,,,,>,Face,,,,,1,,,,,,,o
308,hungry,Presentation,6,00136931230fb_sunaanptmsknhirrzed.jpg,00266940128fb_sunabkngeblodihjvbk.jpg,,,,,,,<,Place,,,,,1,,,,,,,o
309,hungry,Presentation,6,00305940422fa_sunabtrnbvpppgczjim.jpg,00889960530fa_sunaletopenvvozhpxc.jpg,,,,,,,>,Face,,,,,1,,,,,,,x
310,hungry,Memory,6,,,,,,,00720960620fa.jpg,,,,,,,,,,,,,,,
311,hungry,Memory,6,,,,,,,sunaajayojuslbbnneg.jpg,,,,,,,,,,,,,,,
312,hungry,Memory,6,,,,,,,00931960627fa.jpg,,,,,,,,,,,,,,,
313,hungry,Memory,6,,,,,,,sunaptrqvaooxfvktvw.jpg,,,,,,,,,,,,,,,
314,hungry,Memory,6,,,,,,,sunamkmeblgteyggink.jpg,,,,,,,,,,,,,,,
315,hungry,Memory,6,,,,,,,sunaanptmsknhirrzed.jpg,,,,,,,,,,,,,,,
316,hungry,Memory,6,,,,,,,sunaaftlyfudyzuhqzf.jpg,,,,,,,,,,,,,,,
317,hungry,Memory,6,,,,,,,sunaecpkgfewqqreqwe.jpg,,,,,,,,,,,,,,,
318,hungry,Memory,6,,,,,,,sunaletopenvvozhpxc.jpg,,,,,,,,,,,,,,,
319,hungry,Memory,6,,,,,,,00081941031fa.jpg,,,,,,,,,,,,,,,
320,hungry,Memory,6,,,,,,,00136931230fb.jpg,,,,,,,,,,,,,,,
321,hungry,Memory,6,,,,,,,00097931230fa.jpg,,,,,,,,,,,,,,,
322,hungry,Memory,6,,,,,,,00568940928fa.jpg,,,,,,,,,,,,,,,
323,hungry,Memory,6,,,,,,,sunaafgqutfaishsxyu.jpg,,,,,,,,,,,,,,,
324,hungry,Memory,6,,,,,,,sunaaekxzjzrfgtkwjf.jpg,,,,,,,,,,,,,,,
325,hungry,Memory,6,,,,,,,00889960530fa.jpg,,,,,,,,,,,,,,,
326,hungry,Memory,6,,,,,,,01207940128fa.jpg,,,,,,,,,,,,,,,
327,hungry,Memory,6,,,,,,,00266940128fb.jpg,,,,,,,,,,,,,,,
328,hungry,Memory,6,,,,,,,sunaeutbrtswvsozxyk.jpg,,,,,,,,,,,,,,,
329,hungry,Memory,6,,,,,,,sunavxokzybtomhbmvm.jpg,,,,,,,,,,,,,,,
330,hungry,Memory,6,,,,,,,sunbwtlihsuptkrckid.jpg,,,,,,,,,,,,,,,
331,hungry,Memory,6,,,,,,,sunabueyoajufbkraki.jpg,,,,,,,,,,,,,,,
332,hungry,Memory,6,,,,,,,00898960530fa.jpg,,,,,,,,,,,,,,,
333,hungry,Memory,6,,,,,,,sunaflojskatpeqyzqp.jpg,,,,,,,,,,,,,,,
334,hungry,Memory,6,,,,,,,00747941201fa.jpg,,,,,,,,,,,,,,,
335,hungry,Memory,6,,,,,,,sunacsdhbbsybcyxnel.jpg,,,,,,,,,,,,,,,
336,hungry,Memory,6,,,,,,,00662941121fa.jpg,,,,,,,,,,,,,,,
337,hungry,Memory,6,,,,,,,00306940422fa.jpg,,,,,,,,,,,,,,,
338,hungry,Memory,6,,,,,,,sunbxarcshsnqsefemx.jpg,,,,,,,,,,,,,,,
339,hungry,Memory,6,,,,,,,sunadkazmlajmohnwfl.jpg,,,,,,,,,,,,,,,
340,hungry,Memory,6,,,,,,,00770941201fa.jpg,,,,,,,,,,,,,,,
341,hungry,Memory,6,,,,,,,sundbixjudsgeuuehrn.jpg,,,,,,,,,,,,,,,
342,hungry,Memory,6,,,,,,,00077931230fb.jpg,,,,,,,,,,,,,,,
343,hungry,Memory,6,,,,,,,01004960627fa.jpg,,,,,,,,,,,,,,,
344,hungry,Memory,6,,,,,,,sunabkngeblodihjvbk.jpg,,,,,,,,,,,,,,,
345,hungry,Memory,6,,,,,,,sunabohxbskznglnrhv.jpg,,,,,,,,,,,,,,,
346,hungry,Memory,6,,,,,,,00061931230fb.jpg,,,,,,,,,,,,,,,
347,hungry,Memory,6,,,,,,,00959960627fa.jpg,,,,,,,,,,,,,,,
348,hungry,Memory,6,,,,,,,00280940422fb.jpg,,,,,,,,,,,,,,,
349,hungry,Memory,6,,,,,,,01007960627fa.jpg,,,,,,,,,,,,,,,
350,hungry,Presentation,7,00933960627fa_sunapwjkcxdaeqehfql.jpg,00723941201fa_sunaedtgwjvvziytspa.jpg,,,,,,,<,Place,,,,,1,,,,,,,x
351,hungry,Presentation,7,00631940928fa_sunadbdqzigzwipuipr.jpg,00762941201fa_sunafgzgbisbopcyslr.jpg,,,,,,,>,Face,,,,,0,,,,,,,x
352,hungry,Presentation,7,00102931230fa_sunaajspcoepticvplv.jpg,00264940128fb_sunabjzyxcjnmztdonj.jpg,,,,,,,<,Face,,,,,0,,,,,,,o
353,hungry,Presentation,7,00089931230fa_sunaagcpoejbuzyvddd.jpg,00829940307fa_sunahwgbqkqcrwprgvh.jpg,,,,,,,<,Place,,,,,1,,,,,,,o
354,hungry,Presentation,7,00663941121fa_sunadnjjzohjhbohlwq.jpg,00571940928fa_sunacuatpqpqhyjhjqk.jpg,,,,,,,>,Place,,,,,1,,,,,,,x
355,hungry,Presentation,7,00778941205fa_sunagcthdfirrcawoic.jpg,00092931230fa_sunaaheqzstzxuadglu.jpg,,,,,,,<,Place,,,,,1,,,,,,,o
356,hungry,Presentation,7,00120931230fa_sunaakxgygjfqrzpyoz.jpg,00115931230fa_sunaakmxzhuceuiryah.jpg,,,,,,,<,Face,,,,,1,,,,,,,x
357,hungry,Presentation,7,00194940128fb_sunaayehfdqcyxggsej.jpg,00785941205fa_sunaglqunwuycxydmyu.jpg,,,,,,,>,Face,,,,,1,,,,,,,o
358,hungry,Presentation,7,00942960627fa_sunarfdklgdnjgeqfjg.jpg,00816941205fa_sunahmhrncocyhsjpxk.jpg,,,,,,,>,Place,,,,,1,,,,,,,o
359,hungry,Presentation,7,00859940307fa_sunaiycurtqsfkvcaso.jpg,00884960530fa_sunakodkcslgqhqlgwl.jpg,,,,,,,>,Face,,,,,1,,,,,,,o
360,hungry,Memory,7,,,,,,,00762941201fa.jpg,,,,,,,,,,,,,,,
361,hungry,Memory,7,,,,,,,00102931230fa.jpg,,,,,,,,,,,,,,,
362,hungry,Memory,7,,,,,,,sunafgzgbisbopcyslr.jpg,,,,,,,,,,,,,,,
363,hungry,Memory,7,,,,,,,sunaagcpoejbuzyvddd.jpg,,,,,,,,,,,,,,,
364,hungry,Memory,7,,,,,,,00947960627fa.jpg,,,,,,,,,,,,,,,
365,hungry,Memory,7,,,,,,,00557940519fa.jpg,,,,,,,,,,,,,,,
366,hungry,Memory,7,,,,,,,00276940422fa.jpg,,,,,,,,,,,,,,,
367,hungry,Memory,7,,,,,,,00089931230fa.jpg,,,,,,,,,,,,,,,
368,hungry,Memory,7,,,,,,,sunahwgbqkqcrwprgvh.jpg,,,,,,,,,,,,,,,
369,hungry,Memory,7,,,,,,,sunbagfpovqwbuexqdn.jpg,,,,,,,,,,,,,,,
370,hungry,Memory,7,,,,,,,sunaakmxzhuceuiryah.jpg,,,,,,,,,,,,,,,
371,hungry,Memory,7,,,,,,,00838940307fa.jpg,,,,,,,,,,,,,,,
372,hungry,Memory,7,,,,,,,00218940128fa.jpg,,,,,,,,,,,,,,,
373,hungry,Memory,7,,,,,,,00775941205fa.jpg,,,,,,,,,,,,,,,
374,hungry,Memory,7,,,,,,,00933960627fa.jpg,,,,,,,,,,,,,,,
375,hungry,Memory,7,,,,,,,00859940307fa.jpg,,,,,,,,,,,,,,,
376,hungry,Memory,7,,,,,,,sunaajspcoepticvplv.jpg,,,,,,,,,,,,,,,
377,hungry,Memory,7,,,,,,,sunasmmcxdddtmtazwx.jpg,,,,,,,,,,,,,,,
378,hungry,Memory,7,,,,,,,00829940307fa.jpg,,,,,,,,,,,,,,,
379,hungry,Memory,7,,,,,,,sunbondbduabvijnmch.jpg,,,,,,,,,,,,,,,
380,hungry,Memory,7,,,,,,,sunabmytpyhsgigllxu.jpg,,,,,,,,,,,,,,,
381,hungry,Memory,7,,,,,,,sunachtuarilwyqnvjx.jpg,,,,,,,,,,,,,,,
382,hungry,Memory,7,,,,,,,sunaaheqzstzxuadglu.jpg,,,,,,,,,,,,,,,
383,hungry,Memory,7,,,,,,,00760960620fa.jpg,,,,,,,,,,,,,,,
384,hungry,Memory,7,,,,,,,sunapwjkcxdaeqehfql.jpg,,,,,,,,,,,,,,,
385,hungry,Memory,7,,,,,,,sunafvwfsmqkjrutjta.jpg,,,,,,,,,,,,,,,
386,hungry,Memory,7,,,,,,,sunaiozxhxgtfrmoagh.jpg,,,,,,,,,,,,,,,
387,hungry,Memory,7,,,,,,,00778941205fa.jpg,,,,,,,,,,,,,,,
388,hungry,Memory,7,,,,,,,00989960627fa.jpg,,,,,,,,,,,,,,,
389,hungry,Memory,7,,,,,,,00987960627fa.jpg,,,,,,,,,,,,,,,
390,hungry,Memory,7,,,,,,,sunaiycurtqsfkvcaso.jpg,,,,,,,,,,,,,,,
391,hungry,Memory,7,,,,,,,sunagcthdfirrcawoic.jpg,,,,,,,,,,,,,,,
392,hungry,Memory,7,,,,,,,sunabbwggenhfbftyvi.jpg,,,,,,,,,,,,,,,
393,hungry,Memory,7,,,,,,,00264940128fb.jpg,,,,,,,,,,,,,,,
394,hungry,Memory,7,,,,,,,sunabjzyxcjnmztdonj.jpg,,,,,,,,,,,,,,,
395,hungry,Memory,7,,,,,,,00115931230fa.jpg,,,,,,,,,,,,,,,
396,hungry,Memory,7,,,,,,,sunbloeoiozwjjsiamp.jpg,,,,,,,,,,,,,,,
397,hungry,Memory,7,,,,,,,00968960627fa.jpg,,,,,,,,,,,,,,,
398,hungry,Memory,7,,,,,,,00092931230fa.jpg,,,,,,,,,,,,,,,
399,hungry,Memory,7,,,,,,,sunaffstbkappprzxnv.jpg,,,,,,,,,,,,,,,
