,Subject,Trial Type,Run,Cued Composite,Uncued Composite,Cued Face,Cued Place,Uncued Face,Uncued Place,Memory Image,Category,Cued Side,Cued Category,Attention Reaction Time (s),Familiarity Reaction Time (s),Familiarity Rating,Attention Level,Cue Validity,Post Invalid Cue,Pre Invalid Cue,Attention Button,Rating History,Stimulus Onset,Stimulus End,Attention Probe
110,7,Memory,2,,,,,,,sunabcuurugvxwparpk.jpg,,,,,1.442,4.0,,,,,,,1551371543.072009,1551371546.434681,
111,7,Memory,2,,,,,,,sunajbwkywmsqkldfml.jpg,,,,,1.176,1.0,,,,,,,1551371547.77414,1551371550.441272,
112,7,Memory,2,,,,,,,00086931230fa.jpg,,,,,1.592,1.0,,,,,,,1551371551.808767,1551371554.809615,
113,7,Memory,2,,,,,,,sunapmfmzadmosuogaz.jpg,,,,,1.56,1.0,,,,,,,1551371556.142677,1551371559.444135,
114,7,Memory,2,,,,,,,00901960530fa.jpg,,,,,1.309,1.0,,,,,,,1551371560.745382,1551371564.157019,
115,7,Memory,2,,,,,,,suncnkvbhypnivcohyx.jpg,,,,,1.776,2.0,,,,,,,1551371565.446201,1551371568.730748,
116,7,Memory,2,,,,,,,00969960627fa.jpg,,,,,1.942,1.0,,,,,,,1551371570.064533,1551371573.56489,
117,7,Memory,2,,,,,,,sunaivdjruhkrfywfed.jpg,,,,,1.393,2.0,,,,,,,1551371574.882918,1551371577.778267,
118,7,Memory,2,,,,,,,00633940928fa.jpg,,,,,1.077,3.0,,,,,,,1551371579.083241,1551371582.035258,
119,7,Memory,2,,,,,,,sunaofikylqtxphvdem.jpg,,,,,1.659,1.0,,,,,,,1551371583.335031,1551371586.533397,
120,7,Memory,2,,,,,,,sunaczwgyukesaajxnx.jpg,,,,,1.309,1.0,,,,,,,1551371587.836644,1551371590.651476,
121,7,Memory,2,,,,,,,00847940307fa.jpg,,,,,1.625,2.0,,,,,,,1551371591.971805,1551371595.025855,
122,7,Memory,2,,,,,,,00242940128fa.jpg,,,,,1.909,3.0,,,,,,,1551371596.356107,1551371599.434876,
123,7,Memory,2,,,,,,,00681941121fa.jpg,,,,,1.109,3.0,,,,,,,1551371600.741316,1551371603.519701,
124,7,Memory,2,,,,,,,00663941121fa.jpg,,,,,2.093,1.0,,,,,,,1551371604.792517,1551371608.057347,
125,7,Memory,2,,,,,,,00866940307fa.jpg,,,,,1.578,3.0,,,,,,,1551371609.35971,1551371612.72788,
126,7,Memory,2,,,,,,,sunapqkyghktgtosuuk.jpg,,,,,1.244,1.0,,,,,,,1551371614.044778,1551371616.974331,
127,7,Memory,2,,,,,,,sunammbnoambmhdxdwd.jpg,,,,,2.211,1.0,,,,,,,1551371618.296445,1551371621.576465,
128,7,Memory,2,,,,,,,sunagsiwrmuixqgdimb.jpg,,,,,2.65,1.0,,,,,,,1551371622.931421,1551371625.848723,
129,7,Memory,2,,,,,,,01010960627fa.jpg,,,,,0.0,,,,,,,,1551371627.149016,1551371629.17868,
130,7,Memory,2,,,,,,,00792941205fa.jpg,,,,,0.834,2.0,,,,,,,1551371630.445884,1551371632.449158,
131,7,Memory,2,,,,,,,sunaampvucecsfbdafn.jpg,,,,,0.699,1.0,,,,,,,1551371633.752003,1551371635.781007,
132,7,Memory,2,,,,,,,sunadnjjzohjhbohlwq.jpg,,,,,1.182,2.0,,,,,,,1551371637.085859,1551371639.07273,
133,7,Memory,2,,,,,,,00120931230fa.jpg,,,,,1.474,1.0,,,,,,,1551371640.453465,1551371642.433055,
134,7,Memory,2,,,,,,,sunaejnvnpltdmhbcsi.jpg,,,,,1.639,1.0,,,,,,,1551371643.704508,1551371645.735204,
135,7,Memory,2,,,,,,,00728941205fa.jpg,,,,,1.14,3.0,,,,,,,1551371647.039198,1551371649.058107,
136,7,Memory,2,,,,,,,00620940928fa.jpg,,,,,1.684,3.0,,,,,,,1551371650.357928,1551371652.454194,
137,7,Memory,2,,,,,,,sunaezuszgtxnmsxdbk.jpg,,,,,1.524,1.0,,,,,,,1551371653.758375,1551371655.787285,
138,7,Memory,2,,,,,,,sunacypmnujalygkunp.jpg,,,,,1.389,1.0,,,,,,,1551371657.076514,1551371659.054798,
139,7,Memory,2,,,,,,,sunadqmjrhfjyuzyvdd.jpg,,,,,1.025,1.0,,,,,,,1551371660.344576,1551371662.378754,
140,7,Memory,2,,,,,,,sunaakxgygjfqrzpyoz.jpg,,,,,1.425,1.0,,,,,,,1551371663.677564,1551371665.690712,
141,7,Memory,2,,,,,,,00127931230fa.jpg,,,,,0.971,4.0,,,,,,,1551371666.978462,1551371669.091668,
142,7,Memory,2,,,,,,,00922960627fa.jpg,,,,,1.206,2.0,,,,,,,1551371670.41379,1551371672.461494,
143,7,Memory,2,,,,,,,00751960620fa.jpg,,,,,1.926,4.0,,,,,,,1551371673.764284,1551371675.877547,
144,7,Memory,2,,,,,,,sunbaoizrfijvhpnnjn.jpg,,,,,1.924,1.0,,,,,,,1551371677.182312,1551371679.194295,
145,7,Memory,2,,,,,,,00630940928fa.jpg,,,,,1.472,2.0,,,,,,,1551371680.483987,1551371682.49538,
146,7,Memory,2,,,,,,,sunadbhmrgrrpyzglxs.jpg,,,,,1.126,1.0,,,,,,,1551371683.784018,1551371685.785516,
147,7,Memory,2,,,,,,,00919960620fa.jpg,,,,,1.258,2.0,,,,,,,1551371687.201933,1551371689.266093,
148,7,Memory,2,,,,,,,sunaafynehyrzpsoaml.jpg,,,,,1.241,1.0,,,,,,,1551371690.587763,1551371692.634239,
149,7,Memory,2,,,,,,,00910960530fa.jpg,,,,,0.883,1.0,,,,,,,1551371693.916348,1551371695.957355,
