,Subject,Trial Type,Run,Cued Composite,Uncued Composite,Cued Face,Cued Place,Uncued Face,Uncued Place,Memory Image,Category,Cued Side,Cued Category,Attention Reaction Time (s),Familiarity Reaction Time (s),Familiarity Rating,Attention Level,Cue Validity,Post Invalid Cue,Pre Invalid Cue,Attention Button,Rating History,Stimulus Onset,Stimulus End,Attention Probe
110,12,Memory,2,,,,,,,sunaaeplwsfslcbtojr.jpg,,,,,2.337,2.0,,,,,,,1539177872.4568,1539177874.891992,
111,12,Memory,2,,,,,,,sunaaylzyqlqrsmfwif.jpg,,,,,1.202,1.0,,,,,,,1539177876.258341,1539177878.676858,
112,12,Memory,2,,,,,,,sunauburywlkjszngcq.jpg,,,,,0.97,1.0,,,,,,,1539177880.092766,1539177882.42851,
113,12,Memory,2,,,,,,,00662941121fa.jpg,,,,,1.02,3.0,,,,,,,1539177883.829001,1539177886.194619,
114,12,Memory,2,,,,,,,sunabrwnslxalcohfre.jpg,,,,,1.221,4.0,,,,,,,1539177887.612632,1539177889.92952,
115,12,Memory,2,,,,,,,sunalcrtwiycqobgelp.jpg,,,,,1.019,4.0,,,,,,,1539177891.330484,1539177893.798798,
116,12,Memory,2,,,,,,,sunadkazmlajmohnwfl.jpg,,,,,1.153,2.0,,,,,,,1539177895.265051,1539177897.599124,
117,12,Memory,2,,,,,,,sunahrltmuwbiehihpe.jpg,,,,,0.719,1.0,,,,,,,1539177899.100001,1539177901.466323,
118,12,Memory,2,,,,,,,00869940307fa.jpg,,,,,1.07,1.0,,,,,,,1539177902.850342,1539177905.218008,
119,12,Memory,2,,,,,,,sundahdxwmcdluscvot.jpg,,,,,0.737,1.0,,,,,,,1539177906.650791,1539177908.903631,
120,12,Memory,2,,,,,,,00197940128fa.jpg,,,,,0.92,2.0,,,,,,,1539177910.285872,1539177912.854867,
121,12,Memory,2,,,,,,,00296940422fa.jpg,,,,,1.035,3.0,,,,,,,1539177914.255167,1539177916.655488,
122,12,Memory,2,,,,,,,00694941121fa.jpg,,,,,0.967,2.0,,,,,,,1539177918.039972,1539177920.423156,
123,12,Memory,2,,,,,,,00825940307fa.jpg,,,,,0.968,1.0,,,,,,,1539177921.807284,1539177924.291134,
124,12,Memory,2,,,,,,,00719960620fa.jpg,,,,,0.636,1.0,,,,,,,1539177925.642593,1539177928.075924,
125,12,Memory,2,,,,,,,00955960627fb.jpg,,,,,0.586,1.0,,,,,,,1539177929.4597,1539177931.876293,
126,12,Memory,2,,,,,,,00947960627fa.jpg,,,,,0.684,1.0,,,,,,,1539177933.310647,1539177935.745325,
127,12,Memory,2,,,,,,,sunadzuvtmtmgupotmf.jpg,,,,,0.721,1.0,,,,,,,1539177937.26131,1539177939.747393,
128,12,Memory,2,,,,,,,sunaipyohrqlwngaqif.jpg,,,,,1.551,2.0,,,,,,,1539177941.196173,1539177943.598162,
129,12,Memory,2,,,,,,,sunajoveqhiprwqgoco.jpg,,,,,0.0,,,,,,,,1539177945.015265,1539177947.481323,
130,12,Memory,2,,,,,,,00142931230fb.jpg,,,,,1.185,1.0,,,,,,,1539177948.916556,1539177951.249196,
131,12,Memory,2,,,,,,,00162931230fb.jpg,,,,,0.704,1.0,,,,,,,1539177952.66693,1539177955.001014,
132,12,Memory,2,,,,,,,00839940307fa.jpg,,,,,1.237,4.0,,,,,,,1539177956.41801,1539177958.802956,
133,12,Memory,2,,,,,,,00266940128fb.jpg,,,,,2.003,2.0,,,,,,,1539177960.286081,1539177962.653053,
134,12,Memory,2,,,,,,,sunaavchcbptaerhcfy.jpg,,,,,1.15,4.0,,,,,,,1539177964.07184,1539177966.520729,
135,12,Memory,2,,,,,,,sunabkngeblodihjvbk.jpg,,,,,0.721,4.0,,,,,,,1539177967.971871,1539177970.439794,
136,12,Memory,2,,,,,,,00774941201fa.jpg,,,,,0.935,1.0,,,,,,,1539177971.84029,1539177974.15766,
137,12,Memory,2,,,,,,,sunafvtpfczkzopbgue.jpg,,,,,0.919,3.0,,,,,,,1539177975.57359,1539177977.87513,
138,12,Memory,2,,,,,,,sunasmmcxdddtmtazwx.jpg,,,,,1.438,3.0,,,,,,,1539177979.29248,1539177981.792612,
139,12,Memory,2,,,,,,,sunaavjinpnkappuonm.jpg,,,,,1.62,3.0,,,,,,,1539177983.277212,1539177985.744302,
140,12,Memory,2,,,,,,,sunaapxkpvrhpjplsok.jpg,,,,,1.019,3.0,,,,,,,1539177987.1775,1539177989.51288,
141,12,Memory,2,,,,,,,01011960627fa.jpg,,,,,1.769,2.0,,,,,,,1539177990.928285,1539177993.313686,
142,12,Memory,2,,,,,,,00887960530.jpg,,,,,0.736,1.0,,,,,,,1539177994.73114,1539177997.114373,
143,12,Memory,2,,,,,,,00070940307fa.jpg,,,,,0.72,1.0,,,,,,,1539177998.698611,1539178001.132439,
144,12,Memory,2,,,,,,,sunaanlwnpqndclffxt.jpg,,,,,1.737,4.0,,,,,,,1539178002.532473,1539178004.983503,
145,12,Memory,2,,,,,,,00768941205fa.jpg,,,,,0.67,2.0,,,,,,,1539178006.384317,1539178008.835443,
146,12,Memory,2,,,,,,,sunafkmnlytenlsywia.jpg,,,,,1.467,3.0,,,,,,,1539178010.285158,1539178012.618594,
147,12,Memory,2,,,,,,,00158931230fb.jpg,,,,,1.07,1.0,,,,,,,1539178014.036882,1539178016.404245,
148,12,Memory,2,,,,,,,00133931230fa.jpg,,,,,0.837,1.0,,,,,,,1539178017.820473,1539178020.172399,
149,12,Memory,2,,,,,,,sunadrmfzmstgdjdcod.jpg,,,,,1.303,1.0,,,,,,,1539178021.572443,1539178023.990704,
