,Unnamed: 0,Subject,Trial Type,Run,Cued Composite,Uncued Composite,Cued Face,Cued Place,Uncued Face,Uncued Place,Memory Image,Category,Cued Side,Cued Category,Attention Reaction Time (s),Familiarity Reaction Time (s),Familiarity Rating,Attention Level,Cue Validity,Post Invalid Cue,Pre Invalid Cue,Attention Button,Rating History,Stimulus Onset,Stimulus End,Stimulus Start
0,10,KIRSTEN_LAST,Memory,0,,,,,,,sunaaxjpzcnxligjtjq.jpg,Place,,,,0.759,1.0,Full,,,,,,,1530913979.198223,1530913977.1398962
1,11,KIRSTEN_LAST,Memory,0,,,,,,,00529940519fa.jpg,,,,,0.489,2.0,Novel,,,,,,,1530913982.550306,1530913980.561356
2,12,KIRSTEN_LAST,Memory,0,,,,,,,00193940928fa.jpg,Face,,,,0.597,1.0,Side,,,,,,,1530913985.750612,1530913983.773252
3,13,KIRSTEN_LAST,Memory,0,,,,,,,00265940128fb.jpg,Face,,,,0.42200000000000004,4.0,Side,,,,,,,1530913988.9517288,1530913986.966156
4,14,KIRSTEN_LAST,Memory,0,,,,,,,00700941121fa.jpg,,,,,0.531,1.0,Novel,,,,,,,1530913992.153665,1530913990.173579
5,15,KIRSTEN_LAST,Memory,0,,,,,,,00970960627fa.jpg,Face,,,,1.504,2.0,None,,,,,,,1530913995.3530061,1530913993.36817
6,16,KIRSTEN_LAST,Memory,0,,,,,,,sunaavodbcpygkggnfp.jpg,,,,,1.431,3.0,Novel,,,,,,,1530913998.638185,1530913996.659769
7,17,KIRSTEN_LAST,Memory,0,,,,,,,00598941031fa.jpg,Face,,,,1.151,1.0,None,,,,,,,1530914001.855406,1530913999.873508
8,18,KIRSTEN_LAST,Memory,0,,,,,,,sunacxtcahkymosigud.jpg,Place,,,,0.535,2.0,Category,,,,,,,1530914005.073422,1530914003.09144
9,19,KIRSTEN_LAST,Memory,0,,,,,,,00130931230fa.jpg,Face,,,,0.956,3.0,Side,,,,,,,1530914008.275352,1530914006.288301
10,20,KIRSTEN_LAST,Memory,0,,,,,,,00779941205fa.jpg,,,,,1.155,3.0,Novel,,,,,,,1530914011.475747,1530914009.48963
11,21,KIRSTEN_LAST,Memory,0,,,,,,,sunaamvxnvouicstkjb.jpg,Place,,,,0.943,1.0,Full,,,,,,,1530914014.692919,1530914012.702508
12,22,KIRSTEN_LAST,Memory,0,,,,,,,sunaakgekhjklxmvulj.jpg,,,,,0.003,2.0,Novel,,,,,,,1530914017.912065,1530914015.918716
13,23,KIRSTEN_LAST,Memory,0,,,,,,,sunbasypfgzjtomktmu.jpg,Place,,,,0.688,4.0,Category,,,,,,,1530914021.111524,1530914019.125908
14,24,KIRSTEN_LAST,Memory,0,,,,,,,sunacbeefkxpymwevpk.jpg,,,,,0.823,2.0,Novel,,,,,,,1530914024.313504,1530914022.326947
15,25,KIRSTEN_LAST,Memory,0,,,,,,,sunagdzlvkqtpnfxfcg.jpg,,,,,1.071,3.0,Novel,,,,,,,1530914027.514757,1530914025.528176
16,26,KIRSTEN_LAST,Memory,0,,,,,,,00770941201fa.jpg,,,,,1.3159999999999998,1.0,Novel,,,,,,,1530914030.798801,1530914028.81761
17,27,KIRSTEN_LAST,Memory,0,,,,,,,00811960530fa.jpg,,,,,0.855,1.0,Novel,,,,,,,1530914034.032769,1530914032.045774
18,28,KIRSTEN_LAST,Memory,0,,,,,,,sunaakvmbftkrgqhjun.jpg,Place,,,,0.997,1.0,Category,,,,,,,1530914037.234228,1530914035.2555392
19,29,KIRSTEN_LAST,Memory,0,,,,,,,sunadsgmtznewzyasnk.jpg,,,,,1.004,3.0,Novel,,,,,,,1530914040.435071,1530914038.449318
20,30,KIRSTEN_LAST,Memory,0,,,,,,,00773941201fa.jpg,Face,,,,1.012,2.0,Side,,,,,,,1530914043.6526132,1530914041.659695
21,31,KIRSTEN_LAST,Memory,0,,,,,,,sunaampvucecsfbdafn.jpg,,,,,1.181,3.0,Novel,,,,,,,1530914046.853736,1530914044.874562
22,32,KIRSTEN_LAST,Memory,0,,,,,,,00071941031fa.jpg,Face,,,,1.0390000000000001,2.0,Side,,,,,,,1530914050.055134,1530914048.068213
23,33,KIRSTEN_LAST,Memory,0,,,,,,,sunafvcflzhlqloapyo.jpg,Place,,,,1.089,4.0,Full,,,,,,,1530914053.25596,1530914051.2693
24,34,KIRSTEN_LAST,Memory,0,,,,,,,sunaaexqbtdswxrqjvz.jpg,Place,,,,0.8340000000000001,4.0,Full,,,,,,,1530914056.4729881,1530914054.490311
25,35,KIRSTEN_LAST,Memory,0,,,,,,,00127931230fa.jpg,,,,,1.217,2.0,Novel,,,,,,,1530914059.7582018,1530914057.7767448
26,36,KIRSTEN_LAST,Memory,0,,,,,,,00119931230fb.jpg,Face,,,,1.022,1.0,None,,,,,,,1530914062.959579,1530914060.972816
27,37,KIRSTEN_LAST,Memory,0,,,,,,,sunahedfrhtcwpneund.jpg,,,,,0.805,1.0,Novel,,,,,,,1530914066.159837,1530914064.174053
28,38,KIRSTEN_LAST,Memory,0,,,,,,,00111931230fb.jpg,,,,,0.636,2.0,Novel,,,,,,,1530914069.378107,1530914067.394393
29,39,KIRSTEN_LAST,Memory,0,,,,,,,sunagtumacdlmciqamz.jpg,,,,,0.455,1.0,Novel,,,,,,,1530914072.5790641,1530914070.592241
30,40,KIRSTEN_LAST,Memory,0,,,,,,,sunaivflshbyfrfzhqb.jpg,Place,,,,1.611,3.0,Category,,,,,,,1530914075.92922,1530914073.937643
31,41,KIRSTEN_LAST,Memory,0,,,,,,,sunabkmdplkdbvxriff.jpg,Place,,,,1.358,4.0,Full,,,,,,,1530914079.1473892,1530914077.159038
32,42,KIRSTEN_LAST,Memory,0,,,,,,,sunafvsxtzaizojicxx.jpg,,,,,1.8880000000000001,2.0,Novel,,,,,,,1530914082.3486938,1530914080.364448
33,43,KIRSTEN_LAST,Memory,0,,,,,,,00851940307fa.jpg,Face,,,,1.238,1.0,None,,,,,,,1530914085.549792,1530914083.5642881
34,44,KIRSTEN_LAST,Memory,0,,,,,,,sunabckqabszusgcykj.jpg,Place,,,,1.2819999999999998,4.0,Category,,,,,,,1530914088.767932,1530914086.786579
35,45,KIRSTEN_LAST,Memory,0,,,,,,,00227940128fa.jpg,Face,,,,0.003,3.0,None,,,,,,,1530914091.969311,1530914089.98161
36,46,KIRSTEN_LAST,Memory,0,,,,,,,00773960620fa.jpg,,,,,0.722,2.0,Novel,,,,,,,1530914095.1691802,1530914093.182411
37,47,KIRSTEN_LAST,Memory,0,,,,,,,00163931230fb.jpg,,,,,0.746,1.0,Novel,,,,,,,1530914098.3703449,1530914096.393023
38,48,KIRSTEN_LAST,Memory,0,,,,,,,00795941205fa.jpg,,,,,0.49,1.0,Novel,,,,,,,1530914101.571455,1530914099.584184
39,49,KIRSTEN_LAST,Memory,0,,,,,,,sunaflojskatpeqyzqp.jpg,,,,,0.37200000000000005,2.0,Novel,,,,,,,1530914104.772862,1530914102.785769
40,60,KIRSTEN_LAST,Memory,1,,,,,,,00942960627fa.jpg,Face,,,,1.179,3.0,Full,,,,,,,1530914169.610218,1530914167.574003
41,61,KIRSTEN_LAST,Memory,1,,,,,,,00839940307fa.jpg,,,,,1.954,3.0,Novel,,,,,,,1530914172.828414,1530914170.844491
42,62,KIRSTEN_LAST,Memory,1,,,,,,,00859940307fa.jpg,Face,,,,1.671,2.0,Category,,,,,,,1530914176.028418,1530914174.044465
43,63,KIRSTEN_LAST,Memory,1,,,,,,,sunaakjaacuzulqckgl.jpg,Place,,,,0.0,,Side,,,,,,,1530914179.246453,1530914177.264197
44,64,KIRSTEN_LAST,Memory,1,,,,,,,sunagjeesomrwjsfqie.jpg,,,,,0.003,1.0,Novel,,,,,,,1530914182.481075,1530914180.494587
45,65,KIRSTEN_LAST,Memory,1,,,,,,,sunaemcowdozyphwknd.jpg,Place,,,,0.938,2.0,Side,,,,,,,1530914185.681937,1530914183.695346
46,66,KIRSTEN_LAST,Memory,1,,,,,,,00936960627fa.jpg,,,,,1.4680000000000002,3.0,Novel,,,,,,,1530914189.0171,1530914187.0343142
47,67,KIRSTEN_LAST,Memory,1,,,,,,,sunaaelotvjgibjtjhs.jpg,,,,,1.169,2.0,Novel,,,,,,,1530914192.21743,1530914190.233908
48,68,KIRSTEN_LAST,Memory,1,,,,,,,sunaeoghzrjarigmwua.jpg,,,,,1.8559999999999999,3.0,Novel,,,,,,,1530914195.41776,1530914193.43224
49,69,KIRSTEN_LAST,Memory,1,,,,,,,00743941201fa.jpg,,,,,1.506,4.0,Novel,,,,,,,1530914198.619822,1530914196.632626
50,70,KIRSTEN_LAST,Memory,1,,,,,,,sunaizeyhvjzknwjudw.jpg,,,,,1.462,3.0,Novel,,,,,,,1530914201.836994,1530914199.84394
51,71,KIRSTEN_LAST,Memory,1,,,,,,,00663941121fa.jpg,Face,,,,1.222,2.0,Full,,,,,,,1530914205.038938,1530914203.051069
52,72,KIRSTEN_LAST,Memory,1,,,,,,,sunabwjvmoaddlyxfjr.jpg,,,,,1.5090000000000001,3.0,Novel,,,,,,,1530914208.256349,1530914206.2661722
53,73,KIRSTEN_LAST,Memory,1,,,,,,,00574940928fa.jpg,Face,,,,1.732,3.0,Category,,,,,,,1530914211.456395,1530914209.476979
54,74,KIRSTEN_LAST,Memory,1,,,,,,,sunapqwoeotxshkukbh.jpg,Place,,,,0.96,2.0,None,,,,,,,1530914214.674717,1530914212.6829462
55,75,KIRSTEN_LAST,Memory,1,,,,,,,sunaajqmsaavkmgbsth.jpg,Place,,,,1.074,1.0,Side,,,,,,,1530914217.942717,1530914215.95411
56,76,KIRSTEN_LAST,Memory,1,,,,,,,sunadnjjzohjhbohlwq.jpg,Place,,,,1.1909999999999998,3.0,Side,,,,,,,1530914221.159875,1530914219.1717439
57,77,KIRSTEN_LAST,Memory,1,,,,,,,sunbxarcshsnqsefemx.jpg,,,,,1.271,1.0,Novel,,,,,,,1530914224.3612359,1530914222.375624
58,78,KIRSTEN_LAST,Memory,1,,,,,,,00953960627fa.jpg,Face,,,,1.456,1.0,Category,,,,,,,1530914227.5630322,1530914225.575801
59,79,KIRSTEN_LAST,Memory,1,,,,,,,00620940928fa.jpg,,,,,0.875,1.0,Novel,,,,,,,1530914230.862513,1530914228.872719
60,80,KIRSTEN_LAST,Memory,1,,,,,,,sunbpflsdaxnddnwcqi.jpg,Place,,,,0.958,1.0,None,,,,,,,1530914234.1144052,1530914232.125475
61,81,KIRSTEN_LAST,Memory,1,,,,,,,00783941205fa.jpg,,,,,1.6540000000000001,3.0,Novel,,,,,,,1530914237.315632,1530914235.330359
62,82,KIRSTEN_LAST,Memory,1,,,,,,,00101931230fb.jpg,Face,,,,0.956,2.0,Full,,,,,,,1530914240.566114,1530914238.578266
63,83,KIRSTEN_LAST,Memory,1,,,,,,,00062931230fb.jpg,,,,,1.005,2.0,Novel,,,,,,,1530914243.784259,1530914241.79825
64,84,KIRSTEN_LAST,Memory,1,,,,,,,sunacvbrcejzwmcgnoq.jpg,Place,,,,1.055,3.0,None,,,,,,,1530914246.985183,1530914244.998812
65,85,KIRSTEN_LAST,Memory,1,,,,,,,01007960627fa.jpg,,,,,1.3319999999999999,3.0,Novel,,,,,,,1530914250.252653,1530914248.273425
66,86,KIRSTEN_LAST,Memory,1,,,,,,,sunacypmnujalygkunp.jpg,,,,,1.189,2.0,Novel,,,,,,,1530914253.470721,1530914251.484544
67,87,KIRSTEN_LAST,Memory,1,,,,,,,sunaiycurtqsfkvcaso.jpg,Place,,,,1.329,3.0,None,,,,,,,1530914256.671664,1530914254.694229
68,88,KIRSTEN_LAST,Memory,1,,,,,,,00741941201fa.jpg,Face,,,,0.8290000000000001,1.0,Full,,,,,,,1530914259.872255,1530914257.896384
69,89,KIRSTEN_LAST,Memory,1,,,,,,,sunaipyohrqlwngaqif.jpg,,,,,1.689,2.0,Novel,,,,,,,1530914263.074142,1530914261.0872731
70,90,KIRSTEN_LAST,Memory,1,,,,,,,00648941031fa.jpg,,,,,0.67,1.0,Novel,,,,,,,1530914266.274298,1530914264.289399
71,91,KIRSTEN_LAST,Memory,1,,,,,,,sunatstrpjxhvtbaczf.jpg,Place,,,,0.738,1.0,None,,,,,,,1530914269.4753711,1530914267.49019
72,92,KIRSTEN_LAST,Memory,1,,,,,,,00112931230fa.jpg,Face,,,,0.672,1.0,Full,,,,,,,1530914272.676759,1530914270.690542
73,93,KIRSTEN_LAST,Memory,1,,,,,,,00313940422fa.jpg,,,,,0.685,1.0,Novel,,,,,,,1530914275.89468,1530914273.911148
74,94,KIRSTEN_LAST,Memory,1,,,,,,,sunadfndyrtqqiasoig.jpg,,,,,0.637,1.0,Novel,,,,,,,1530914279.0959618,1530914277.110909
75,95,KIRSTEN_LAST,Memory,1,,,,,,,00860940307fa.jpg,,,,,0.705,1.0,Novel,,,,,,,1530914282.297149,1530914280.310348
76,96,KIRSTEN_LAST,Memory,1,,,,,,,00990960627fa.jpg,Face,,,,0.455,1.0,Category,,,,,,,1530914285.497392,1530914283.511529
77,97,KIRSTEN_LAST,Memory,1,,,,,,,sunarfdklgdnjgeqfjg.jpg,Place,,,,0.8059999999999999,1.0,Side,,,,,,,1530914288.6985939,1530914286.711911
78,98,KIRSTEN_LAST,Memory,1,,,,,,,00926960627Fa.jpg,Face,,,,0.5720000000000001,2.0,Category,,,,,,,1530914291.899666,1530914289.912666
79,99,KIRSTEN_LAST,Memory,1,,,,,,,sunaqgjuuwvdcyiccjt.jpg,,,,,1.58,3.0,Novel,,,,,,,1530914295.0998971,1530914293.121995
80,110,KIRSTEN_LAST,Memory,2,,,,,,,sunaafbmtoniaasysgu.jpg,Place,,,,1.571,3.0,Full,,,,,,,1530914350.334597,1530914348.291747
81,111,KIRSTEN_LAST,Memory,2,,,,,,,sunaakxjfbrrequcjmx.jpg,Place,,,,0.9940000000000001,1.0,Category,,,,,,,1530914353.552993,1530914351.561445
82,112,KIRSTEN_LAST,Memory,2,,,,,,,sunafhmnhsdurlvddpw.jpg,,,,,1.474,2.0,Novel,,,,,,,1530914356.7701788,1530914354.782208
83,113,KIRSTEN_LAST,Memory,2,,,,,,,00209940128fb.jpg,,,,,0.951,1.0,Novel,,,,,,,1530914359.988456,1530914358.00632
84,114,KIRSTEN_LAST,Memory,2,,,,,,,00816941205fa.jpg,,,,,1.172,2.0,Novel,,,,,,,1530914363.189467,1530914361.202852
85,115,KIRSTEN_LAST,Memory,2,,,,,,,sunbwyuesflwdpqtgoy.jpg,Place,,,,0.0,,Category,,,,,,,1530914366.5227711,1530914364.530199
86,116,KIRSTEN_LAST,Memory,2,,,,,,,suncnkvbhypnivcohyx.jpg,Place,,,,0.003,1.0,Full,,,,,,,1530914369.723968,1530914367.738652
87,117,KIRSTEN_LAST,Memory,2,,,,,,,sunaahzooisqkwlxwoz.jpg,Place,,,,0.003,3.0,Full,,,,,,,1530914372.925951,1530914370.947536
88,118,KIRSTEN_LAST,Memory,2,,,,,,,sunaawqdbpihmlbwyyn.jpg,Place,,,,0.805,1.0,Category,,,,,,,1530914376.1270301,1530914374.1405609
89,119,KIRSTEN_LAST,Memory,2,,,,,,,00797960620fa.jpg,,,,,0.643,1.0,Novel,,,,,,,1530914379.345227,1530914377.353685
90,120,KIRSTEN_LAST,Memory,2,,,,,,,00308940422fb.jpg,,,,,0.759,1.0,Novel,,,,,,,1530914382.562562,1530914380.571667
91,121,KIRSTEN_LAST,Memory,2,,,,,,,00753941201fa.jpg,,,,,0.754,1.0,Novel,,,,,,,1530914385.763641,1530914383.778074
92,122,KIRSTEN_LAST,Memory,2,,,,,,,00804960530fa.jpg,Face,,,,0.754,1.0,Side,,,,,,,1530914388.964066,1530914386.979276
93,123,KIRSTEN_LAST,Memory,2,,,,,,,sunabwfvcqqidycwypa.jpg,,,,,0.855,1.0,Novel,,,,,,,1530914392.16594,1530914390.1785939
94,124,KIRSTEN_LAST,Memory,2,,,,,,,sunaknlirqjqiwbbeeg.jpg,Place,,,,1.305,3.0,Full,,,,,,,1530914395.367027,1530914393.380701
95,125,KIRSTEN_LAST,Memory,2,,,,,,,sunafgzgbisbopcyslr.jpg,,,,,1.273,1.0,Novel,,,,,,,1530914398.56824,1530914396.580751
96,126,KIRSTEN_LAST,Memory,2,,,,,,,00092931230fa.jpg,Face,,,,1.102,2.0,None,,,,,,,1530914401.7853858,1530914399.802107
97,127,KIRSTEN_LAST,Memory,2,,,,,,,sunaatjesvdupctftmn.jpg,Place,,,,0.9590000000000001,4.0,Category,,,,,,,1530914405.003035,1530914403.013159
98,128,KIRSTEN_LAST,Memory,2,,,,,,,sunafcofuuzebuadceo.jpg,,,,,0.924,3.0,Novel,,,,,,,1530914408.2207391,1530914406.232419
99,129,KIRSTEN_LAST,Memory,2,,,,,,,01005960627fa.jpg,Face,,,,1.3969999999999998,2.0,None,,,,,,,1530914411.4551198,1530914409.476857
100,130,KIRSTEN_LAST,Memory,2,,,,,,,00122931230fa.jpg,Face,,,,1.429,1.0,None,,,,,,,1530914414.672457,1530914412.680326
101,131,KIRSTEN_LAST,Memory,2,,,,,,,00245940128fa.jpg,,,,,0.905,1.0,Novel,,,,,,,1530914417.873585,1530914415.8871222
102,132,KIRSTEN_LAST,Memory,2,,,,,,,sunabaergayifsgacxt.jpg,,,,,1.202,1.0,Novel,,,,,,,1530914421.2084289,1530914419.225767
103,133,KIRSTEN_LAST,Memory,2,,,,,,,sunagwswhkvnsmuszlz.jpg,Place,,,,1.015,1.0,Full,,,,,,,1530914424.408867,1530914422.430167
104,134,KIRSTEN_LAST,Memory,2,,,,,,,01010960627fa.jpg,Face,,,,1.216,1.0,Side,,,,,,,1530914427.743905,1530914425.763263
105,135,KIRSTEN_LAST,Memory,2,,,,,,,00882960530fa.jpg,Face,,,,0.997,3.0,Side,,,,,,,1530914430.944012,1530914428.9660392
106,136,KIRSTEN_LAST,Memory,2,,,,,,,sunagufzbeteqdjxais.jpg,,,,,1.742,3.0,Novel,,,,,,,1530914434.1624491,1530914432.17273
107,137,KIRSTEN_LAST,Memory,2,,,,,,,sunahmhrncocyhsjpxk.jpg,,,,,1.406,2.0,Novel,,,,,,,1530914437.36359,1530914435.376532
108,138,KIRSTEN_LAST,Memory,2,,,,,,,sunaaheqzstzxuadglu.jpg,Place,,,,0.975,4.0,Category,,,,,,,1530914440.580547,1530914438.592351
109,139,KIRSTEN_LAST,Memory,2,,,,,,,00073931230fa.jpg,Face,,,,1.339,1.0,Side,,,,,,,1530914443.781726,1530914441.794875
110,140,KIRSTEN_LAST,Memory,2,,,,,,,00185940422fb.jpg,Face,,,,0.955,2.0,None,,,,,,,1530914446.9829972,1530914444.996595
111,141,KIRSTEN_LAST,Memory,2,,,,,,,00762941201fa.jpg,,,,,1.222,3.0,Novel,,,,,,,1530914450.18326,1530914448.198399
112,142,KIRSTEN_LAST,Memory,2,,,,,,,sunahgtbwgsmtqeodwh.jpg,,,,,1.9269999999999998,2.0,Novel,,,,,,,1530914453.5354471,1530914451.5440712
113,143,KIRSTEN_LAST,Memory,2,,,,,,,sunabrlndkruqokhury.jpg,,,,,1.42,2.0,Novel,,,,,,,1530914456.8854651,1530914454.900773
114,144,KIRSTEN_LAST,Memory,2,,,,,,,00812941205fa.jpg,,,,,1.005,1.0,Novel,,,,,,,1530914460.0867689,1530914458.1018538
115,145,KIRSTEN_LAST,Memory,2,,,,,,,00763941205fa.jpg,,,,,0.873,1.0,Novel,,,,,,,1530914463.2886212,1530914461.301944
116,146,KIRSTEN_LAST,Memory,2,,,,,,,00145931230fb.jpg,Face,,,,0.9059999999999999,1.0,None,,,,,,,1530914466.489067,1530914464.502455
117,147,KIRSTEN_LAST,Memory,2,,,,,,,00294940422fb.jpg,,,,,0.821,1.0,Novel,,,,,,,1530914469.691057,1530914467.704366
118,148,KIRSTEN_LAST,Memory,2,,,,,,,00095931230fa.jpg,Face,,,,0.789,1.0,Side,,,,,,,1530914472.891442,1530914470.904874
119,149,KIRSTEN_LAST,Memory,2,,,,,,,sunabeyhmxodahoieyk.jpg,,,,,0.9590000000000001,4.0,Novel,,,,,,,1530914476.108521,1530914474.119087
120,160,KIRSTEN_LAST,Memory,3,,,,,,,00481940519fa.jpg,,,,,1.33,3.0,Novel,,,,,,,1530914541.2469552,1530914539.209991
121,161,KIRSTEN_LAST,Memory,3,,,,,,,sunaptrqvaooxfvktvw.jpg,,,,,1.484,3.0,Novel,,,,,,,1530914544.531191,1530914542.549412
122,162,KIRSTEN_LAST,Memory,3,,,,,,,sunbagfpovqwbuexqdn.jpg,,,,,1.091,3.0,Novel,,,,,,,1530914547.7494519,1530914545.759808
123,163,KIRSTEN_LAST,Memory,3,,,,,,,00967960627fa.jpg,,,,,1.645,1.0,Novel,,,,,,,1530914550.949519,1530914548.974189
124,164,KIRSTEN_LAST,Memory,3,,,,,,,sunanainkqdvktzoxyl.jpg,,,,,1.179,3.0,Novel,,,,,,,1530914554.150644,1530914552.1742089
125,165,KIRSTEN_LAST,Memory,3,,,,,,,sunaakxgygjfqrzpyoz.jpg,,,,,0.924,2.0,Novel,,,,,,,1530914557.369709,1530914555.380729
126,166,KIRSTEN_LAST,Memory,3,,,,,,,00210940128fb.jpg,Face,,,,1.047,1.0,Side,,,,,,,1530914560.703026,1530914558.7248561
127,167,KIRSTEN_LAST,Memory,3,,,,,,,sunabueyoajufbkraki.jpg,,,,,1.411,1.0,Novel,,,,,,,1530914563.921149,1530914561.928428
128,168,KIRSTEN_LAST,Memory,3,,,,,,,sunadrmfzmstgdjdcod.jpg,,,,,1.155,1.0,Novel,,,,,,,1530914567.1223269,1530914565.135733
129,169,KIRSTEN_LAST,Memory,3,,,,,,,sunbwdrdvsweerwsdrj.jpg,Place,,,,1.276,3.0,Full,,,,,,,1530914570.3396368,1530914568.349031
130,170,KIRSTEN_LAST,Memory,3,,,,,,,00776941205fa.jpg,Face,,,,0.907,1.0,None,,,,,,,1530914573.5406141,1530914571.552639
131,171,KIRSTEN_LAST,Memory,3,,,,,,,sunaaeowapdkwzqpgqr.jpg,Place,,,,0.904,1.0,Category,,,,,,,1530914576.8418,1530914574.856739
132,172,KIRSTEN_LAST,Memory,3,,,,,,,00540940519fa.jpg,Face,,,,0.937,1.0,Side,,,,,,,1530914580.042952,1530914578.0578651
133,173,KIRSTEN_LAST,Memory,3,,,,,,,sunacycdoztxoluxjyk.jpg,Place,,,,1.036,2.0,Category,,,,,,,1530914583.260324,1530914581.276543
134,174,KIRSTEN_LAST,Memory,3,,,,,,,00694941121fa.jpg,,,,,1.511,3.0,Novel,,,,,,,1530914586.4783869,1530914584.485922
135,175,KIRSTEN_LAST,Memory,3,,,,,,,00120931230fa.jpg,,,,,0.9890000000000001,1.0,Novel,,,,,,,1530914589.6786711,1530914587.692455
136,176,KIRSTEN_LAST,Memory,3,,,,,,,00957960627fa.jpg,Face,,,,0.003,2.0,None,,,,,,,1530914592.896675,1530914590.906051
137,177,KIRSTEN_LAST,Memory,3,,,,,,,00306940422fa.jpg,,,,,1.321,3.0,Novel,,,,,,,1530914596.096987,1530914594.112242
138,178,KIRSTEN_LAST,Memory,3,,,,,,,00836940307fa.jpg,,,,,0.8240000000000001,1.0,Novel,,,,,,,1530914599.31584,1530914597.3275552
139,179,KIRSTEN_LAST,Memory,3,,,,,,,sunaeuvjbmdpknaqqaj.jpg,Place,,,,0.8270000000000001,2.0,Full,,,,,,,1530914602.533317,1530914600.540785
140,180,KIRSTEN_LAST,Memory,3,,,,,,,00609940928fa.jpg,Face,,,,0.7240000000000001,1.0,None,,,,,,,1530914605.75148,1530914603.763442
141,181,KIRSTEN_LAST,Memory,3,,,,,,,00968960627fa.jpg,,,,,1.7719999999999998,1.0,Novel,,,,,,,1530914608.951596,1530914606.966108
142,182,KIRSTEN_LAST,Memory,3,,,,,,,sunafxokyavhgptyfye.jpg,Place,,,,1.12,3.0,Category,,,,,,,1530914612.153821,1530914610.167871
143,183,KIRSTEN_LAST,Memory,3,,,,,,,00069931230fb.jpg,Face,,,,0.805,2.0,None,,,,,,,1530914615.3538811,1530914613.368442
144,184,KIRSTEN_LAST,Memory,3,,,,,,,sunabxsuqbleluwczoy.jpg,,,,,1.703,4.0,Novel,,,,,,,1530914618.572078,1530914616.588517
145,185,KIRSTEN_LAST,Memory,3,,,,,,,00903960620fa.jpg,,,,,0.8220000000000001,3.0,Novel,,,,,,,1530914621.772391,1530914619.786011
146,186,KIRSTEN_LAST,Memory,3,,,,,,,sunbaejotfklekvpxcz.jpg,,,,,1.103,2.0,Novel,,,,,,,1530914625.074302,1530914623.089943
147,187,KIRSTEN_LAST,Memory,3,,,,,,,sunaamsdyakblkfoydx.jpg,Place,,,,0.821,3.0,Full,,,,,,,1530914628.274711,1530914626.288288
148,188,KIRSTEN_LAST,Memory,3,,,,,,,sunavhxgmgrqsaptynb.jpg,Place,,,,1.147,1.0,Category,,,,,,,1530914631.475602,1530914629.49872
149,189,KIRSTEN_LAST,Memory,3,,,,,,,01003960627fb.jpg,Face,,,,0.948,2.0,Side,,,,,,,1530914634.676809,1530914632.698852
150,190,KIRSTEN_LAST,Memory,3,,,,,,,sunacdnquypmsshhsbk.jpg,Place,,,,1.663,1.0,Full,,,,,,,1530914637.878979,1530914635.900988
151,191,KIRSTEN_LAST,Memory,3,,,,,,,00931960627fa.jpg,,,,,0.843,1.0,Novel,,,,,,,1530914641.095528,1530914639.104735
152,192,KIRSTEN_LAST,Memory,3,,,,,,,sunacfdkbsrughwqwtt.jpg,Place,,,,1.0390000000000001,4.0,Category,,,,,,,1530914644.2966962,1530914642.311264
153,193,KIRSTEN_LAST,Memory,3,,,,,,,sunabanoxjtqxamkucc.jpg,Place,,,,1.359,2.0,Full,,,,,,,1530914647.5147722,1530914645.524405
154,194,KIRSTEN_LAST,Memory,3,,,,,,,00749941201fa.jpg,Face,,,,1.0270000000000001,1.0,Side,,,,,,,1530914650.848736,1530914648.857305
155,195,KIRSTEN_LAST,Memory,3,,,,,,,sunacxeheuiigkcgquf.jpg,,,,,1.063,3.0,Novel,,,,,,,1530914654.1839519,1530914652.206607
156,196,KIRSTEN_LAST,Memory,3,,,,,,,00129931230fb.jpg,Face,,,,1.006,1.0,Side,,,,,,,1530914657.3850179,1530914655.39749
157,197,KIRSTEN_LAST,Memory,3,,,,,,,00598940928fa.jpg,,,,,0.9570000000000001,1.0,Novel,,,,,,,1530914660.60151,1530914658.614299
158,198,KIRSTEN_LAST,Memory,3,,,,,,,sunainqelldeebvxtcz.jpg,,,,,1.324,4.0,Novel,,,,,,,1530914663.819717,1530914661.831439
159,199,KIRSTEN_LAST,Memory,3,,,,,,,00554940519fa.jpg,Face,,,,1.32,1.0,None,,,,,,,1530914667.019799,1530914665.035922
160,210,KIRSTEN_LAST,Memory,4,,,,,,,00900960530fa.jpg,,,,,1.298,1.0,Novel,,,,,,,1530914723.372819,1530914721.3349211
161,211,KIRSTEN_LAST,Memory,4,,,,,,,sunajtrfunvzdfticna.jpg,,,,,1.022,2.0,Novel,,,,,,,1530914726.640035,1530914724.652791
162,212,KIRSTEN_LAST,Memory,4,,,,,,,00972960627fa.jpg,Face,,,,0.003,3.0,Category,,,,,,,1530914729.874941,1530914727.897577
163,213,KIRSTEN_LAST,Memory,4,,,,,,,00133931230fa.jpg,,,,,1.6580000000000001,1.0,Novel,,,,,,,1530914733.159275,1530914731.1707199
164,214,KIRSTEN_LAST,Memory,4,,,,,,,00162931230fb.jpg,,,,,0.988,1.0,Novel,,,,,,,1530914736.360244,1530914734.373534
165,215,KIRSTEN_LAST,Memory,4,,,,,,,sunbbfqwjpdxniyhies.jpg,Place,,,,0.579,2.0,None,,,,,,,1530914739.577568,1530914737.585448
166,216,KIRSTEN_LAST,Memory,4,,,,,,,sunaeutbrtswvsozxyk.jpg,Place,,,,1.064,3.0,None,,,,,,,1530914742.778918,1530914740.798718
167,217,KIRSTEN_LAST,Memory,4,,,,,,,00884960530fa.jpg,Face,,,,1.156,1.0,Full,,,,,,,1530914745.979897,1530914743.9929998
168,218,KIRSTEN_LAST,Memory,4,,,,,,,sunajwqkfsykceonyig.jpg,Place,,,,0.86,1.0,None,,,,,,,1530914749.197139,1530914747.206898
169,219,KIRSTEN_LAST,Memory,4,,,,,,,00290940422fa.jpg,Face,,,,0.8059999999999999,1.0,Full,,,,,,,1530914752.449229,1530914750.461075
170,220,KIRSTEN_LAST,Memory,4,,,,,,,00996960627fa.jpg,Face,,,,0.8029999999999999,1.0,Full,,,,,,,1530914755.64856,1530914753.664617
171,221,KIRSTEN_LAST,Memory,4,,,,,,,00782941205fa.jpg,,,,,0.823,4.0,Novel,,,,,,,1530914758.850426,1530914756.86393
172,222,KIRSTEN_LAST,Memory,4,,,,,,,01011960627fa.jpg,,,,,1.505,3.0,Novel,,,,,,,1530914762.050891,1530914760.0652359
173,223,KIRSTEN_LAST,Memory,4,,,,,,,00725941201fa.jpg,Face,,,,1.435,2.0,Category,,,,,,,1530914765.269226,1530914763.286071
174,224,KIRSTEN_LAST,Memory,4,,,,,,,00979960627fa.jpg,,,,,1.3719999999999999,3.0,Novel,,,,,,,1530914768.470219,1530914766.48453
175,225,KIRSTEN_LAST,Memory,4,,,,,,,sunaefgzwiramypjvtd.jpg,Place,,,,1.321,3.0,None,,,,,,,1530914771.670448,1530914769.6853971
176,226,KIRSTEN_LAST,Memory,4,,,,,,,sunbpvgllfdejxcpjqp.jpg,Place,,,,0.773,3.0,Side,,,,,,,1530914774.8886971,1530914772.901176
177,227,KIRSTEN_LAST,Memory,4,,,,,,,sunantryfbloeaomfta.jpg,,,,,1.28,2.0,Novel,,,,,,,1530914778.106806,1530914776.113462
178,228,KIRSTEN_LAST,Memory,4,,,,,,,sunabbwggenhfbftyvi.jpg,,,,,1.545,1.0,Novel,,,,,,,1530914781.3079019,1530914779.3307788
179,229,KIRSTEN_LAST,Memory,4,,,,,,,sunahctntqrunhdxhtb.jpg,Place,,,,1.9609999999999999,4.0,Side,,,,,,,1530914784.525073,1530914782.534492
180,230,KIRSTEN_LAST,Memory,4,,,,,,,00197940128fa.jpg,,,,,0.7140000000000001,2.0,Novel,,,,,,,1530914787.7271268,1530914785.747802
181,231,KIRSTEN_LAST,Memory,4,,,,,,,00906960530fa.jpg,,,,,1.041,2.0,Novel,,,,,,,1530914790.943354,1530914788.9552631
182,232,KIRSTEN_LAST,Memory,4,,,,,,,sunakodkcslgqhqlgwl.jpg,Place,,,,1.4,1.0,Side,,,,,,,1530914794.145608,1530914792.1652632
183,233,KIRSTEN_LAST,Memory,4,,,,,,,00184940128fa.jpg,Face,,,,0.9059999999999999,1.0,Full,,,,,,,1530914797.347542,1530914795.359608
184,234,KIRSTEN_LAST,Memory,4,,,,,,,00876960620fa.jpg,Face,,,,0.785,1.0,Category,,,,,,,1530914800.563571,1530914798.580622
185,235,KIRSTEN_LAST,Memory,4,,,,,,,sunaavjinpnkappuonm.jpg,,,,,0.94,1.0,Novel,,,,,,,1530914803.765872,1530914801.7778552
186,236,KIRSTEN_LAST,Memory,4,,,,,,,00747941201fa.jpg,Face,,,,0.726,1.0,Category,,,,,,,1530914807.099291,1530914805.109239
187,237,KIRSTEN_LAST,Memory,4,,,,,,,sunbdycacjfaujxitbw.jpg,,,,,1.1640000000000001,2.0,Novel,,,,,,,1530914810.301194,1530914808.322911
188,238,KIRSTEN_LAST,Memory,4,,,,,,,sunamczizlzavhzhpay.jpg,Place,,,,0.0,,None,,,,,,,1530914813.502288,1530914811.515417
189,239,KIRSTEN_LAST,Memory,4,,,,,,,00895960530fa.jpg,Face,,,,0.003,1.0,Category,,,,,,,1530914816.718494,1530914814.726149
190,240,KIRSTEN_LAST,Memory,4,,,,,,,sunaaylzyqlqrsmfwif.jpg,,,,,1.089,2.0,Novel,,,,,,,1530914819.920675,1530914817.933694
191,241,KIRSTEN_LAST,Memory,4,,,,,,,sunamlotskmmsjeogby.jpg,,,,,0.9259999999999999,4.0,Novel,,,,,,,1530914823.1382551,1530914821.146873
192,242,KIRSTEN_LAST,Memory,4,,,,,,,sunaavtbadenwnzeutj.jpg,Place,,,,1.844,3.0,Side,,,,,,,1530914826.47222,1530914824.481011
193,243,KIRSTEN_LAST,Memory,4,,,,,,,sunaanlwnpqndclffxt.jpg,,,,,1.156,3.0,Novel,,,,,,,1530914829.689586,1530914827.703959
194,244,KIRSTEN_LAST,Memory,4,,,,,,,00218940128fa.jpg,,,,,1.29,2.0,Novel,,,,,,,1530914832.890712,1530914830.904392
195,245,KIRSTEN_LAST,Memory,4,,,,,,,sunagfvluwixdsozaql.jpg,,,,,1.5719999999999998,1.0,Novel,,,,,,,1530914836.091795,1530914834.105635
196,246,KIRSTEN_LAST,Memory,4,,,,,,,00810941205fa.jpg,Face,,,,1.02,1.0,Full,,,,,,,1530914839.326991,1530914837.343443
197,247,KIRSTEN_LAST,Memory,4,,,,,,,sunabqowuarvqqcnipn.jpg,Place,,,,1.122,4.0,Side,,,,,,,1530914842.528274,1530914840.541014
198,248,KIRSTEN_LAST,Memory,4,,,,,,,00874940307fa.jpg,,,,,1.155,1.0,Novel,,,,,,,1530914845.7290142,1530914843.742444
199,249,KIRSTEN_LAST,Memory,4,,,,,,,sundahdxwmcdluscvot.jpg,,,,,0.9420000000000001,1.0,Novel,,,,,,,1530914848.947245,1530914846.9569302
200,260,KIRSTEN_LAST,Memory,5,,,,,,,00483940519fa.jpg,,,,,1.301,1.0,Novel,,,,,,,1530914905.964292,1530914903.9227462
201,261,KIRSTEN_LAST,Memory,5,,,,,,,sunafbwnojpqeyzssoe.jpg,,,,,1.03,3.0,Novel,,,,,,,1530914909.165583,1530914907.187433
202,262,KIRSTEN_LAST,Memory,5,,,,,,,sunaeisnjeetzmkbuad.jpg,Place,,,,1.158,2.0,Side,,,,,,,1530914912.383769,1530914910.394217
203,263,KIRSTEN_LAST,Memory,5,,,,,,,00115931230fa.jpg,Face,,,,0.9440000000000001,1.0,Category,,,,,,,1530914915.60109,1530914913.609698
204,264,KIRSTEN_LAST,Memory,5,,,,,,,sunabasphceswhwwqvv.jpg,Place,,,,1.2570000000000001,3.0,Side,,,,,,,1530914918.819184,1530914916.830064
205,265,KIRSTEN_LAST,Memory,5,,,,,,,00963960627fa.jpg,,,,,1.3,3.0,Novel,,,,,,,1530914922.020205,1530914920.038793
206,266,KIRSTEN_LAST,Memory,5,,,,,,,00973960627fa.jpg,Face,,,,0.987,2.0,Category,,,,,,,1530914925.221357,1530914923.236367
207,267,KIRSTEN_LAST,Memory,5,,,,,,,00144931230fb.jpg,,,,,0.893,1.0,Novel,,,,,,,1530914928.505916,1530914926.515356
208,268,KIRSTEN_LAST,Memory,5,,,,,,,00267940128fb.jpg,,,,,0.8909999999999999,3.0,Novel,,,,,,,1530914931.72297,1530914929.7339609
209,269,KIRSTEN_LAST,Memory,5,,,,,,,sunanwjjyqqwzqrqagd.jpg,,,,,0.0,,Novel,,,,,,,1530914934.941068,1530914932.95782
210,270,KIRSTEN_LAST,Memory,5,,,,,,,00803941205fa.jpg,Face,,,,0.003,4.0,Full,,,,,,,1530914938.1592278,1530914936.17749
211,271,KIRSTEN_LAST,Memory,5,,,,,,,sunaanptmsknhirrzed.jpg,,,,,1.304,3.0,Novel,,,,,,,1530914941.3761349,1530914939.390452
212,272,KIRSTEN_LAST,Memory,5,,,,,,,00822940307fa.jpg,Face,,,,0.8390000000000001,2.0,Full,,,,,,,1530914944.577766,1530914942.591307
213,273,KIRSTEN_LAST,Memory,5,,,,,,,sunaetydippjxikifsb.jpg,Place,,,,1.0290000000000001,1.0,None,,,,,,,1530914947.812536,1530914945.835119
214,274,KIRSTEN_LAST,Memory,5,,,,,,,sunagvxkjokqimstxpe.jpg,Place,,,,1.538,2.0,Side,,,,,,,1530914951.01211,1530914949.026795
215,275,KIRSTEN_LAST,Memory,5,,,,,,,00136931230fb.jpg,,,,,0.9890000000000001,2.0,Novel,,,,,,,1530914954.213162,1530914952.227622
216,276,KIRSTEN_LAST,Memory,5,,,,,,,00727941205fa.jpg,Face,,,,0.888,1.0,Full,,,,,,,1530914957.415149,1530914955.427767
217,277,KIRSTEN_LAST,Memory,5,,,,,,,00908960530fa.jpg,,,,,1.39,1.0,Novel,,,,,,,1530914960.6324232,1530914958.643393
218,278,KIRSTEN_LAST,Memory,5,,,,,,,00131931230fb.jpg,Face,,,,0.8079999999999999,2.0,Category,,,,,,,1530914963.850508,1530914961.860757
219,279,KIRSTEN_LAST,Memory,5,,,,,,,sunbbgtoeuzierkkajt.jpg,Place,,,,1.2690000000000001,2.0,None,,,,,,,1530914967.1676538,1530914965.18431
220,280,KIRSTEN_LAST,Memory,5,,,,,,,sunablfqiwfqomjarht.jpg,,,,,0.6970000000000001,2.0,Novel,,,,,,,1530914970.3688,1530914968.390099
221,281,KIRSTEN_LAST,Memory,5,,,,,,,00752960620fa.jpg,,,,,0.922,2.0,Novel,,,,,,,1530914973.569908,1530914971.5839882
222,282,KIRSTEN_LAST,Memory,5,,,,,,,sunaakmxzhuceuiryah.jpg,Place,,,,1.395,3.0,None,,,,,,,1530914976.787245,1530914974.795438
223,283,KIRSTEN_LAST,Memory,5,,,,,,,00109931230fa.jpg,,,,,1.038,2.0,Novel,,,,,,,1530914980.0055661,1530914978.020659
224,284,KIRSTEN_LAST,Memory,5,,,,,,,sunaangbuylfvckqqoo.jpg,Place,,,,0.927,2.0,None,,,,,,,1530914983.2237608,1530914981.230779
225,285,KIRSTEN_LAST,Memory,5,,,,,,,sunaauglwmctnkxyird.jpg,Place,,,,0.754,3.0,Side,,,,,,,1530914986.423893,1530914984.438396
226,286,KIRSTEN_LAST,Memory,5,,,,,,,sunayaepykrqvenaqqy.jpg,,,,,1.165,1.0,Novel,,,,,,,1530914989.625005,1530914987.645495
227,287,KIRSTEN_LAST,Memory,5,,,,,,,00211940128fa.jpg,Face,,,,0.861,1.0,Full,,,,,,,1530914992.842929,1530914990.850634
228,288,KIRSTEN_LAST,Memory,5,,,,,,,sunaajuzribjrizdshh.jpg,,,,,1.4140000000000001,1.0,Novel,,,,,,,1530914996.044163,1530914994.065771
229,289,KIRSTEN_LAST,Memory,5,,,,,,,00746941201fa.jpg,Face,,,,1.713,1.0,Category,,,,,,,1530914999.261465,1530914997.268459
230,290,KIRSTEN_LAST,Memory,5,,,,,,,00969960627fa.jpg,,,,,0.6779999999999999,1.0,Novel,,,,,,,1530915002.479847,1530915000.487155
231,291,KIRSTEN_LAST,Memory,5,,,,,,,sunabyvpwkgsjtijdwj.jpg,,,,,0.71,1.0,Novel,,,,,,,1530915005.696961,1530915003.706176
232,292,KIRSTEN_LAST,Memory,5,,,,,,,sunaathajvxrgptwhoj.jpg,,,,,1.439,3.0,Novel,,,,,,,1530915008.9150212,1530915006.927801
233,293,KIRSTEN_LAST,Memory,5,,,,,,,sunbaoizrfijvhpnnjn.jpg,,,,,1.06,2.0,Novel,,,,,,,1530915012.132038,1530915010.141206
234,294,KIRSTEN_LAST,Memory,5,,,,,,,sunahqrxievfeusiqlt.jpg,Place,,,,1.218,1.0,Side,,,,,,,1530915015.350308,1530915013.367814
235,295,KIRSTEN_LAST,Memory,5,,,,,,,sunbwaafjdebjzttuvq.jpg,Place,,,,0.986,1.0,None,,,,,,,1530915018.5523038,1530915016.566601
236,296,KIRSTEN_LAST,Memory,5,,,,,,,00149931230fa.jpg,Face,,,,1.955,4.0,Full,,,,,,,1530915021.751689,1530915019.7661018
237,297,KIRSTEN_LAST,Memory,5,,,,,,,01002960627fb.jpg,Face,,,,0.764,2.0,Category,,,,,,,1530915025.0530062,1530915023.075659
238,298,KIRSTEN_LAST,Memory,5,,,,,,,sunajawzbrlrwafowen.jpg,,,,,0.517,4.0,Novel,,,,,,,1530915028.2717562,1530915026.2887769
239,299,KIRSTEN_LAST,Memory,5,,,,,,,00864940307fa.jpg,,,,,1.4280000000000002,1.0,Novel,,,,,,,1530915031.488103,1530915029.4960039
240,310,KIRSTEN_LAST,Memory,6,,,,,,,sunaiwduelojtwaqeyh.jpg,,,,,1.575,2.0,Novel,,,,,,,1530915143.77495,1530915141.729173
241,311,KIRSTEN_LAST,Memory,6,,,,,,,sunaooaqzputrowwbsw.jpg,,,,,1.6369999999999998,1.0,Novel,,,,,,,1530915146.975194,1530915144.990923
242,312,KIRSTEN_LAST,Memory,6,,,,,,,00719941201fa.jpg,,,,,1.436,3.0,Novel,,,,,,,1530915150.193356,1530915148.210349
243,313,KIRSTEN_LAST,Memory,6,,,,,,,sunaauhozyxzeeqstxi.jpg,,,,,1.136,2.0,Novel,,,,,,,1530915153.527873,1530915151.54507
244,314,KIRSTEN_LAST,Memory,6,,,,,,,sunaccdtpgenvcbcbcf.jpg,Place,,,,1.203,1.0,Side,,,,,,,1530915156.728949,1530915154.744794
245,315,KIRSTEN_LAST,Memory,6,,,,,,,sunaaekxzjzrfgtkwjf.jpg,Place,,,,,,None,,,,,,,,
246,316,KIRSTEN_LAST,Memory,6,,,,,,,00098931230fa.jpg,,,,,,,Novel,,,,,,,,
247,317,KIRSTEN_LAST,Memory,6,,,,,,,sunaecpkgfewqqreqwe.jpg,Place,,,,,,Side,,,,,,,,
248,318,KIRSTEN_LAST,Memory,6,,,,,,,00153931230fa.jpg,,,,,,,Novel,,,,,,,,
249,319,KIRSTEN_LAST,Memory,6,,,,,,,sunaaiqiqcggrskoqgy.jpg,,,,,,,Novel,,,,,,,,
250,320,KIRSTEN_LAST,Memory,6,,,,,,,sunadochqcucscehsgk.jpg,Place,,,,,,Side,,,,,,,,
251,321,KIRSTEN_LAST,Memory,6,,,,,,,sunabjzyxcjnmztdonj.jpg,Place,,,,,,Side,,,,,,,,
252,322,KIRSTEN_LAST,Memory,6,,,,,,,sunaletopenvvozhpxc.jpg,Place,,,,,,None,,,,,,,,
253,323,KIRSTEN_LAST,Memory,6,,,,,,,00532960627fa.jpg,Face,,,,,,Full,,,,,,,,
254,324,KIRSTEN_LAST,Memory,6,,,,,,,sunahbvlpavurqoxdeq.jpg,Place,,,,,,None,,,,,,,,
255,325,KIRSTEN_LAST,Memory,6,,,,,,,sunaixpqndlwhwjtjek.jpg,Place,,,,,,None,,,,,,,,
256,326,KIRSTEN_LAST,Memory,6,,,,,,,00971960627fa.jpg,,,,,,,Novel,,,,,,,,
257,327,KIRSTEN_LAST,Memory,6,,,,,,,00911960530fa.jpg,,,,,,,Novel,,,,,,,,
258,328,KIRSTEN_LAST,Memory,6,,,,,,,00096931230fa.jpg,,,,,,,Novel,,,,,,,,
259,329,KIRSTEN_LAST,Memory,6,,,,,,,sunagrmyoovzukhxmlo.jpg,,,,,,,Novel,,,,,,,,
260,330,KIRSTEN_LAST,Memory,6,,,,,,,sunapqkpqdfvxlbqwyo.jpg,,,,,,,Novel,,,,,,,,
261,331,KIRSTEN_LAST,Memory,6,,,,,,,00061931230fb.jpg,Face,,,,,,Category,,,,,,,,
262,332,KIRSTEN_LAST,Memory,6,,,,,,,00799941205fa.jpg,,,,,,,Novel,,,,,,,,
263,333,KIRSTEN_LAST,Memory,6,,,,,,,00854940307fa.jpg,,,,,,,Novel,,,,,,,,
264,334,KIRSTEN_LAST,Memory,6,,,,,,,00809960620fa.jpg,Face,,,,,,Category,,,,,,,,
265,335,KIRSTEN_LAST,Memory,6,,,,,,,sunbloeoiozwjjsiamp.jpg,Place,,,,,,None,,,,,,,,
266,336,KIRSTEN_LAST,Memory,6,,,,,,,00264940128fb.jpg,Face,,,,,,Full,,,,,,,,
267,337,KIRSTEN_LAST,Memory,6,,,,,,,sunbbegcweqnetpdlrh.jpg,,,,,,,Novel,,,,,,,,
268,338,KIRSTEN_LAST,Memory,6,,,,,,,00987960627fa.jpg,Face,,,,,,Category,,,,,,,,
269,339,KIRSTEN_LAST,Memory,6,,,,,,,00921960627fa.jpg,,,,,,,Novel,,,,,,,,
270,340,KIRSTEN_LAST,Memory,6,,,,,,,00791941205fa.jpg,,,,,,,Novel,,,,,,,,
271,341,KIRSTEN_LAST,Memory,6,,,,,,,sunaajpqmulidejvjsr.jpg,,,,,,,Novel,,,,,,,,
272,342,KIRSTEN_LAST,Memory,6,,,,,,,00670941121fa.jpg,Face,,,,,,Full,,,,,,,,
273,343,KIRSTEN_LAST,Memory,6,,,,,,,00077931230fb.jpg,Face,,,,,,Full,,,,,,,,
274,344,KIRSTEN_LAST,Memory,6,,,,,,,00720960620fa.jpg,Face,,,,,,Full,,,,,,,,
275,345,KIRSTEN_LAST,Memory,6,,,,,,,sunaafgqutfaishsxyu.jpg,Place,,,,,,Side,,,,,,,,
276,346,KIRSTEN_LAST,Memory,6,,,,,,,sunadvithllcgmfxsrn.jpg,,,,,,,Novel,,,,,,,,
277,347,KIRSTEN_LAST,Memory,6,,,,,,,00889960530fa.jpg,Face,,,,,,Category,,,,,,,,
278,348,KIRSTEN_LAST,Memory,6,,,,,,,00858940307fa.jpg,Face,,,,,,Category,,,,,,,,
279,349,KIRSTEN_LAST,Memory,6,,,,,,,sunagutjvdvnhxejerz.jpg,,,,,,,Novel,,,,,,,,
280,0,KIRSTEN_LAST,Presentation,0,00263940128fb_sunabjuovqvyfuzvqwt.jpg,00834940307fa_sunaibnpvhkdpdnzcnz.jpg,00263940128fb.jpg,sunabjuovqvyfuzvqwt.jpg,00834940307fa.jpg,sunaibnpvhkdpdnzcnz.jpg,,,>,Place,0.4973659515380859,,,,1.0,,,3.0,,,1530913931.4997768,1530913928.4637039
281,1,KIRSTEN_LAST,Presentation,0,00071941031fa_sunaaexqbtdswxrqjvz.jpg,00598941031fa_sunacxtcahkymosigud.jpg,00071941031fa.jpg,sunaaexqbtdswxrqjvz.jpg,00598941031fa.jpg,sunacxtcahkymosigud.jpg,,,>,Place,0.38051891326904297,,,,0.0,,,3.0,,,1530913936.201615,1530913933.214524
282,2,KIRSTEN_LAST,Presentation,0,00193940928fa_sunaaxjpzcnxligjtjq.jpg,00548940519fa_sunacerqowiaeoqkmsq.jpg,00193940928fa.jpg,sunaaxjpzcnxligjtjq.jpg,00548940519fa.jpg,sunacerqowiaeoqkmsq.jpg,,,>,Place,0.3639979362487793,,,,1.0,,,3.0,,,1530913940.76931,1530913937.791194
283,3,KIRSTEN_LAST,Presentation,0,00773941201fa_sunafvcflzhlqloapyo.jpg,00774941201fa_sunafvtpfczkzopbgue.jpg,00773941201fa.jpg,sunafvcflzhlqloapyo.jpg,00774941201fa.jpg,sunafvtpfczkzopbgue.jpg,,,>,Place,0.4301760196685791,,,,1.0,,,3.0,,,1530913945.337494,1530913942.349552
284,4,KIRSTEN_LAST,Presentation,0,00961960627fa_sunawotxrevnqvamsfp.jpg,00851940307fa_sunaivflshbyfrfzhqb.jpg,00961960627fa.jpg,sunawotxrevnqvamsfp.jpg,00851940307fa.jpg,sunaivflshbyfrfzhqb.jpg,,,>,Place,0.3143410682678223,,,,1.0,,,3.0,,,1530913949.972679,1530913946.983702
285,5,KIRSTEN_LAST,Presentation,0,00265940128fb_sunabkmdplkdbvxriff.jpg,00970960627fa_sunbasypfgzjtomktmu.jpg,00265940128fb.jpg,sunabkmdplkdbvxriff.jpg,00970960627fa.jpg,sunbasypfgzjtomktmu.jpg,,,>,Place,0.29639387130737305,,,,1.0,,,3.0,,,1530913954.490818,1530913951.500403
286,6,KIRSTEN_LAST,Presentation,0,00985960627fa_sunbgklxeqjhdbyfhhy.jpg,00119931230fb_sunaakvmbftkrgqhjun.jpg,00985960627fa.jpg,sunbgklxeqjhdbyfhhy.jpg,00119931230fb.jpg,sunaakvmbftkrgqhjun.jpg,,,>,Place,0.3126530647277832,,,,1.0,,,3.0,,,1530913958.991889,1530913956.0110538
287,7,KIRSTEN_LAST,Presentation,0,00191940128fb_sunaawsdjisukbbginm.jpg,00089931230fa_sunaagcpoejbuzyvddd.jpg,00191940128fb.jpg,sunaawsdjisukbbginm.jpg,00089931230fa.jpg,sunaagcpoejbuzyvddd.jpg,,,>,Place,0.44682812690734863,,,,1.0,,,3.0,,,1530913963.5104089,1530913960.527801
288,8,KIRSTEN_LAST,Presentation,0,00130931230fa_sunaamvxnvouicstkjb.jpg,00227940128fa_sunabckqabszusgcykj.jpg,00130931230fa.jpg,sunaamvxnvouicstkjb.jpg,00227940128fa.jpg,sunabckqabszusgcykj.jpg,,,>,Place,0.3463430404663086,,,,0.0,,,3.0,,,1530913968.162443,1530913965.1765
289,9,KIRSTEN_LAST,Presentation,0,00838940307fa_sunaiozxhxgtfrmoagh.jpg,00081941031fa_sunaaftlyfudyzuhqzf.jpg,00838940307fa.jpg,sunaiozxhxgtfrmoagh.jpg,00081941031fa.jpg,sunaaftlyfudyzuhqzf.jpg,,,>,Place,0.3802049160003662,,,,1.0,,,3.0,,,1530913972.696898,1530913969.717076
290,50,KIRSTEN_LAST,Presentation,1,00142931230fb_sunaapxkpvrhpjplsok.jpg,00926960627Fa_sunapqwoeotxshkukbh.jpg,00142931230fb.jpg,sunaapxkpvrhpjplsok.jpg,00926960627Fa.jpg,sunapqwoeotxshkukbh.jpg,,,<,Face,0.3635108470916748,,,,1.0,,,1.0,,,1530914121.5946789,1530914118.544238
291,51,KIRSTEN_LAST,Presentation,1,00942960627fa_sunarfdklgdnjgeqfjg.jpg,00943960627fa_sunarpsxqkduedrrzyi.jpg,00942960627fa.jpg,sunarfdklgdnjgeqfjg.jpg,00943960627fa.jpg,sunarpsxqkduedrrzyi.jpg,,,<,Face,0.34702205657958984,,,,1.0,,,1.0,,,1530914126.145068,1530914123.1669722
292,52,KIRSTEN_LAST,Presentation,1,00741941201fa_sunaemcowdozyphwknd.jpg,00479940519fa_sunabxsbfwjccqxxzxq.jpg,00741941201fa.jpg,sunaemcowdozyphwknd.jpg,00479940519fa.jpg,sunabxsbfwjccqxxzxq.jpg,,,<,Face,0.3141148090362549,,,,1.0,,,1.0,,,1530914130.713298,1530914127.737992
293,53,KIRSTEN_LAST,Presentation,1,00101931230fb_sunaajqmsaavkmgbsth.jpg,00990960627fa_sunbpflsdaxnddnwcqi.jpg,00101931230fb.jpg,sunaajqmsaavkmgbsth.jpg,00990960627fa.jpg,sunbpflsdaxnddnwcqi.jpg,,,<,Face,0.5806968212127686,,,,1.0,,,1.0,,,1530914135.232384,1530914132.243932
294,54,KIRSTEN_LAST,Presentation,1,00112931230fa_sunaakjaacuzulqckgl.jpg,00919960620fa_sunapmfmzadmosuogaz.jpg,00112931230fa.jpg,sunaakjaacuzulqckgl.jpg,00919960620fa.jpg,sunapmfmzadmosuogaz.jpg,,,<,Face,0.4638781547546386,,,,1.0,,,1.0,,,1530914140.016625,1530914137.030374
295,55,KIRSTEN_LAST,Presentation,1,00076931230fa_sunaafewhewbxmjiurz.jpg,00925960627fa_sunapqwnqzxlsfvgsjm.jpg,00076931230fa.jpg,sunaafewhewbxmjiurz.jpg,00925960627fa.jpg,sunapqwnqzxlsfvgsjm.jpg,,,<,Face,0.796875,,,,1.0,,,1.0,,,1530914144.6859279,1530914141.697842
296,56,KIRSTEN_LAST,Presentation,1,00663941121fa_sunadnjjzohjhbohlwq.jpg,00859940307fa_sunaiycurtqsfkvcaso.jpg,00663941121fa.jpg,sunadnjjzohjhbohlwq.jpg,00859940307fa.jpg,sunaiycurtqsfkvcaso.jpg,,,<,Face,0.8462488651275635,,,,0.0,,,3.0,,,1530914149.670904,1530914146.6940188
297,57,KIRSTEN_LAST,Presentation,1,00239940128fa_sunabctlikybqabezjv.jpg,00574940928fa_sunacvbrcejzwmcgnoq.jpg,00239940128fa.jpg,sunabctlikybqabezjv.jpg,00574940928fa.jpg,sunacvbrcejzwmcgnoq.jpg,,,<,Face,0.3805210590362549,,,,1.0,,,1.0,,,1530914154.705347,1530914151.72773
298,58,KIRSTEN_LAST,Presentation,1,00676941121fa_sunadpnqovzckyikrjo.jpg,00953960627fa_sunatstrpjxhvtbaczf.jpg,00676941121fa.jpg,sunadpnqovzckyikrjo.jpg,00953960627fa.jpg,sunatstrpjxhvtbaczf.jpg,,,<,Face,0.3296241760253906,,,,1.0,,,1.0,,,1530914159.289834,1530914156.309906
299,59,KIRSTEN_LAST,Presentation,1,00132931230fb_sunaanjcbzdvtvblsdy.jpg,00784941205fb_sunagjzcrjvmxzqzljx.jpg,00132931230fb.jpg,sunaanjcbzdvtvblsdy.jpg,00784941205fb.jpg,sunagjzcrjvmxzqzljx.jpg,,,<,Face,0.3628690242767334,,,,1.0,,,1.0,,,1530914163.808716,1530914160.826943
300,100,KIRSTEN_LAST,Presentation,2,00835940307fa_sunaijsqpvodplbwxkf.jpg,00092931230fa_sunaaheqzstzxuadglu.jpg,00835940307fa.jpg,sunaijsqpvodplbwxkf.jpg,00092931230fa.jpg,sunaaheqzstzxuadglu.jpg,,,>,Place,0.5474190711975098,,,,1.0,,,3.0,,,1530914303.5873199,1530914300.536784
301,101,KIRSTEN_LAST,Presentation,2,00804960530fa_sunagwswhkvnsmuszlz.jpg,00158931230fb_sunaavchcbptaerhcfy.jpg,00804960530fa.jpg,sunagwswhkvnsmuszlz.jpg,00158931230fb.jpg,sunaavchcbptaerhcfy.jpg,,,>,Place,0.3454618453979492,,,,1.0,,,3.0,,,1530914308.388366,1530914305.408591
302,102,KIRSTEN_LAST,Presentation,2,00882960530fa_sunaknlirqjqiwbbeeg.jpg,00805941205fa_sunagwzdbtlixdhgolm.jpg,00882960530fa.jpg,sunaknlirqjqiwbbeeg.jpg,00805941205fa.jpg,sunagwzdbtlixdhgolm.jpg,,,>,Place,0.3795888423919678,,,,1.0,,,3.0,,,1530914312.939787,1530914309.954525
303,103,KIRSTEN_LAST,Presentation,2,00095931230fa_sunaahzooisqkwlxwoz.jpg,00185940422fb_sunaawqdbpihmlbwyyn.jpg,00095931230fa.jpg,sunaahzooisqkwlxwoz.jpg,00185940422fb.jpg,sunaawqdbpihmlbwyyn.jpg,,,>,Place,0.2671759128570557,,,,1.0,,,3.0,,,1530914317.5083401,1530914314.527798
304,104,KIRSTEN_LAST,Presentation,2,00571940928fa_sunacuatpqpqhyjhjqk.jpg,00260940128fa_sunabgfhvifeijihhjw.jpg,00571940928fa.jpg,sunacuatpqpqhyjhjqk.jpg,00260940128fa.jpg,sunabgfhvifeijihhjw.jpg,,,>,Place,0.3312320709228516,,,,0.0,,,3.0,,,1530914321.97525,1530914318.995576
305,105,KIRSTEN_LAST,Presentation,2,01010960627fa_suncnkvbhypnivcohyx.jpg,00122931230fa_sunaakxjfbrrequcjmx.jpg,01010960627fa.jpg,suncnkvbhypnivcohyx.jpg,00122931230fa.jpg,sunaakxjfbrrequcjmx.jpg,,,>,Place,0.3473360538482666,,,,1.0,,,3.0,,,1530914326.493386,1530914323.5171778
306,106,KIRSTEN_LAST,Presentation,2,00827940307fa_sunahtfxgsrmkiulnwk.jpg,00145931230fb_sunaatjesvdupctftmn.jpg,00827940307fa.jpg,sunahtfxgsrmkiulnwk.jpg,00145931230fb.jpg,sunaatjesvdupctftmn.jpg,,,>,Place,0.3141648769378662,,,,1.0,,,3.0,,,1530914331.0447528,1530914328.061013
307,107,KIRSTEN_LAST,Presentation,2,00305940422fa_sunabtrnbvpppgczjim.jpg,00929960627fa_sunaprnrbmgkomdbchr.jpg,00305940422fa.jpg,sunabtrnbvpppgczjim.jpg,00929960627fa.jpg,sunaprnrbmgkomdbchr.jpg,,,>,Place,0.2964048385620117,,,,1.0,,,3.0,,,1530914335.5638368,1530914332.5819
308,108,KIRSTEN_LAST,Presentation,2,00771941205fa_sunafowswglhxcsufpo.jpg,01005960627fa_sunbwyuesflwdpqtgoy.jpg,00771941205fa.jpg,sunafowswglhxcsufpo.jpg,01005960627fa.jpg,sunbwyuesflwdpqtgoy.jpg,,,>,Place,0.26623106002807617,,,,1.0,,,3.0,,,1530914340.048242,1530914337.071772
309,109,KIRSTEN_LAST,Presentation,2,00073931230fa_sunaafbmtoniaasysgu.jpg,00235940128fb_sunabclssnoeuigtawp.jpg,00073931230fa.jpg,sunaafbmtoniaasysgu.jpg,00235940128fb.jpg,sunabclssnoeuigtawp.jpg,,,>,Place,0.3805410861968994,,,,1.0,,,3.0,,,1530914344.499447,1530914341.5236301
310,150,KIRSTEN_LAST,Presentation,3,00540940519fa_sunacdnquypmsshhsbk.jpg,00554940519fa_sunacfdkbsrughwqwtt.jpg,00540940519fa.jpg,sunacdnquypmsshhsbk.jpg,00554940519fa.jpg,sunacfdkbsrughwqwtt.jpg,,,<,Place,1.7142457962036133,,,,1.0,,,1.0,,,1530914491.0472,1530914488.0047839
311,151,KIRSTEN_LAST,Presentation,3,00892960530fa_sunalntxqqadigcletd.jpg,00069931230fb_sunaaeowapdkwzqpgqr.jpg,00892960530fa.jpg,sunalntxqqadigcletd.jpg,00069931230fb.jpg,sunaaeowapdkwzqpgqr.jpg,,,<,Place,0.4974329471588135,,,,1.0,,,1.0,,,1530914496.96481,1530914493.978606
312,152,KIRSTEN_LAST,Presentation,3,00749941201fa_sunaeuvjbmdpknaqqaj.jpg,00950960627fa_sunasrjlmglmjzbmqxb.jpg,00749941201fa.jpg,sunaeuvjbmdpknaqqaj.jpg,00950960627fa.jpg,sunasrjlmglmjzbmqxb.jpg,,,<,Place,0.3805859088897705,,,,1.0,,,1.0,,,1530914501.667641,1530914498.688949
313,153,KIRSTEN_LAST,Presentation,3,00129931230fb_sunaamsdyakblkfoydx.jpg,00609940928fa_sunacycdoztxoluxjyk.jpg,00129931230fb.jpg,sunaamsdyakblkfoydx.jpg,00609940928fa.jpg,sunacycdoztxoluxjyk.jpg,,,<,Place,1.6308939456939695,,,,1.0,,,1.0,,,1530914506.235242,1530914503.255636
314,154,KIRSTEN_LAST,Presentation,3,01003960627fb_sunbwdrdvsweerwsdrj.jpg,00296940422fa_sunabrwnslxalcohfre.jpg,01003960627fb.jpg,sunbwdrdvsweerwsdrj.jpg,00296940422fa.jpg,sunabrwnslxalcohfre.jpg,,,<,Place,0.31280088424682617,,,,1.0,,,1.0,,,1530914512.069556,1530914509.0878859
315,155,KIRSTEN_LAST,Presentation,3,00818940307fa_sunahpblecxtmuzkmxb.jpg,00938960627fa_sunaqyylsngywqzwfmx.jpg,00818940307fa.jpg,sunahpblecxtmuzkmxb.jpg,00938960627fa.jpg,sunaqyylsngywqzwfmx.jpg,,,<,Place,0.39725613594055176,,,,1.0,,,1.0,,,1530914516.571524,1530914513.594493
316,156,KIRSTEN_LAST,Presentation,3,00638941031fa_sunadfktsqjthoglcsm.jpg,00776941205fa_sunafxokyavhgptyfye.jpg,00638941031fa.jpg,sunadfktsqjthoglcsm.jpg,00776941205fa.jpg,sunafxokyavhgptyfye.jpg,,,<,Place,0.3132739067077637,,,,1.0,,,1.0,,,1530914521.1739,1530914518.1889482
317,157,KIRSTEN_LAST,Presentation,3,00905960530fa_sunanmoqeyprjjjfxjt.jpg,00097931230fa_sunaajayojuslbbnneg.jpg,00905960530fa.jpg,sunanmoqeyprjjjfxjt.jpg,00097931230fa.jpg,sunaajayojuslbbnneg.jpg,,,<,Place,0.2669010162353516,,,,1.0,,,1.0,,,1530914525.6921651,1530914522.710349
318,158,KIRSTEN_LAST,Presentation,3,00210940128fb_sunabanoxjtqxamkucc.jpg,00937960627fa_sunaqsolmfydodnakub.jpg,00210940128fb.jpg,sunabanoxjtqxamkucc.jpg,00937960627fa.jpg,sunaqsolmfydodnakub.jpg,,,<,Place,0.4963281154632568,,,,1.0,,,1.0,,,1530914530.1594849,1530914527.174877
319,159,KIRSTEN_LAST,Presentation,3,00766960620fa_sunafijbgncijwykrnl.jpg,00957960627fa_sunavhxgmgrqsaptynb.jpg,00766960620fa.jpg,sunafijbgncijwykrnl.jpg,00957960627fa.jpg,sunavhxgmgrqsaptynb.jpg,,,<,Place,0.5634040832519531,,,,1.0,,,1.0,,,1530914534.861604,1530914531.884002
320,200,KIRSTEN_LAST,Presentation,4,00810941205fa_sunahctntqrunhdxhtb.jpg,00589940928fa_sunacwggadqsfpovdjv.jpg,00810941205fa.jpg,sunahctntqrunhdxhtb.jpg,00589940928fa.jpg,sunacwggadqsfpovdjv.jpg,,,<,Face,0.7963531017303467,,,,0.0,,,3.0,,,1530914675.107207,1530914672.068368
321,201,KIRSTEN_LAST,Presentation,4,01004960627fa_sunbwtlihsuptkrckid.jpg,00909960530_sunaobtizabegtwfwul.jpg,01004960627fa.jpg,sunbwtlihsuptkrckid.jpg,00909960530.jpg,sunaobtizabegtwfwul.jpg,,,<,Face,0.3972709178924561,,,,1.0,,,1.0,,,1530914680.092299,1530914677.116039
322,202,KIRSTEN_LAST,Presentation,4,00290940422fa_sunabqowuarvqqcnipn.jpg,00972960627fa_sunbbfqwjpdxniyhies.jpg,00290940422fa.jpg,sunabqowuarvqqcnipn.jpg,00972960627fa.jpg,sunbbfqwjpdxniyhies.jpg,,,<,Face,0.8302900791168213,,,,1.0,,,1.0,,,1530914684.693473,1530914681.711867
323,203,KIRSTEN_LAST,Presentation,4,00815941205fa_sunahiphsekjihkafsl.jpg,00725941201fa_sunaefgzwiramypjvtd.jpg,00815941205fa.jpg,sunahiphsekjihkafsl.jpg,00725941201fa.jpg,sunaefgzwiramypjvtd.jpg,,,<,Face,0.4136011600494385,,,,1.0,,,1.0,,,1530914689.727981,1530914686.740715
324,204,KIRSTEN_LAST,Presentation,4,00785941205fa_sunaglqunwuycxydmyu.jpg,00847940307fa_sunaivdjruhkrfywfed.jpg,00785941205fa.jpg,sunaglqunwuycxydmyu.jpg,00847940307fa.jpg,sunaivdjruhkrfywfed.jpg,,,<,Face,0.5794088840484619,,,,1.0,,,1.0,,,1530914694.329329,1530914691.347877
325,205,KIRSTEN_LAST,Presentation,4,00884960530fa_sunakodkcslgqhqlgwl.jpg,00876960620fa_sunajwqkfsykceonyig.jpg,00884960530fa.jpg,sunakodkcslgqhqlgwl.jpg,00876960620fa.jpg,sunajwqkfsykceonyig.jpg,,,<,Face,0.38025808334350586,,,,0.0,,,1.0,,,1530914699.2307599,1530914696.249259
326,206,KIRSTEN_LAST,Presentation,4,00996960627fa_sunbpvgllfdejxcpjqp.jpg,00895960530fa_sunamczizlzavhzhpay.jpg,00996960627fa.jpg,sunbpvgllfdejxcpjqp.jpg,00895960530fa.jpg,sunamczizlzavhzhpay.jpg,,,<,Face,0.5465800762176514,,,,1.0,,,1.0,,,1530914703.816643,1530914700.828573
327,207,KIRSTEN_LAST,Presentation,4,00184940128fa_sunaavtbadenwnzeutj.jpg,00747941201fa_sunaeutbrtswvsozxyk.jpg,00184940128fa.jpg,sunaavtbadenwnzeutj.jpg,00747941201fa.jpg,sunaeutbrtswvsozxyk.jpg,,,<,Face,0.4132440090179443,,,,1.0,,,1.0,,,1530914708.5678349,1530914705.585956
328,208,KIRSTEN_LAST,Presentation,4,00123931230fb_sunaalcrrdbjgdztbiz.jpg,00922960627fa_sunapqkyghktgtosuuk.jpg,00123931230fb.jpg,sunaalcrrdbjgdztbiz.jpg,00922960627fa.jpg,sunapqkyghktgtosuuk.jpg,,,<,Face,0.5132789611816406,,,,1.0,,,1.0,,,1530914713.18598,1530914710.197885
329,209,KIRSTEN_LAST,Presentation,4,00093931230fa_sunaahwnmtqsrhocysw.jpg,00910960530fa_sunaofikylqtxphvdem.jpg,00093931230fa.jpg,sunaahwnmtqsrhocysw.jpg,00910960530fa.jpg,sunaofikylqtxphvdem.jpg,,,<,Face,0.42887306213378906,,,,1.0,,,1.0,,,1530914717.904607,1530914714.92311
330,250,KIRSTEN_LAST,Presentation,5,00869940307fa_sunajoveqhiprwqgoco.jpg,00634940928fa_sunadcphrizvfpljiqt.jpg,00869940307fa.jpg,sunajoveqhiprwqgoco.jpg,00634940928fa.jpg,sunadcphrizvfpljiqt.jpg,,,>,Face,0.4636030197143554,,,,1.0,,,3.0,,,1530914857.098995,1530914854.0505118
331,251,KIRSTEN_LAST,Presentation,5,01000960627fa_sunbvzmgrdvaakxusbu.jpg,01002960627fb_sunbwaafjdebjzttuvq.jpg,01000960627fa.jpg,sunbvzmgrdvaakxusbu.jpg,01002960627fb.jpg,sunbwaafjdebjzttuvq.jpg,,,>,Face,0.6651561260223389,,,,1.0,,,3.0,,,1530914861.749226,1530914858.775743
332,252,KIRSTEN_LAST,Presentation,5,00214940128fa_sunabbafjowbzcvbucc.jpg,00681941121fa_sunadqmjrhfjyuzyvdd.jpg,00214940128fa.jpg,sunabbafjowbzcvbucc.jpg,00681941121fa.jpg,sunadqmjrhfjyuzyvdd.jpg,,,>,Face,0.5644650459289551,,,,1.0,,,3.0,,,1530914866.618209,1530914863.628845
333,253,KIRSTEN_LAST,Presentation,5,00866940307fa_sunajbwkywmsqkldfml.jpg,00768941205fa_sunafkmnlytenlsywia.jpg,00866940307fa.jpg,sunajbwkywmsqkldfml.jpg,00768941205fa.jpg,sunafkmnlytenlsywia.jpg,,,>,Face,0.5305821895599365,,,,1.0,,,3.0,,,1530914871.386822,1530914868.399766
334,254,KIRSTEN_LAST,Presentation,5,00822940307fa_sunahqrxievfeusiqlt.jpg,00115931230fa_sunaakmxzhuceuiryah.jpg,00822940307fa.jpg,sunahqrxievfeusiqlt.jpg,00115931230fa.jpg,sunaakmxzhuceuiryah.jpg,,,>,Face,0.3473789691925049,,,,1.0,,,3.0,,,1530914876.1046581,1530914873.1303241
335,255,KIRSTEN_LAST,Presentation,5,00803941205fa_sunagvxkjokqimstxpe.jpg,00857940307fa_sunaiwfobocrruqznsv.jpg,00803941205fa.jpg,sunagvxkjokqimstxpe.jpg,00857940307fa.jpg,sunaiwfobocrruqznsv.jpg,,,>,Face,0.4130711555480957,,,,0.0,,,3.0,,,1530914880.657064,1530914877.66626
336,256,KIRSTEN_LAST,Presentation,5,00149931230fa_sunaauglwmctnkxyird.jpg,00131931230fb_sunaangbuylfvckqqoo.jpg,00149931230fa.jpg,sunaauglwmctnkxyird.jpg,00131931230fb.jpg,sunaangbuylfvckqqoo.jpg,,,>,Face,0.5631699562072754,,,,1.0,,,3.0,,,1530914885.275204,1530914882.291595
337,257,KIRSTEN_LAST,Presentation,5,00727941205fa_sunaeisnjeetzmkbuad.jpg,00746941201fa_sunaetydippjxikifsb.jpg,00727941205fa.jpg,sunaeisnjeetzmkbuad.jpg,00746941201fa.jpg,sunaetydippjxikifsb.jpg,,,>,Face,0.8132238388061523,,,,1.0,,,3.0,,,1530914890.1436028,1530914887.156431
338,258,KIRSTEN_LAST,Presentation,5,00557940519fa_sunachtuarilwyqnvjx.jpg,00745941205fa_sunaeouogqolxvggaoq.jpg,00557940519fa.jpg,sunachtuarilwyqnvjx.jpg,00745941205fa.jpg,sunaeouogqolxvggaoq.jpg,,,>,Face,0.4297759532928467,,,,1.0,,,3.0,,,1530914895.177669,1530914892.187201
339,259,KIRSTEN_LAST,Presentation,5,00211940128fa_sunabasphceswhwwqvv.jpg,00973960627fa_sunbbgtoeuzierkkajt.jpg,00211940128fa.jpg,sunabasphceswhwwqvv.jpg,00973960627fa.jpg,sunbbgtoeuzierkkajt.jpg,,,>,Face,0.3810288906097412,,,,1.0,,,3.0,,,1530914899.813383,1530914896.827241
340,300,KIRSTEN_LAST,Presentation,6,00720960620fa_sunaecpkgfewqqreqwe.jpg,00858940307fa_sunaixpqndlwhwjtjek.jpg,00720960620fa.jpg,sunaecpkgfewqqreqwe.jpg,00858940307fa.jpg,sunaixpqndlwhwjtjek.jpg,,,>,Face,0.44729018211364746,,,,1.0,,,3.0,,,1530915096.508873,1530915093.4759119
341,301,KIRSTEN_LAST,Presentation,6,00878960530fa_sunakgbnzxmfohgehnu.jpg,00889960530fa_sunaletopenvvozhpxc.jpg,00878960530fa.jpg,sunakgbnzxmfohgehnu.jpg,00889960530fa.jpg,sunaletopenvvozhpxc.jpg,,,>,Face,0.3140900135040283,,,,1.0,,,3.0,,,1530915101.14404,1530915098.166207
342,302,KIRSTEN_LAST,Presentation,6,00675941121fa_sunadoxcchtmsxewsau.jpg,00061931230fb_sunaaekxzjzrfgtkwjf.jpg,00675941121fa.jpg,sunadoxcchtmsxewsau.jpg,00061931230fb.jpg,sunaaekxzjzrfgtkwjf.jpg,,,>,Face,0.3632779121398926,,,,1.0,,,3.0,,,1530915105.746197,1530915102.768732
343,303,KIRSTEN_LAST,Presentation,6,00670941121fa_sunadochqcucscehsgk.jpg,00559940519fa_sunacjkmnpawfzbyvae.jpg,00670941121fa.jpg,sunadochqcucscehsgk.jpg,00559940519fa.jpg,sunacjkmnpawfzbyvae.jpg,,,>,Face,0.5303828716278076,,,,0.0,,,3.0,,,1530915110.297285,1530915107.319583
344,304,KIRSTEN_LAST,Presentation,6,00532960627fa_sunaccdtpgenvcbcbcf.jpg,00208940128fa_sunaazzyhbvqjpmazjq.jpg,00532960627fa.jpg,sunaccdtpgenvcbcbcf.jpg,00208940128fa.jpg,sunaazzyhbvqjpmazjq.jpg,,,>,Face,0.3296809196472168,,,,1.0,,,3.0,,,1530915115.015878,1530915112.0267801
345,305,KIRSTEN_LAST,Presentation,6,00760960620fa_sunaffstbkappprzxnv.jpg,00147931230fb_sunaatpkocdkocwxpkb.jpg,00760960620fa.jpg,sunaffstbkappprzxnv.jpg,00147931230fb.jpg,sunaatpkocdkocwxpkb.jpg,,,>,Face,0.3303561210632324,,,,1.0,,,3.0,,,1530915119.533827,1530915116.558214
346,306,KIRSTEN_LAST,Presentation,6,00077931230fb_sunaafgqutfaishsxyu.jpg,00809960620fa_sunahbvlpavurqoxdeq.jpg,00077931230fb.jpg,sunaafgqutfaishsxyu.jpg,00809960620fa.jpg,sunahbvlpavurqoxdeq.jpg,,,>,Face,0.3963720798492432,,,,1.0,,,3.0,,,1530915124.0683448,1530915121.088098
347,307,KIRSTEN_LAST,Presentation,6,00138931230fa_sunaapfaivxqoynnwwp.jpg,00633940928fa_sunadbhmrgrrpyzglxs.jpg,00138931230fa.jpg,sunaapfaivxqoynnwwp.jpg,00633940928fa.jpg,sunadbhmrgrrpyzglxs.jpg,,,>,Face,0.4292309284210205,,,,1.0,,,3.0,,,1530915128.65336,1530915125.6741948
348,308,KIRSTEN_LAST,Presentation,6,00264940128fb_sunabjzyxcjnmztdonj.jpg,00986960627fa_sunbgzjryivyczuvkvm.jpg,00264940128fb.jpg,sunabjzyxcjnmztdonj.jpg,00986960627fa.jpg,sunbgzjryivyczuvkvm.jpg,,,>,Face,0.6293590068817139,,,,1.0,,,3.0,,,1530915133.272537,1530915130.2938359
349,309,KIRSTEN_LAST,Presentation,6,00498960627fa_sunabzjxlmkwnwzimua.jpg,00987960627fa_sunbloeoiozwjjsiamp.jpg,00498960627fa.jpg,sunabzjxlmkwnwzimua.jpg,00987960627fa.jpg,sunbloeoiozwjjsiamp.jpg,,,>,Face,0.5467419624328613,,,,1.0,,,3.0,,,1530915138.1070929,1530915135.119725
