,Subject,Trial Type,Run,Cued Composite,Uncued Composite,Cued Face,Cued Place,Uncued Face,Uncued Place,Memory Image,Category,Cued Side,Cued Category,Attention Reaction Time (s),Familiarity Reaction Time (s),Familiarity Rating,Attention Level,Cue Validity,Post Invalid Cue,Pre Invalid Cue,Attention Button,Rating History,Stimulus Onset,Stimulus End,Attention Probe
110,15,Memory,2,,,,,,,sunamkmeblgteyggink.jpg,,,,,1.727,2.0,,,,,,,1539196595.593911,1539196598.239036,
111,15,Memory,2,,,,,,,00124931230fa.jpg,,,,,1.325,1.0,,,,,,,1539196599.528275,1539196602.174237,
112,15,Memory,2,,,,,,,00880960530fa.jpg,,,,,0.641,1.0,,,,,,,1539196603.490582,1539196605.716544,
113,15,Memory,2,,,,,,,00990960627fa.jpg,,,,,0.991,1.0,,,,,,,1539196606.996659,1539196609.427575,
114,15,Memory,2,,,,,,,00898960530fa.jpg,,,,,0.802,1.0,,,,,,,1539196610.714629,1539196612.944286,
115,15,Memory,2,,,,,,,00961960627fa.jpg,,,,,0.874,1.0,,,,,,,1539196614.249891,1539196616.696112,
116,15,Memory,2,,,,,,,sunacvzhvcksnwqcqbw.jpg,,,,,0.991,1.0,,,,,,,1539196617.983416,1539196620.779723,
117,15,Memory,2,,,,,,,00825940307fa.jpg,,,,,0.641,1.0,,,,,,,1539196622.068612,1539196624.553434,
118,15,Memory,2,,,,,,,sunanwjjyqqwzqrqagd.jpg,,,,,0.985,1.0,,,,,,,1539196625.870789,1539196627.966532,
119,15,Memory,2,,,,,,,sunahrltmuwbiehihpe.jpg,,,,,0.642,1.0,,,,,,,1539196629.237947,1539196631.616327,
120,15,Memory,2,,,,,,,00635941031fa.jpg,,,,,0.614,1.0,,,,,,,1539196633.022348,1539196635.040856,
121,15,Memory,2,,,,,,,00532960627fa.jpg,,,,,0.975,1.0,,,,,,,1539196636.32285,1539196638.773659,
122,15,Memory,2,,,,,,,sunakwlvxjpddialozd.jpg,,,,,1.208,4.0,,,,,,,1539196640.092498,1539196643.041979,
123,15,Memory,2,,,,,,,00999960627fa.jpg,,,,,0.675,1.0,,,,,,,1539196644.343536,1539196646.711482,
124,15,Memory,2,,,,,,,sunaavjinpnkappuonm.jpg,,,,,0.959,1.0,,,,,,,1539196647.992967,1539196650.456645,
125,15,Memory,2,,,,,,,00908960530fa.jpg,,,,,0.658,1.0,,,,,,,1539196651.728306,1539196654.090901,
126,15,Memory,2,,,,,,,sunagcthdfirrcawoic.jpg,,,,,1.409,3.0,,,,,,,1539196655.362221,1539196657.881712,
127,15,Memory,2,,,,,,,sunapqkyghktgtosuuk.jpg,,,,,0.598,1.0,,,,,,,1539196659.165525,1539196661.449697,
128,15,Memory,2,,,,,,,sunawotxrevnqvamsfp.jpg,,,,,1.209,1.0,,,,,,,1539196662.731613,1539196665.312012,
129,15,Memory,2,,,,,,,sunaddsaeicthrfbkhe.jpg,,,,,0.802,4.0,,,,,,,1539196666.633841,1539196668.828389,
130,15,Memory,2,,,,,,,00877960530fa.jpg,,,,,0.575,1.0,,,,,,,1539196670.101163,1539196672.302025,
131,15,Memory,2,,,,,,,00581940928fa.jpg,,,,,0.61,1.0,,,,,,,1539196673.602262,1539196676.386286,
132,15,Memory,2,,,,,,,sunakmnfgklupjijsgf.jpg,,,,,0.757,1.0,,,,,,,1539196677.653622,1539196679.93815,
133,15,Memory,2,,,,,,,00922960627fa.jpg,,,,,0.642,1.0,,,,,,,1539196681.237915,1539196683.752218,
134,15,Memory,2,,,,,,,00149931230fa.jpg,,,,,0.808,1.0,,,,,,,1539196685.039687,1539196687.551484,
135,15,Memory,2,,,,,,,00133931230fa.jpg,,,,,0.627,1.0,,,,,,,1539196688.840094,1539196691.502743,
136,15,Memory,2,,,,,,,00885960530fa.jpg,,,,,0.643,1.0,,,,,,,1539196692.775144,1539196695.1549,
137,15,Memory,2,,,,,,,sunaauglwmctnkxyird.jpg,,,,,1.125,1.0,,,,,,,1539196696.425842,1539196698.897731,
138,15,Memory,2,,,,,,,sunbvbrvgbpanfrawft.jpg,,,,,0.841,4.0,,,,,,,1539196700.161616,1539196703.061058,
139,15,Memory,2,,,,,,,sunajxpkuhbizeveguy.jpg,,,,,1.358,1.0,,,,,,,1539196704.329253,1539196707.396248,
140,15,Memory,2,,,,,,,00308940422fb.jpg,,,,,0.76,1.0,,,,,,,1539196708.696181,1539196711.109428,
141,15,Memory,2,,,,,,,00162931230fb.jpg,,,,,0.826,1.0,,,,,,,1539196712.380617,1539196714.801777,
142,15,Memory,2,,,,,,,sunbpflsdaxnddnwcqi.jpg,,,,,0.976,1.0,,,,,,,1539196716.098785,1539196718.785638,
143,15,Memory,2,,,,,,,00778941205fa.jpg,,,,,0.558,1.0,,,,,,,1539196720.067627,1539196722.330235,
144,15,Memory,2,,,,,,,sunaalhlvzmjmitybdn.jpg,,,,,0.743,1.0,,,,,,,1539196723.65128,1539196726.430961,
145,15,Memory,2,,,,,,,sunaaelyvurpntclgau.jpg,,,,,0.69,1.0,,,,,,,1539196727.802471,1539196730.540914,
146,15,Memory,2,,,,,,,sunabwfvcqqidycwypa.jpg,,,,,0.824,1.0,,,,,,,1539196731.838374,1539196734.205644,
147,15,Memory,2,,,,,,,sunaanlwnpqndclffxt.jpg,,,,,0.824,4.0,,,,,,,1539196735.471917,1539196738.050792,
148,15,Memory,2,,,,,,,sunaccdtpgenvcbcbcf.jpg,,,,,0.925,1.0,,,,,,,1539196739.323891,1539196741.736061,
149,15,Memory,2,,,,,,,00063931230fa.jpg,,,,,0.499,3.0,,,,,,,1539196743.025197,1539196745.477888,
