,Subject,Trial Type,Run,Cued Composite,Uncued Composite,Cued Face,Cued Place,Uncued Face,Uncued Place,Memory Image,Category,Cued Side,Cued Category,Attention Reaction Time (s),Familiarity Reaction Time (s),Familiarity Rating,Attention Level,Cue Validity,Post Invalid Cue,Pre Invalid Cue,Attention Button,Rating History,Stimulus Onset,Stimulus End,Attention Probe
310,15,Memory,6,,,,,,,00638941031fa.jpg,,,,,1.376,1.0,,,,,,,1539197940.881206,1539197943.413268,
311,15,Memory,6,,,,,,,00829940307fa.jpg,,,,,0.792,1.0,,,,,,,1539197944.683217,1539197947.144867,
312,15,Memory,6,,,,,,,sunabrjdpmoedcdjbpo.jpg,,,,,1.025,1.0,,,,,,,1539197948.416539,1539197950.885898,
313,15,Memory,6,,,,,,,sunaakjaacuzulqckgl.jpg,,,,,0.909,1.0,,,,,,,1539197952.167871,1539197954.539095,
314,15,Memory,6,,,,,,,00747941201fa.jpg,,,,,0.792,1.0,,,,,,,1539197955.802902,1539197958.120204,
315,15,Memory,6,,,,,,,sunajrujcsdxmfbssmc.jpg,,,,,1.128,1.0,,,,,,,1539197959.385965,1539197961.826226,
316,15,Memory,6,,,,,,,sunadfktsqjthoglcsm.jpg,,,,,0.725,1.0,,,,,,,1539197963.088174,1539197965.400697,
317,15,Memory,6,,,,,,,sunabppokiyglaxpcha.jpg,,,,,0.809,1.0,,,,,,,1539197966.655536,1539197969.000825,
318,15,Memory,6,,,,,,,00267940128fb.jpg,,,,,0.607,1.0,,,,,,,1539197970.273626,1539197972.50283,
319,15,Memory,6,,,,,,,sunaajtnvzzpsjdzres.jpg,,,,,1.127,1.0,,,,,,,1539197973.757982,1539197976.592046,
320,15,Memory,6,,,,,,,sunahwgbqkqcrwprgvh.jpg,,,,,1.711,1.0,,,,,,,1539197977.841488,1539197980.989003,
321,15,Memory,6,,,,,,,00197940128fa.jpg,,,,,0.527,1.0,,,,,,,1539197982.261381,1539197984.641046,
322,15,Memory,6,,,,,,,00947960627fa.jpg,,,,,0.627,1.0,,,,,,,1539197985.945383,1539197988.490995,
323,15,Memory,6,,,,,,,sunaaylzyqlqrsmfwif.jpg,,,,,2.393,1.0,,,,,,,1539197989.746883,1539197992.292867,
324,15,Memory,6,,,,,,,sunaeutbrtswvsozxyk.jpg,,,,,1.028,4.0,,,,,,,1539197993.564447,1539197996.350198,
325,15,Memory,6,,,,,,,00292940422fb.jpg,,,,,0.709,1.0,,,,,,,1539197997.615508,1539198000.00002,
326,15,Memory,6,,,,,,,sunagmwxxwymwojbvgi.jpg,,,,,1.86,3.0,,,,,,,1539198001.267267,1539198003.900406,
327,15,Memory,6,,,,,,,00108960530fa.jpg,,,,,0.576,1.0,,,,,,,1539198005.168665,1539198007.530343,
328,15,Memory,6,,,,,,,sunarpsxqkduedrrzyi.jpg,,,,,0.828,1.0,,,,,,,1539198008.802972,1539198011.298519,
329,15,Memory,6,,,,,,,00112931230fa.jpg,,,,,0.693,1.0,,,,,,,1539198012.553928,1539198014.95072,
330,15,Memory,6,,,,,,,sunagfvluwixdsozaql.jpg,,,,,0.926,4.0,,,,,,,1539198016.222235,1539198018.800759,
331,15,Memory,6,,,,,,,00316940422fa.jpg,,,,,0.761,1.0,,,,,,,1539198020.056208,1539198022.756633,
332,15,Memory,6,,,,,,,00235940128fb.jpg,,,,,1.027,1.0,,,,,,,1539198024.007538,1539198026.457988,
333,15,Memory,6,,,,,,,sunasmmcxdddtmtazwx.jpg,,,,,1.035,4.0,,,,,,,1539198027.725647,1539198030.060005,
334,15,Memory,6,,,,,,,00288940422fa.jpg,,,,,0.716,1.0,,,,,,,1539198031.327192,1539198033.605841,
335,15,Memory,6,,,,,,,sunablfqiwfqomjarht.jpg,,,,,1.226,1.0,,,,,,,1539198034.878308,1539198037.473922,
336,15,Memory,6,,,,,,,sunacvjlsylseoghjup.jpg,,,,,0.693,1.0,,,,,,,1539198038.729434,1539198041.59219,
337,15,Memory,6,,,,,,,sunabxmguapjekttvwm.jpg,,,,,0.758,1.0,,,,,,,1539198042.84662,1539198045.336327,
338,15,Memory,6,,,,,,,sunabclssnoeuigtawp.jpg,,,,,1.026,1.0,,,,,,,1539198046.615177,1539198049.147037,
339,15,Memory,6,,,,,,,sunachtuarilwyqnvjx.jpg,,,,,0.658,1.0,,,,,,,1539198050.400127,1539198052.945191,
340,15,Memory,6,,,,,,,00787941205fa.jpg,,,,,0.561,1.0,,,,,,,1539198054.201187,1539198056.632938,
341,15,Memory,6,,,,,,,00782941205fa.jpg,,,,,0.61,1.0,,,,,,,1539198057.918584,1539198060.331863,
342,15,Memory,6,,,,,,,00871940307.jpg,,,,,0.943,1.0,,,,,,,1539198061.586857,1539198063.805682,
343,15,Memory,6,,,,,,,00793941205fa.jpg,,,,,2.56,1.0,,,,,,,1539198065.072015,1539198068.067708,
344,15,Memory,6,,,,,,,00576941031fa.jpg,,,,,0.727,1.0,,,,,,,1539198069.339217,1539198071.623233,
345,15,Memory,6,,,,,,,00997960627fa.jpg,,,,,0.775,1.0,,,,,,,1539198072.907446,1539198075.537067,
346,15,Memory,6,,,,,,,sunagtjwilqjvxohypn.jpg,,,,,1.543,1.0,,,,,,,1539198076.808597,1539198079.330195,
347,15,Memory,6,,,,,,,00943960627fa.jpg,,,,,0.86,1.0,,,,,,,1539198080.609973,1539198083.229115,
348,15,Memory,6,,,,,,,00557940519fa.jpg,,,,,1.076,3.0,,,,,,,1539198084.678081,1539198086.894102,
349,15,Memory,6,,,,,,,sunbtpilbhhbmhmeuzq.jpg,,,,,1.628,1.0,,,,,,,1539198088.178394,1539198090.858005,
