,Subject,Trial Type,Run,Cued Composite,Uncued Composite,Cued Face,Cued Place,Uncued Face,Uncued Place,Memory Image,Category,Cued Side,Cued Category,Attention Reaction Time (s),Familiarity Reaction Time (s),Familiarity Rating,Attention Level,Cue Validity,Post Invalid Cue,Pre Invalid Cue,Attention Button,Rating History,Stimulus Onset,Stimulus End,Attention Probe
360,15,Memory,7,,,,,,,sunaaelotvjgibjtjhs.jpg,,,,,1.887,4.0,,,,,,,1539198271.150331,1539198273.201242,
361,15,Memory,7,,,,,,,00631940928fa.jpg,,,,,1.387,3.0,,,,,,,1539198274.468452,1539198276.452617,
362,15,Memory,7,,,,,,,sunakodkcslgqhqlgwl.jpg,,,,,0.87,1.0,,,,,,,1539198277.719606,1539198279.704812,
363,15,Memory,7,,,,,,,00662941121fa.jpg,,,,,0.736,1.0,,,,,,,1539198280.954006,1539198282.93799,
364,15,Memory,7,,,,,,,sunaooaqzputrowwbsw.jpg,,,,,0.821,1.0,,,,,,,1539198284.204991,1539198286.189866,
365,15,Memory,7,,,,,,,sunacxtcahkymosigud.jpg,,,,,1.737,2.0,,,,,,,1539198287.456034,1539198289.439308,
366,15,Memory,7,,,,,,,00809960620fa.jpg,,,,,0.586,1.0,,,,,,,1539198290.690477,1539198292.674421,
367,15,Memory,7,,,,,,,00263940128fb.jpg,,,,,0.518,1.0,,,,,,,1539198293.924319,1539198295.908768,
368,15,Memory,7,,,,,,,00126931230fb.jpg,,,,,0.703,1.0,,,,,,,1539198297.175776,1539198299.158829,
369,15,Memory,7,,,,,,,00841940307fa.jpg,,,,,0.686,1.0,,,,,,,1539198300.410657,1539198302.394208,
370,15,Memory,7,,,,,,,sunadbdqzigzwipuipr.jpg,,,,,1.687,1.0,,,,,,,1539198303.644179,1539198305.628967,
371,15,Memory,7,,,,,,,sundbixjudsgeuuehrn.jpg,,,,,0.686,1.0,,,,,,,1539198306.879144,1539198308.863106,
372,15,Memory,7,,,,,,,sunadkazmlajmohnwfl.jpg,,,,,0.686,1.0,,,,,,,1539198310.114276,1539198312.097596,
373,15,Memory,7,,,,,,,sunbvzmgrdvaakxusbu.jpg,,,,,0.62,1.0,,,,,,,1539198313.347517,1539198315.331857,
374,15,Memory,7,,,,,,,00810941205fa.jpg,,,,,0.57,1.0,,,,,,,1539198316.582765,1539198318.566564,
375,15,Memory,7,,,,,,,sunahctntqrunhdxhtb.jpg,,,,,0.67,1.0,,,,,,,1539198319.817116,1539198321.801129,
376,15,Memory,7,,,,,,,sunbwaafjdebjzttuvq.jpg,,,,,0.686,1.0,,,,,,,1539198323.051015,1539198325.035088,
377,15,Memory,7,,,,,,,sunaavodbcpygkggnfp.jpg,,,,,1.22,1.0,,,,,,,1539198326.302433,1539198328.285258,
378,15,Memory,7,,,,,,,01000960627fa.jpg,,,,,0.52,1.0,,,,,,,1539198329.55242,1539198331.536636,
379,15,Memory,7,,,,,,,sunaeuzwggvibufclwf.jpg,,,,,0.72,1.0,,,,,,,1539198332.787579,1539198334.771553,
380,15,Memory,7,,,,,,,00911960530fa.jpg,,,,,0.47,1.0,,,,,,,1539198336.038658,1539198338.021953,
381,15,Memory,7,,,,,,,sunaisiwfgppimtnmxl.jpg,,,,,0.653,1.0,,,,,,,1539198339.272666,1539198341.256991,
382,15,Memory,7,,,,,,,sunaamdjwemxpmmtypi.jpg,,,,,0.854,1.0,,,,,,,1539198342.62404,1539198344.607047,
383,15,Memory,7,,,,,,,01207940128fa.jpg,,,,,0.585,1.0,,,,,,,1539198345.859139,1539198347.842437,
384,15,Memory,7,,,,,,,00884960530fa.jpg,,,,,0.519,1.0,,,,,,,1539198349.108525,1539198351.093749,
385,15,Memory,7,,,,,,,00749941201fa.jpg,,,,,0.536,1.0,,,,,,,1539198352.360397,1539198354.343799,
386,15,Memory,7,,,,,,,00860940307fa.jpg,,,,,0.605,1.0,,,,,,,1539198355.595723,1539198357.578951,
387,15,Memory,7,,,,,,,00750941201fa.jpg,,,,,0.77,1.0,,,,,,,1539198358.828227,1539198360.81409,
388,15,Memory,7,,,,,,,00909960530.jpg,,,,,0.919,3.0,,,,,,,1539198362.063271,1539198364.047101,
389,15,Memory,7,,,,,,,00598941031fa.jpg,,,,,0.586,1.0,,,,,,,1539198365.299205,1539198367.281441,
390,15,Memory,7,,,,,,,sunajawzbrlrwafowen.jpg,,,,,1.288,1.0,,,,,,,1539198368.549492,1539198370.533667,
391,15,Memory,7,,,,,,,00163931230fb.jpg,,,,,0.586,1.0,,,,,,,1539198371.800616,1539198373.78366,
392,15,Memory,7,,,,,,,sunahbvlpavurqoxdeq.jpg,,,,,0.769,4.0,,,,,,,1539198375.051812,1539198377.034902,
393,15,Memory,7,,,,,,,00062931230fb.jpg,,,,,0.586,1.0,,,,,,,1539198378.285085,1539198380.270061,
394,15,Memory,7,,,,,,,sunabjuovqvyfuzvqwt.jpg,,,,,0.619,1.0,,,,,,,1539198381.536279,1539198383.52011,
395,15,Memory,7,,,,,,,00864940307fa.jpg,,,,,0.703,1.0,,,,,,,1539198384.771585,1539198386.754678,
396,15,Memory,7,,,,,,,sunaeuvjbmdpknaqqaj.jpg,,,,,1.603,1.0,,,,,,,1539198388.004712,1539198389.989666,
397,15,Memory,7,,,,,,,01002960627fb.jpg,,,,,0.52,1.0,,,,,,,1539198391.256902,1539198393.240113,
398,15,Memory,7,,,,,,,sunaizeyhvjzknwjudw.jpg,,,,,1.454,2.0,,,,,,,1539198394.506869,1539198396.4911,
399,15,Memory,7,,,,,,,sunaobtizabegtwfwul.jpg,,,,,1.12,2.0,,,,,,,1539198397.741258,1539198399.726344,
