,Subject,Trial Type,Run,Cued Composite,Uncued Composite,Cued Face,Cued Place,Uncued Face,Uncued Place,Memory Image,Category,Cued Side,Cued Category,Attention Response Time (s),Familiarity Reaction Time (s),Familiarity Rating,Attention Level,Cue Validity,Post Invalid Cue,Pre Invalid Cue,Attention Button,Rating History,Stimulus Onset,Stimulus End,Attention Probe
0,34,Presentation,0,00070940307fa_sunaaeplwsfslcbtojr.jpg,00631940928fa_sunadbdqzigzwipuipr.jpg,00070940307fa.jpg,sunaaeplwsfslcbtojr.jpg,00631940928fa.jpg,sunadbdqzigzwipuipr.jpg,,,>,Face,,,,,1,,,,,,,x
1,34,Presentation,0,00800941205fb_sunagvjurcwdbixvnyi.jpg,00630941031fa_sunadakkdovnuzlycvp.jpg,00800941205fb.jpg,sunagvjurcwdbixvnyi.jpg,00630941031fa.jpg,sunadakkdovnuzlycvp.jpg,,,>,Face,,,,,1,,,,,,,o
2,34,Presentation,0,00894960620fa_sunalqmfgeadpqsyzpd.jpg,00926960627Fa_sunapqwoeotxshkukbh.jpg,00894960620fa.jpg,sunalqmfgeadpqsyzpd.jpg,00926960627Fa.jpg,sunapqwoeotxshkukbh.jpg,,,>,Face,,,,,1,,,,,,,x
3,34,Presentation,0,00753941201fa_sunafcofuuzebuadceo.jpg,00314940422fa_sunabwmcbaxwioksdgw.jpg,00753941201fa.jpg,sunafcofuuzebuadceo.jpg,00314940422fa.jpg,sunabwmcbaxwioksdgw.jpg,,,>,Face,,,,,1,,,,,,,x
4,34,Presentation,0,00562941031fa_sunacjnahdmqfnjfwqx.jpg,00779941205fa_sunagdzlvkqtpnfxfcg.jpg,00562941031fa.jpg,sunacjnahdmqfnjfwqx.jpg,00779941205fa.jpg,sunagdzlvkqtpnfxfcg.jpg,,,>,Face,,,,,0,,,,,,,x
5,34,Presentation,0,00109931230fa_sunaajuzribjrizdshh.jpg,00725941201fa_sunaefgzwiramypjvtd.jpg,00109931230fa.jpg,sunaajuzribjrizdshh.jpg,00725941201fa.jpg,sunaefgzwiramypjvtd.jpg,,,>,Face,,,,,1,,,,,,,x
6,34,Presentation,0,00482940519fa_sunabyfxcxhdebvdyfd.jpg,00127931230fa_sunaampvucecsfbdafn.jpg,00482940519fa.jpg,sunabyfxcxhdebvdyfd.jpg,00127931230fa.jpg,sunaampvucecsfbdafn.jpg,,,>,Face,,,,,1,,,,,,,o
7,34,Presentation,0,00548940519fa_sunacerqowiaeoqkmsq.jpg,00766960620fa_sunafijbgncijwykrnl.jpg,00548940519fa.jpg,sunacerqowiaeoqkmsq.jpg,00766960620fa.jpg,sunafijbgncijwykrnl.jpg,,,>,Face,,,,,1,,,,,,,x
8,34,Presentation,0,00812941205fa_sunahgtbwgsmtqeodwh.jpg,00887960530_sunalcrtwiycqobgelp.jpg,00812941205fa.jpg,sunahgtbwgsmtqeodwh.jpg,00887960530.jpg,sunalcrtwiycqobgelp.jpg,,,>,Face,,,,,1,,,,,,,x
9,34,Presentation,0,00874940307fa_sunajtrfunvzdfticna.jpg,00959960627fa_sunavxokzybtomhbmvm.jpg,00874940307fa.jpg,sunajtrfunvzdfticna.jpg,00959960627fa.jpg,sunavxokzybtomhbmvm.jpg,,,>,Face,,,,,1,,,,,,,x
10,34,Memory,0,,,,,,,00988960627fa.jpg,,,,,,,,,,,,,,,
11,34,Memory,0,,,,,,,sunadbdqzigzwipuipr.jpg,,,,,,,,,,,,,,,
12,34,Memory,0,,,,,,,sunabyfxcxhdebvdyfd.jpg,,,,,,,,,,,,,,,
13,34,Memory,0,,,,,,,sunaffgsyyvoqdlkmnk.jpg,,,,,,,,,,,,,,,
14,34,Memory,0,,,,,,,00895960530fa.jpg,,,,,,,,,,,,,,,
15,34,Memory,0,,,,,,,sunaddsaeicthrfbkhe.jpg,,,,,,,,,,,,,,,
16,34,Memory,0,,,,,,,sunabmytpyhsgigllxu.jpg,,,,,,,,,,,,,,,
17,34,Memory,0,,,,,,,00753941201fa.jpg,,,,,,,,,,,,,,,
18,34,Memory,0,,,,,,,00836940307fa.jpg,,,,,,,,,,,,,,,
19,34,Memory,0,,,,,,,00635941031fa.jpg,,,,,,,,,,,,,,,
20,34,Memory,0,,,,,,,00630941031fa.jpg,,,,,,,,,,,,,,,
21,34,Memory,0,,,,,,,00070940307fa.jpg,,,,,,,,,,,,,,,
22,34,Memory,0,,,,,,,sunaiwfobocrruqznsv.jpg,,,,,,,,,,,,,,,
23,34,Memory,0,,,,,,,00290940422fa.jpg,,,,,,,,,,,,,,,
24,34,Memory,0,,,,,,,00926960627Fa.jpg,,,,,,,,,,,,,,,
25,34,Memory,0,,,,,,,00482940519fa.jpg,,,,,,,,,,,,,,,
26,34,Memory,0,,,,,,,sunaaeplwsfslcbtojr.jpg,,,,,,,,,,,,,,,
27,34,Memory,0,,,,,,,sunafbwnojpqeyzssoe.jpg,,,,,,,,,,,,,,,
28,34,Memory,0,,,,,,,00779941205fa.jpg,,,,,,,,,,,,,,,
29,34,Memory,0,,,,,,,00754941201fa.jpg,,,,,,,,,,,,,,,
30,34,Memory,0,,,,,,,sunbmaiocftdtvnzgap.jpg,,,,,,,,,,,,,,,
31,34,Memory,0,,,,,,,00812941205fa.jpg,,,,,,,,,,,,,,,
32,34,Memory,0,,,,,,,sunainqelldeebvxtcz.jpg,,,,,,,,,,,,,,,
33,34,Memory,0,,,,,,,00887960530.jpg,,,,,,,,,,,,,,,
34,34,Memory,0,,,,,,,00060931230fa.jpg,,,,,,,,,,,,,,,
35,34,Memory,0,,,,,,,sunafcofuuzebuadceo.jpg,,,,,,,,,,,,,,,
36,34,Memory,0,,,,,,,00276940422fa.jpg,,,,,,,,,,,,,,,
37,34,Memory,0,,,,,,,sunadakkdovnuzlycvp.jpg,,,,,,,,,,,,,,,
38,34,Memory,0,,,,,,,sunamczizlzavhzhpay.jpg,,,,,,,,,,,,,,,
39,34,Memory,0,,,,,,,sunacerqowiaeoqkmsq.jpg,,,,,,,,,,,,,,,
40,34,Memory,0,,,,,,,00857940307fa.jpg,,,,,,,,,,,,,,,
41,34,Memory,0,,,,,,,00752960620fa.jpg,,,,,,,,,,,,,,,
42,34,Memory,0,,,,,,,00548940519fa.jpg,,,,,,,,,,,,,,,
43,34,Memory,0,,,,,,,sunahgtbwgsmtqeodwh.jpg,,,,,,,,,,,,,,,
44,34,Memory,0,,,,,,,00631940928fa.jpg,,,,,,,,,,,,,,,
45,34,Memory,0,,,,,,,sunabqowuarvqqcnipn.jpg,,,,,,,,,,,,,,,
46,34,Memory,0,,,,,,,sunalcrtwiycqobgelp.jpg,,,,,,,,,,,,,,,
47,34,Memory,0,,,,,,,sunaaehaikpckyjsety.jpg,,,,,,,,,,,,,,,
48,34,Memory,0,,,,,,,sunagdzlvkqtpnfxfcg.jpg,,,,,,,,,,,,,,,
49,34,Memory,0,,,,,,,sunapqwoeotxshkukbh.jpg,,,,,,,,,,,,,,,
50,34,Presentation,1,00984960627fa_sunbfzchmomnvzhbxdg.jpg,00902960530fa_sunanaacmmosxrfwmvl.jpg,00984960627fa.jpg,sunbfzchmomnvzhbxdg.jpg,00902960530fa.jpg,sunanaacmmosxrfwmvl.jpg,,,<,Place,,,,,1,,,,,,,x
51,34,Presentation,1,00479940519fa_sunabxsbfwjccqxxzxq.jpg,00316940422fa_sunabxmguapjekttvwm.jpg,00479940519fa.jpg,sunabxsbfwjccqxxzxq.jpg,00316940422fa.jpg,sunabxmguapjekttvwm.jpg,,,<,Place,,,,,0,,,,,,,o
52,34,Presentation,1,00089931230fa_sunaagcpoejbuzyvddd.jpg,00901960530fa_sunammbnoambmhdxdwd.jpg,00089931230fa.jpg,sunaagcpoejbuzyvddd.jpg,00901960530fa.jpg,sunammbnoambmhdxdwd.jpg,,,<,Place,,,,,1,,,,,,,o
53,34,Presentation,1,00498960627fa_sunabzjxlmkwnwzimua.jpg,00288940422fa_sunabppokiyglaxpcha.jpg,00498960627fa.jpg,sunabzjxlmkwnwzimua.jpg,00288940422fa.jpg,sunabppokiyglaxpcha.jpg,,,<,Place,,,,,1,,,,,,,x
54,34,Presentation,1,00090931230fa_sunaahedjlmtqekgyvj.jpg,00638941031fa_sunadfktsqjthoglcsm.jpg,00090931230fa.jpg,sunaahedjlmtqekgyvj.jpg,00638941031fa.jpg,sunadfktsqjthoglcsm.jpg,,,<,Place,,,,,1,,,,,,,o
55,34,Presentation,1,00786941205fa_sunagmhildamktmqjss.jpg,00839940307fa_sunaipyohrqlwngaqif.jpg,00786941205fa.jpg,sunagmhildamktmqjss.jpg,00839940307fa.jpg,sunaipyohrqlwngaqif.jpg,,,<,Place,,,,,1,,,,,,,x
56,34,Presentation,1,00727941205fa_sunaeisnjeetzmkbuad.jpg,00096931230fa_sunaaiqiqcggrskoqgy.jpg,00727941205fa.jpg,sunaeisnjeetzmkbuad.jpg,00096931230fa.jpg,sunaaiqiqcggrskoqgy.jpg,,,<,Place,,,,,1,,,,,,,x
57,34,Presentation,1,00581940928fa_sunacvzhvcksnwqcqbw.jpg,00961960627fa_sunawotxrevnqvamsfp.jpg,00581940928fa.jpg,sunacvzhvcksnwqcqbw.jpg,00961960627fa.jpg,sunawotxrevnqvamsfp.jpg,,,<,Place,,,,,1,,,,,,,o
58,34,Presentation,1,00803941205fa_sunagvxkjokqimstxpe.jpg,00120931230fa_sunaakxgygjfqrzpyoz.jpg,00803941205fa.jpg,sunagvxkjokqimstxpe.jpg,00120931230fa.jpg,sunaakxgygjfqrzpyoz.jpg,,,<,Place,,,,,1,,,,,,,x
59,34,Presentation,1,00835940307fa_sunaijsqpvodplbwxkf.jpg,00093931230fa_sunaahwnmtqsrhocysw.jpg,00835940307fa.jpg,sunaijsqpvodplbwxkf.jpg,00093931230fa.jpg,sunaahwnmtqsrhocysw.jpg,,,<,Place,,,,,1,,,,,,,x
60,34,Memory,1,,,,,,,sunagjzcrjvmxzqzljx.jpg,,,,,,,,,,,,,,,
61,34,Memory,1,,,,,,,00125931230fa.jpg,,,,,,,,,,,,,,,
62,34,Memory,1,,,,,,,sunaejnvnpltdmhbcsi.jpg,,,,,,,,,,,,,,,
63,34,Memory,1,,,,,,,00089931230fa.jpg,,,,,,,,,,,,,,,
64,34,Memory,1,,,,,,,00889960530fa.jpg,,,,,,,,,,,,,,,
65,34,Memory,1,,,,,,,00728941205fa.jpg,,,,,,,,,,,,,,,
66,34,Memory,1,,,,,,,00727941205fa.jpg,,,,,,,,,,,,,,,
67,34,Memory,1,,,,,,,sunagmhildamktmqjss.jpg,,,,,,,,,,,,,,,
68,34,Memory,1,,,,,,,00839940307fa.jpg,,,,,,,,,,,,,,,
69,34,Memory,1,,,,,,,00961960627fa.jpg,,,,,,,,,,,,,,,
70,34,Memory,1,,,,,,,sunaeisnjeetzmkbuad.jpg,,,,,,,,,,,,,,,
71,34,Memory,1,,,,,,,00784941205fb.jpg,,,,,,,,,,,,,,,
72,34,Memory,1,,,,,,,sunabxmguapjekttvwm.jpg,,,,,,,,,,,,,,,
73,34,Memory,1,,,,,,,00976960627fa.jpg,,,,,,,,,,,,,,,
74,34,Memory,1,,,,,,,00093931230fa.jpg,,,,,,,,,,,,,,,
75,34,Memory,1,,,,,,,00786941205fa.jpg,,,,,,,,,,,,,,,
76,34,Memory,1,,,,,,,00815941205fa.jpg,,,,,,,,,,,,,,,
77,34,Memory,1,,,,,,,sunaalltyvjhbzhkmvg.jpg,,,,,,,,,,,,,,,
78,34,Memory,1,,,,,,,sunagpancjmxqfazssf.jpg,,,,,,,,,,,,,,,
79,34,Memory,1,,,,,,,00789960620fa.jpg,,,,,,,,,,,,,,,
80,34,Memory,1,,,,,,,sunabzjxlmkwnwzimua.jpg,,,,,,,,,,,,,,,
81,34,Memory,1,,,,,,,sunaletopenvvozhpxc.jpg,,,,,,,,,,,,,,,
82,34,Memory,1,,,,,,,sunaipyohrqlwngaqif.jpg,,,,,,,,,,,,,,,
83,34,Memory,1,,,,,,,sunaahwnmtqsrhocysw.jpg,,,,,,,,,,,,,,,
84,34,Memory,1,,,,,,,sunahiphsekjihkafsl.jpg,,,,,,,,,,,,,,,
85,34,Memory,1,,,,,,,sunaagcpoejbuzyvddd.jpg,,,,,,,,,,,,,,,
86,34,Memory,1,,,,,,,sunawotxrevnqvamsfp.jpg,,,,,,,,,,,,,,,
87,34,Memory,1,,,,,,,sunaatpkocdkocwxpkb.jpg,,,,,,,,,,,,,,,
88,34,Memory,1,,,,,,,sunbbhqyyzmsxhsbjmp.jpg,,,,,,,,,,,,,,,
89,34,Memory,1,,,,,,,sunaiycurtqsfkvcaso.jpg,,,,,,,,,,,,,,,
90,34,Memory,1,,,,,,,00147931230fb.jpg,,,,,,,,,,,,,,,
91,34,Memory,1,,,,,,,sunabxsuqbleluwczoy.jpg,,,,,,,,,,,,,,,
92,34,Memory,1,,,,,,,00859940307fa.jpg,,,,,,,,,,,,,,,
93,34,Memory,1,,,,,,,00902960530fa.jpg,,,,,,,,,,,,,,,
94,34,Memory,1,,,,,,,sunanaacmmosxrfwmvl.jpg,,,,,,,,,,,,,,,
95,34,Memory,1,,,,,,,00479940519fa.jpg,,,,,,,,,,,,,,,
96,34,Memory,1,,,,,,,00498960627fa.jpg,,,,,,,,,,,,,,,
97,34,Memory,1,,,,,,,sunabxsbfwjccqxxzxq.jpg,,,,,,,,,,,,,,,
98,34,Memory,1,,,,,,,00316940422fa.jpg,,,,,,,,,,,,,,,
99,34,Memory,1,,,,,,,00481940519fa.jpg,,,,,,,,,,,,,,,
100,34,Presentation,2,00197940128fa_sunaaylzyqlqrsmfwif.jpg,00098931230fa_sunaajpqmulidejvjsr.jpg,00197940128fa.jpg,sunaaylzyqlqrsmfwif.jpg,00098931230fa.jpg,sunaajpqmulidejvjsr.jpg,,,<,Face,,,,,0,,,,,,,o
101,34,Presentation,2,00598940928fa_sunacxeheuiigkcgquf.jpg,00138931230fa_sunaapfaivxqoynnwwp.jpg,00598940928fa.jpg,sunacxeheuiigkcgquf.jpg,00138931230fa.jpg,sunaapfaivxqoynnwwp.jpg,,,<,Face,,,,,1,,,,,,,o
102,34,Presentation,2,00799941205fa_sunagutjvdvnhxejerz.jpg,00705960530fa_sunaduslxfzlbxlllnz.jpg,00799941205fa.jpg,sunagutjvdvnhxejerz.jpg,00705960530fa.jpg,sunaduslxfzlbxlllnz.jpg,,,<,Face,,,,,1,,,,,,,x
103,34,Presentation,2,00108960530fa_sunaajtnvzzpsjdzres.jpg,00914960620fa_sunaozisvwfbmlkfhzv.jpg,00108960530fa.jpg,sunaajtnvzzpsjdzres.jpg,00914960620fa.jpg,sunaozisvwfbmlkfhzv.jpg,,,<,Face,,,,,1,,,,,,,x
104,34,Presentation,2,00507940519fa_sunacacflqoyxhsqzhe.jpg,00999960627fa_sunbvbrvgbpanfrawft.jpg,00507940519fa.jpg,sunacacflqoyxhsqzhe.jpg,00999960627fa.jpg,sunbvbrvgbpanfrawft.jpg,,,<,Face,,,,,1,,,,,,,o
105,34,Presentation,2,00773960620fa_sunafvsxtzaizojicxx.jpg,00903960620fa_sunanainkqdvktzoxyl.jpg,00773960620fa.jpg,sunafvsxtzaizojicxx.jpg,00903960620fa.jpg,sunanainkqdvktzoxyl.jpg,,,<,Face,,,,,1,,,,,,,x
106,34,Presentation,2,00676941121fa_sunadpnqovzckyikrjo.jpg,00145931230fb_sunaatjesvdupctftmn.jpg,00676941121fa.jpg,sunadpnqovzckyikrjo.jpg,00145931230fb.jpg,sunaatjesvdupctftmn.jpg,,,<,Face,,,,,1,,,,,,,o
107,34,Presentation,2,00969960627fa_sunbaoizrfijvhpnnjn.jpg,00694941121fa_sunadrmfzmstgdjdcod.jpg,00969960627fa.jpg,sunbaoizrfijvhpnnjn.jpg,00694941121fa.jpg,sunadrmfzmstgdjdcod.jpg,,,<,Face,,,,,1,,,,,,,x
108,34,Presentation,2,00126931230fb_sunaamdjwemxpmmtypi.jpg,00818940307fa_sunahpblecxtmuzkmxb.jpg,00126931230fb.jpg,sunaamdjwemxpmmtypi.jpg,00818940307fa.jpg,sunahpblecxtmuzkmxb.jpg,,,<,Face,,,,,1,,,,,,,o
109,34,Presentation,2,00871940307_sunajrujcsdxmfbssmc.jpg,00909960530_sunaobtizabegtwfwul.jpg,00871940307.jpg,sunajrujcsdxmfbssmc.jpg,00909960530.jpg,sunaobtizabegtwfwul.jpg,,,<,Face,,,,,1,,,,,,,o
110,34,Memory,2,,,,,,,00694941121fa.jpg,,,,,,,,,,,,,,,
111,34,Memory,2,,,,,,,sunagutjvdvnhxejerz.jpg,,,,,,,,,,,,,,,
112,34,Memory,2,,,,,,,00999960627fa.jpg,,,,,,,,,,,,,,,
113,34,Memory,2,,,,,,,sunaajtnvzzpsjdzres.jpg,,,,,,,,,,,,,,,
114,34,Memory,2,,,,,,,00903960620fa.jpg,,,,,,,,,,,,,,,
115,34,Memory,2,,,,,,,00705960530fa.jpg,,,,,,,,,,,,,,,
116,34,Memory,2,,,,,,,sunbpvgllfdejxcpjqp.jpg,,,,,,,,,,,,,,,
117,34,Memory,2,,,,,,,sunaduslxfzlbxlllnz.jpg,,,,,,,,,,,,,,,
118,34,Memory,2,,,,,,,00838940307fa.jpg,,,,,,,,,,,,,,,
119,34,Memory,2,,,,,,,sunaaylzyqlqrsmfwif.jpg,,,,,,,,,,,,,,,
120,34,Memory,2,,,,,,,sunasbbntuiheekqyaq.jpg,,,,,,,,,,,,,,,
121,34,Memory,2,,,,,,,00598940928fa.jpg,,,,,,,,,,,,,,,
122,34,Memory,2,,,,,,,sunabmbnddafmywtjjj.jpg,,,,,,,,,,,,,,,
123,34,Memory,2,,,,,,,sunbesrwkdsffeogeqq.jpg,,,,,,,,,,,,,,,
124,34,Memory,2,,,,,,,sunaapfaivxqoynnwwp.jpg,,,,,,,,,,,,,,,
125,34,Memory,2,,,,,,,00996960627fa.jpg,,,,,,,,,,,,,,,
126,34,Memory,2,,,,,,,sunabueyoajufbkraki.jpg,,,,,,,,,,,,,,,
127,34,Memory,2,,,,,,,sunacacflqoyxhsqzhe.jpg,,,,,,,,,,,,,,,
128,34,Memory,2,,,,,,,00132931230fb.jpg,,,,,,,,,,,,,,,
129,34,Memory,2,,,,,,,00138931230fa.jpg,,,,,,,,,,,,,,,
130,34,Memory,2,,,,,,,sunabzuqsrgcsonqlkz.jpg,,,,,,,,,,,,,,,
131,34,Memory,2,,,,,,,00505960627fa.jpg,,,,,,,,,,,,,,,
132,34,Memory,2,,,,,,,00306940422fa.jpg,,,,,,,,,,,,,,,
133,34,Memory,2,,,,,,,00265940128fb.jpg,,,,,,,,,,,,,,,
134,34,Memory,2,,,,,,,sunacxeheuiigkcgquf.jpg,,,,,,,,,,,,,,,
135,34,Memory,2,,,,,,,00944960627fa.jpg,,,,,,,,,,,,,,,
136,34,Memory,2,,,,,,,sunanainkqdvktzoxyl.jpg,,,,,,,,,,,,,,,
137,34,Memory,2,,,,,,,00197940128fa.jpg,,,,,,,,,,,,,,,
138,34,Memory,2,,,,,,,00271940422fa.jpg,,,,,,,,,,,,,,,
139,34,Memory,2,,,,,,,00108960530fa.jpg,,,,,,,,,,,,,,,
140,34,Memory,2,,,,,,,sunadrmfzmstgdjdcod.jpg,,,,,,,,,,,,,,,
141,34,Memory,2,,,,,,,00982960627fa.jpg,,,,,,,,,,,,,,,
142,34,Memory,2,,,,,,,00507940519fa.jpg,,,,,,,,,,,,,,,
143,34,Memory,2,,,,,,,sunaiozxhxgtfrmoagh.jpg,,,,,,,,,,,,,,,
144,34,Memory,2,,,,,,,sunaanjcbzdvtvblsdy.jpg,,,,,,,,,,,,,,,
145,34,Memory,2,,,,,,,00630940928fa.jpg,,,,,,,,,,,,,,,
146,34,Memory,2,,,,,,,00799941205fa.jpg,,,,,,,,,,,,,,,
147,34,Memory,2,,,,,,,sunbvbrvgbpanfrawft.jpg,,,,,,,,,,,,,,,
148,34,Memory,2,,,,,,,sunabkmdplkdbvxriff.jpg,,,,,,,,,,,,,,,
149,34,Memory,2,,,,,,,sunaczwgyukesaajxnx.jpg,,,,,,,,,,,,,,,
150,34,Presentation,3,00723941201fa_sunaedtgwjvvziytspa.jpg,00209940128fb_sunabaergayifsgacxt.jpg,00723941201fa.jpg,sunaedtgwjvvziytspa.jpg,00209940128fb.jpg,sunabaergayifsgacxt.jpg,,,>,Place,,,,,1,,,,,,,o
151,34,Presentation,3,00869940307fa_sunajoveqhiprwqgoco.jpg,00218940128fa_sunabbwggenhfbftyvi.jpg,00869940307fa.jpg,sunajoveqhiprwqgoco.jpg,00218940128fa.jpg,sunabbwggenhfbftyvi.jpg,,,>,Place,,,,,1,,,,,,,o
152,34,Presentation,3,00768941205fa_sunafkmnlytenlsywia.jpg,00077931230fb_sunaafgqutfaishsxyu.jpg,00768941205fa.jpg,sunafkmnlytenlsywia.jpg,00077931230fb.jpg,sunaafgqutfaishsxyu.jpg,,,>,Place,,,,,1,,,,,,,o
153,34,Presentation,3,00828940307fa_sunahuynahneraqftyz.jpg,00746941201fa_sunaetydippjxikifsb.jpg,00828940307fa.jpg,sunahuynahneraqftyz.jpg,00746941201fa.jpg,sunaetydippjxikifsb.jpg,,,>,Place,,,,,1,,,,,,,x
154,34,Presentation,3,00938960627fa_sunaqyylsngywqzwfmx.jpg,00783941205fa_sunagjeesomrwjsfqie.jpg,00938960627fa.jpg,sunaqyylsngywqzwfmx.jpg,00783941205fa.jpg,sunagjeesomrwjsfqie.jpg,,,>,Place,,,,,1,,,,,,,o
155,34,Presentation,3,00770941201fa_sunaflojskatpeqyzqp.jpg,00076931230fa_sunaafewhewbxmjiurz.jpg,00770941201fa.jpg,sunaflojskatpeqyzqp.jpg,00076931230fa.jpg,sunaafewhewbxmjiurz.jpg,,,>,Place,,,,,1,,,,,,,o
156,34,Presentation,3,00589940928fa_sunacwggadqsfpovdjv.jpg,00819940307fa_sunahqldjibofgsfdgb.jpg,00589940928fa.jpg,sunacwggadqsfpovdjv.jpg,00819940307fa.jpg,sunahqldjibofgsfdgb.jpg,,,>,Place,,,,,1,,,,,,,o
157,34,Presentation,3,00979960627fa_sunbdycacjfaujxitbw.jpg,00745941205fa_sunaeouogqolxvggaoq.jpg,00979960627fa.jpg,sunbdycacjfaujxitbw.jpg,00745941205fa.jpg,sunaeouogqolxvggaoq.jpg,,,>,Place,,,,,0,,,,,,,o
158,34,Presentation,3,00609940928fa_sunacycdoztxoluxjyk.jpg,00129931230fb_sunaamsdyakblkfoydx.jpg,00609940928fa.jpg,sunacycdoztxoluxjyk.jpg,00129931230fb.jpg,sunaamsdyakblkfoydx.jpg,,,>,Place,,,,,0,,,,,,,o
159,34,Presentation,3,00574940928fa_sunacvbrcejzwmcgnoq.jpg,00136931230fb_sunaanptmsknhirrzed.jpg,00574940928fa.jpg,sunacvbrcejzwmcgnoq.jpg,00136931230fb.jpg,sunaanptmsknhirrzed.jpg,,,>,Place,,,,,1,,,,,,,o
160,34,Memory,3,,,,,,,00768941205fa.jpg,,,,,,,,,,,,,,,
161,34,Memory,3,,,,,,,sunaydywdmvlfddbxbk.jpg,,,,,,,,,,,,,,,
162,34,Memory,3,,,,,,,sunaibnpvhkdpdnzcnz.jpg,,,,,,,,,,,,,,,
163,34,Memory,3,,,,,,,sunaeouogqolxvggaoq.jpg,,,,,,,,,,,,,,,
164,34,Memory,3,,,,,,,00970960627fa.jpg,,,,,,,,,,,,,,,
165,34,Memory,3,,,,,,,00979960627fa.jpg,,,,,,,,,,,,,,,
166,34,Memory,3,,,,,,,sunbdycacjfaujxitbw.jpg,,,,,,,,,,,,,,,
167,34,Memory,3,,,,,,,sunabkngeblodihjvbk.jpg,,,,,,,,,,,,,,,
168,34,Memory,3,,,,,,,00834940307fa.jpg,,,,,,,,,,,,,,,
169,34,Memory,3,,,,,,,00675941121fa.jpg,,,,,,,,,,,,,,,
170,34,Memory,3,,,,,,,00218940128fa.jpg,,,,,,,,,,,,,,,
171,34,Memory,3,,,,,,,sunahqldjibofgsfdgb.jpg,,,,,,,,,,,,,,,
172,34,Memory,3,,,,,,,00609940928fa.jpg,,,,,,,,,,,,,,,
173,34,Memory,3,,,,,,,sunajoveqhiprwqgoco.jpg,,,,,,,,,,,,,,,
174,34,Memory,3,,,,,,,00745941205fa.jpg,,,,,,,,,,,,,,,
175,34,Memory,3,,,,,,,00965960627fa.jpg,,,,,,,,,,,,,,,
176,34,Memory,3,,,,,,,00266940128fb.jpg,,,,,,,,,,,,,,,
177,34,Memory,3,,,,,,,00559940519fa.jpg,,,,,,,,,,,,,,,
178,34,Memory,3,,,,,,,sunabbwggenhfbftyvi.jpg,,,,,,,,,,,,,,,
179,34,Memory,3,,,,,,,00209940128fb.jpg,,,,,,,,,,,,,,,
180,34,Memory,3,,,,,,,00149931230fa.jpg,,,,,,,,,,,,,,,
181,34,Memory,3,,,,,,,00589940928fa.jpg,,,,,,,,,,,,,,,
182,34,Memory,3,,,,,,,sunacdnquypmsshhsbk.jpg,,,,,,,,,,,,,,,
183,34,Memory,3,,,,,,,00869940307fa.jpg,,,,,,,,,,,,,,,
184,34,Memory,3,,,,,,,00819940307fa.jpg,,,,,,,,,,,,,,,
185,34,Memory,3,,,,,,,sunacjkmnpawfzbyvae.jpg,,,,,,,,,,,,,,,
186,34,Memory,3,,,,,,,sunbasypfgzjtomktmu.jpg,,,,,,,,,,,,,,,
187,34,Memory,3,,,,,,,sunadoxcchtmsxewsau.jpg,,,,,,,,,,,,,,,
188,34,Memory,3,,,,,,,sunafgzgbisbopcyslr.jpg,,,,,,,,,,,,,,,
189,34,Memory,3,,,,,,,sunabaergayifsgacxt.jpg,,,,,,,,,,,,,,,
190,34,Memory,3,,,,,,,sunaeuvjbmdpknaqqaj.jpg,,,,,,,,,,,,,,,
191,34,Memory,3,,,,,,,00540940519fa.jpg,,,,,,,,,,,,,,,
192,34,Memory,3,,,,,,,sunaafgqutfaishsxyu.jpg,,,,,,,,,,,,,,,
193,34,Memory,3,,,,,,,sunacwggadqsfpovdjv.jpg,,,,,,,,,,,,,,,
194,34,Memory,3,,,,,,,00077931230fb.jpg,,,,,,,,,,,,,,,
195,34,Memory,3,,,,,,,sunafkmnlytenlsywia.jpg,,,,,,,,,,,,,,,
196,34,Memory,3,,,,,,,00749941201fa.jpg,,,,,,,,,,,,,,,
197,34,Memory,3,,,,,,,sunacycdoztxoluxjyk.jpg,,,,,,,,,,,,,,,
198,34,Memory,3,,,,,,,sunaauglwmctnkxyird.jpg,,,,,,,,,,,,,,,
199,34,Memory,3,,,,,,,00762941201fa.jpg,,,,,,,,,,,,,,,
200,34,Presentation,4,00532960627fa_sunaccdtpgenvcbcbcf.jpg,00880960530fa_sunakmnfgklupjijsgf.jpg,00532960627fa.jpg,sunaccdtpgenvcbcbcf.jpg,00880960530fa.jpg,sunakmnfgklupjijsgf.jpg,,,<,Face,,,,,0,,,,,,,o
201,34,Presentation,4,00825940307fa_sunahrltmuwbiehihpe.jpg,00242940128fa_sunabcuurugvxwparpk.jpg,00825940307fa.jpg,sunahrltmuwbiehihpe.jpg,00242940128fa.jpg,sunabcuurugvxwparpk.jpg,,,<,Face,,,,,1,,,,,,,o
202,34,Presentation,4,00774941201fa_sunafvtpfczkzopbgue.jpg,01004960627fa_sunbwtlihsuptkrckid.jpg,00774941201fa.jpg,sunafvtpfczkzopbgue.jpg,01004960627fa.jpg,sunbwtlihsuptkrckid.jpg,,,<,Face,,,,,1,,,,,,,x
203,34,Presentation,4,00892960530fa_sunalntxqqadigcletd.jpg,00884960530fa_sunakodkcslgqhqlgwl.jpg,00892960530fa.jpg,sunalntxqqadigcletd.jpg,00884960530fa.jpg,sunakodkcslgqhqlgwl.jpg,,,<,Face,,,,,1,,,,,,,x
204,34,Presentation,4,00239940128fa_sunabctlikybqabezjv.jpg,00829940307fa_sunahwgbqkqcrwprgvh.jpg,00239940128fa.jpg,sunabctlikybqabezjv.jpg,00829940307fa.jpg,sunahwgbqkqcrwprgvh.jpg,,,<,Face,,,,,1,,,,,,,x
205,34,Presentation,4,00073931230fa_sunaafbmtoniaasysgu.jpg,00989960627fa_sunbondbduabvijnmch.jpg,00073931230fa.jpg,sunaafbmtoniaasysgu.jpg,00989960627fa.jpg,sunbondbduabvijnmch.jpg,,,<,Face,,,,,1,,,,,,,o
206,34,Presentation,4,00908960530fa_sunanwjjyqqwzqrqagd.jpg,00955960627fb_sunauburywlkjszngcq.jpg,00908960530fa.jpg,sunanwjjyqqwzqrqagd.jpg,00955960627fb.jpg,sunauburywlkjszngcq.jpg,,,<,Face,,,,,1,,,,,,,x
207,34,Presentation,4,00801941205fa_sunagvprlbprarvgdvj.jpg,00071941031fa_sunaaexqbtdswxrqjvz.jpg,00801941205fa.jpg,sunagvprlbprarvgdvj.jpg,00071941031fa.jpg,sunaaexqbtdswxrqjvz.jpg,,,<,Face,,,,,1,,,,,,,x
208,34,Presentation,4,00302940422fa_sunabtlfmiwtljmoues.jpg,00990960627fa_sunbpflsdaxnddnwcqi.jpg,00302940422fa.jpg,sunabtlfmiwtljmoues.jpg,00990960627fa.jpg,sunbpflsdaxnddnwcqi.jpg,,,<,Face,,,,,1,,,,,,,o
209,34,Presentation,4,00848940307fa_sunaivdylrawbmhryfp.jpg,00198940128fb_sunaazezcsunmhttzxz.jpg,00848940307fa.jpg,sunaivdylrawbmhryfp.jpg,00198940128fb.jpg,sunaazezcsunmhttzxz.jpg,,,<,Face,,,,,1,,,,,,,x
210,34,Memory,4,,,,,,,00787941205fa.jpg,,,,,,,,,,,,,,,
211,34,Memory,4,,,,,,,00065931230fb.jpg,,,,,,,,,,,,,,,
212,34,Memory,4,,,,,,,sunavhxgmgrqsaptynb.jpg,,,,,,,,,,,,,,,
213,34,Memory,4,,,,,,,00242940128fa.jpg,,,,,,,,,,,,,,,
214,34,Memory,4,,,,,,,sunahrltmuwbiehihpe.jpg,,,,,,,,,,,,,,,
215,34,Memory,4,,,,,,,sunakmnfgklupjijsgf.jpg,,,,,,,,,,,,,,,
216,34,Memory,4,,,,,,,sunagvprlbprarvgdvj.jpg,,,,,,,,,,,,,,,
217,34,Memory,4,,,,,,,01004960627fa.jpg,,,,,,,,,,,,,,,
218,34,Memory,4,,,,,,,sunbondbduabvijnmch.jpg,,,,,,,,,,,,,,,
219,34,Memory,4,,,,,,,00620940928fa.jpg,,,,,,,,,,,,,,,
220,34,Memory,4,,,,,,,sunacypmnujalygkunp.jpg,,,,,,,,,,,,,,,
221,34,Memory,4,,,,,,,sunadvithllcgmfxsrn.jpg,,,,,,,,,,,,,,,
222,34,Memory,4,,,,,,,00133931230fa.jpg,,,,,,,,,,,,,,,
223,34,Memory,4,,,,,,,sunaaexqbtdswxrqjvz.jpg,,,,,,,,,,,,,,,
224,34,Memory,4,,,,,,,sunaajspcoepticvplv.jpg,,,,,,,,,,,,,,,
225,34,Memory,4,,,,,,,00681941121fa.jpg,,,,,,,,,,,,,,,
226,34,Memory,4,,,,,,,sunalntxqqadigcletd.jpg,,,,,,,,,,,,,,,
227,34,Memory,4,,,,,,,00302940422fa.jpg,,,,,,,,,,,,,,,
228,34,Memory,4,,,,,,,00239940128fa.jpg,,,,,,,,,,,,,,,
229,34,Memory,4,,,,,,,00957960627fa.jpg,,,,,,,,,,,,,,,
230,34,Memory,4,,,,,,,sunbwtlihsuptkrckid.jpg,,,,,,,,,,,,,,,
231,34,Memory,4,,,,,,,sunabtlfmiwtljmoues.jpg,,,,,,,,,,,,,,,
232,34,Memory,4,,,,,,,00270940422fb.jpg,,,,,,,,,,,,,,,
233,34,Memory,4,,,,,,,sunabctlikybqabezjv.jpg,,,,,,,,,,,,,,,
234,34,Memory,4,,,,,,,00719941201fa.jpg,,,,,,,,,,,,,,,
235,34,Memory,4,,,,,,,sunagmwxxwymwojbvgi.jpg,,,,,,,,,,,,,,,
236,34,Memory,4,,,,,,,sunabcuurugvxwparpk.jpg,,,,,,,,,,,,,,,
237,34,Memory,4,,,,,,,00071941031fa.jpg,,,,,,,,,,,,,,,
238,34,Memory,4,,,,,,,00989960627fa.jpg,,,,,,,,,,,,,,,
239,34,Memory,4,,,,,,,00880960530fa.jpg,,,,,,,,,,,,,,,
240,34,Memory,4,,,,,,,sunagufzbeteqdjxais.jpg,,,,,,,,,,,,,,,
241,34,Memory,4,,,,,,,00797960620fa.jpg,,,,,,,,,,,,,,,
242,34,Memory,4,,,,,,,00825940307fa.jpg,,,,,,,,,,,,,,,
243,34,Memory,4,,,,,,,00892960530fa.jpg,,,,,,,,,,,,,,,
244,34,Memory,4,,,,,,,sunadqmjrhfjyuzyvdd.jpg,,,,,,,,,,,,,,,
245,34,Memory,4,,,,,,,00102931230fa.jpg,,,,,,,,,,,,,,,
246,34,Memory,4,,,,,,,sunabllobxadqcyttej.jpg,,,,,,,,,,,,,,,
247,34,Memory,4,,,,,,,sunaanlwnpqndclffxt.jpg,,,,,,,,,,,,,,,
248,34,Memory,4,,,,,,,sunaaemixhfquhnxxlm.jpg,,,,,,,,,,,,,,,
249,34,Memory,4,,,,,,,00801941205fa.jpg,,,,,,,,,,,,,,,
250,34,Presentation,5,00810941205fa_sunahctntqrunhdxhtb.jpg,01207940128fa_sundbixjudsgeuuehrn.jpg,00810941205fa.jpg,sunahctntqrunhdxhtb.jpg,01207940128fa.jpg,sundbixjudsgeuuehrn.jpg,,,<,Place,,,,,1,,,,,,,x
251,34,Presentation,5,00483940519fa_sunabyvpwkgsjtijdwj.jpg,00906960530fa_sunantryfbloeaomfta.jpg,00483940519fa.jpg,sunabyvpwkgsjtijdwj.jpg,00906960530fa.jpg,sunantryfbloeaomfta.jpg,,,<,Place,,,,,1,,,,,,,o
252,34,Presentation,5,00796941205fa_sunaguchqqnrtodtezq.jpg,00993960627fa_sunbprywzqxjcezkbch.jpg,00796941205fa.jpg,sunaguchqqnrtodtezq.jpg,00993960627fa.jpg,sunbprywzqxjcezkbch.jpg,,,<,Place,,,,,1,,,,,,,x
253,34,Presentation,5,00862940307fa_sunaizgnnplsvajzhkc.jpg,00968960627fa_sunbagfpovqwbuexqdn.jpg,00862940307fa.jpg,sunaizgnnplsvajzhkc.jpg,00968960627fa.jpg,sunbagfpovqwbuexqdn.jpg,,,<,Place,,,,,1,,,,,,,x
254,34,Presentation,5,00184940128fa_sunaavtbadenwnzeutj.jpg,00973960627fa_sunbbgtoeuzierkkajt.jpg,00184940128fa.jpg,sunaavtbadenwnzeutj.jpg,00973960627fa.jpg,sunbbgtoeuzierkkajt.jpg,,,<,Place,,,,,1,,,,,,,x
255,34,Presentation,5,00910960530fa_sunaofikylqtxphvdem.jpg,00214940128fa_sunabbafjowbzcvbucc.jpg,00910960530fa.jpg,sunaofikylqtxphvdem.jpg,00214940128fa.jpg,sunabbafjowbzcvbucc.jpg,,,<,Place,,,,,1,,,,,,,o
256,34,Presentation,5,00893960530Fa_sunaloffvbvysigxent.jpg,00650941031fa_sunadikxpvqeabxrvvc.jpg,00893960530Fa.jpg,sunaloffvbvysigxent.jpg,00650941031fa.jpg,sunadikxpvqeabxrvvc.jpg,,,<,Place,,,,,1,,,,,,,o
257,34,Presentation,5,01000960627fa_sunbvzmgrdvaakxusbu.jpg,00949960627fb_sunasnqkkyhilqkxiqm.jpg,01000960627fa.jpg,sunbvzmgrdvaakxusbu.jpg,00949960627fb.jpg,sunasnqkkyhilqkxiqm.jpg,,,<,Place,,,,,1,,,,,,,x
258,34,Presentation,5,00913960530fa_sunaooffzffbhcpirmm.jpg,01005960627fa_sunbwyuesflwdpqtgoy.jpg,00913960530fa.jpg,sunaooffzffbhcpirmm.jpg,01005960627fa.jpg,sunbwyuesflwdpqtgoy.jpg,,,<,Place,,,,,1,,,,,,,x
259,34,Presentation,5,00866940307fa_sunajbwkywmsqkldfml.jpg,00123931230fb_sunaalcrrdbjgdztbiz.jpg,00866940307fa.jpg,sunajbwkywmsqkldfml.jpg,00123931230fb.jpg,sunaalcrrdbjgdztbiz.jpg,,,<,Place,,,,,1,,,,,,,o
260,34,Memory,5,,,,,,,00670941121fa.jpg,,,,,,,,,,,,,,,
261,34,Memory,5,,,,,,,00968960627fa.jpg,,,,,,,,,,,,,,,
262,34,Memory,5,,,,,,,sunaavodbcpygkggnfp.jpg,,,,,,,,,,,,,,,
263,34,Memory,5,,,,,,,sunbprywzqxjcezkbch.jpg,,,,,,,,,,,,,,,
264,34,Memory,5,,,,,,,00949960627fb.jpg,,,,,,,,,,,,,,,
265,34,Memory,5,,,,,,,sunaeutbrtswvsozxyk.jpg,,,,,,,,,,,,,,,
266,34,Memory,5,,,,,,,sunaakxjfbrrequcjmx.jpg,,,,,,,,,,,,,,,
267,34,Memory,5,,,,,,,00122931230fa.jpg,,,,,,,,,,,,,,,
268,34,Memory,5,,,,,,,sunaalcrrdbjgdztbiz.jpg,,,,,,,,,,,,,,,
269,34,Memory,5,,,,,,,00910960530fa.jpg,,,,,,,,,,,,,,,
270,34,Memory,5,,,,,,,00796941205fa.jpg,,,,,,,,,,,,,,,
271,34,Memory,5,,,,,,,sunasnqkkyhilqkxiqm.jpg,,,,,,,,,,,,,,,
272,34,Memory,5,,,,,,,00123931230fb.jpg,,,,,,,,,,,,,,,
273,34,Memory,5,,,,,,,00158931230fb.jpg,,,,,,,,,,,,,,,
274,34,Memory,5,,,,,,,00993960627fa.jpg,,,,,,,,,,,,,,,
275,34,Memory,5,,,,,,,00568940928fa.jpg,,,,,,,,,,,,,,,
276,34,Memory,5,,,,,,,00163931230fb.jpg,,,,,,,,,,,,,,,
277,34,Memory,5,,,,,,,01000960627fa.jpg,,,,,,,,,,,,,,,
278,34,Memory,5,,,,,,,00747941201fa.jpg,,,,,,,,,,,,,,,
279,34,Memory,5,,,,,,,sunagetqixeypsysbpn.jpg,,,,,,,,,,,,,,,
280,34,Memory,5,,,,,,,sunafgdqbclkwfocdhg.jpg,,,,,,,,,,,,,,,
281,34,Memory,5,,,,,,,00913960530fa.jpg,,,,,,,,,,,,,,,
282,34,Memory,5,,,,,,,00973960627fa.jpg,,,,,,,,,,,,,,,
283,34,Memory,5,,,,,,,sunbbfqwjpdxniyhies.jpg,,,,,,,,,,,,,,,
284,34,Memory,5,,,,,,,00780960530fa.jpg,,,,,,,,,,,,,,,
285,34,Memory,5,,,,,,,00483940519fa.jpg,,,,,,,,,,,,,,,
286,34,Memory,5,,,,,,,sunaguchqqnrtodtezq.jpg,,,,,,,,,,,,,,,
287,34,Memory,5,,,,,,,sunabyvpwkgsjtijdwj.jpg,,,,,,,,,,,,,,,
288,34,Memory,5,,,,,,,sunaofikylqtxphvdem.jpg,,,,,,,,,,,,,,,
289,34,Memory,5,,,,,,,00761960627fa.jpg,,,,,,,,,,,,,,,
290,34,Memory,5,,,,,,,00851940307fa.jpg,,,,,,,,,,,,,,,
291,34,Memory,5,,,,,,,sunbbgtoeuzierkkajt.jpg,,,,,,,,,,,,,,,
292,34,Memory,5,,,,,,,sunaivflshbyfrfzhqb.jpg,,,,,,,,,,,,,,,
293,34,Memory,5,,,,,,,00972960627fa.jpg,,,,,,,,,,,,,,,
294,34,Memory,5,,,,,,,sunadochqcucscehsgk.jpg,,,,,,,,,,,,,,,
295,34,Memory,5,,,,,,,sunacsdhbbsybcyxnel.jpg,,,,,,,,,,,,,,,
296,34,Memory,5,,,,,,,sunaavchcbptaerhcfy.jpg,,,,,,,,,,,,,,,
297,34,Memory,5,,,,,,,sunbvzmgrdvaakxusbu.jpg,,,,,,,,,,,,,,,
298,34,Memory,5,,,,,,,sunbagfpovqwbuexqdn.jpg,,,,,,,,,,,,,,,
299,34,Memory,5,,,,,,,sunaooffzffbhcpirmm.jpg,,,,,,,,,,,,,,,
300,34,Presentation,6,00782941205fa_sunagfvluwixdsozaql.jpg,00793941205fa_sunagtjwilqjvxohypn.jpg,00782941205fa.jpg,sunagfvluwixdsozaql.jpg,00793941205fa.jpg,sunagtjwilqjvxohypn.jpg,,,>,Face,,,,,1,,,,,,,x
301,34,Presentation,6,00263940128fb_sunabjuovqvyfuzvqwt.jpg,00116931230fa_sunaakqepfoeqomfgxf.jpg,00263940128fb.jpg,sunabjuovqvyfuzvqwt.jpg,00116931230fa.jpg,sunaakqepfoeqomfgxf.jpg,,,>,Face,,,,,1,,,,,,,o
302,34,Presentation,6,00816941205fa_sunahmhrncocyhsjpxk.jpg,00092931230fa_sunaaheqzstzxuadglu.jpg,00816941205fa.jpg,sunahmhrncocyhsjpxk.jpg,00092931230fa.jpg,sunaaheqzstzxuadglu.jpg,,,>,Face,,,,,1,,,,,,,o
303,34,Presentation,6,00858940307fa_sunaixpqndlwhwjtjek.jpg,00062931230fb_sunaaelotvjgibjtjhs.jpg,00858940307fa.jpg,sunaixpqndlwhwjtjek.jpg,00062931230fb.jpg,sunaaelotvjgibjtjhs.jpg,,,>,Face,,,,,1,,,,,,,x
304,34,Presentation,6,00741941201fa_sunaemcowdozyphwknd.jpg,00081941031fa_sunaaftlyfudyzuhqzf.jpg,00741941201fa.jpg,sunaemcowdozyphwknd.jpg,00081941031fa.jpg,sunaaftlyfudyzuhqzf.jpg,,,>,Face,,,,,1,,,,,,,x
305,34,Presentation,6,00131931230fb_sunaangbuylfvckqqoo.jpg,00705941205fa_sunadtlxenqqxsyjvix.jpg,00131931230fb.jpg,sunaangbuylfvckqqoo.jpg,00705941205fa.jpg,sunadtlxenqqxsyjvix.jpg,,,>,Face,,,,,1,,,,,,,o
306,34,Presentation,6,00576941031fa_sunacvjlsylseoghjup.jpg,00805941205fa_sunagwzdbtlixdhgolm.jpg,00576941031fa.jpg,sunacvjlsylseoghjup.jpg,00805941205fa.jpg,sunagwzdbtlixdhgolm.jpg,,,>,Face,,,,,1,,,,,,,x
307,34,Presentation,6,00953960627fa_sunatstrpjxhvtbaczf.jpg,00082931230fa_sunaafvitpexrpvumsa.jpg,00953960627fa.jpg,sunatstrpjxhvtbaczf.jpg,00082931230fa.jpg,sunaafvitpexrpvumsa.jpg,,,>,Face,,,,,1,,,,,,,o
308,34,Presentation,6,00950960627fa_sunasrjlmglmjzbmqxb.jpg,00790941205fa_sunagpjzsbltchlwvou.jpg,00950960627fa.jpg,sunasrjlmglmjzbmqxb.jpg,00790941205fa.jpg,sunagpjzsbltchlwvou.jpg,,,>,Face,,,,,1,,,,,,,x
309,34,Presentation,6,00985960627fa_sunbgklxeqjhdbyfhhy.jpg,00633940928fa_sunadbhmrgrrpyzglxs.jpg,00985960627fa.jpg,sunbgklxeqjhdbyfhhy.jpg,00633940928fa.jpg,sunadbhmrgrrpyzglxs.jpg,,,>,Face,,,,,1,,,,,,,x
310,34,Memory,6,,,,,,,00705941205fa.jpg,,,,,,,,,,,,,,,
311,34,Memory,6,,,,,,,sunabohxbskznglnrhv.jpg,,,,,,,,,,,,,,,
312,34,Memory,6,,,,,,,00062931230fb.jpg,,,,,,,,,,,,,,,
313,34,Memory,6,,,,,,,sunaprnrbmgkomdbchr.jpg,,,,,,,,,,,,,,,
314,34,Memory,6,,,,,,,sunabizydfotqddlnjp.jpg,,,,,,,,,,,,,,,
315,34,Memory,6,,,,,,,sunaiwduelojtwaqeyh.jpg,,,,,,,,,,,,,,,
316,34,Memory,6,,,,,,,00636941031fa.jpg,,,,,,,,,,,,,,,
317,34,Memory,6,,,,,,,sunaapxkpvrhpjplsok.jpg,,,,,,,,,,,,,,,
318,34,Memory,6,,,,,,,sunatstrpjxhvtbaczf.jpg,,,,,,,,,,,,,,,
319,34,Memory,6,,,,,,,00116931230fa.jpg,,,,,,,,,,,,,,,
320,34,Memory,6,,,,,,,sunabeyhmxodahoieyk.jpg,,,,,,,,,,,,,,,
321,34,Memory,6,,,,,,,sunaaheqzstzxuadglu.jpg,,,,,,,,,,,,,,,
322,34,Memory,6,,,,,,,sunaakqepfoeqomfgxf.jpg,,,,,,,,,,,,,,,
323,34,Memory,6,,,,,,,00929960627fa.jpg,,,,,,,,,,,,,,,
324,34,Memory,6,,,,,,,00262940128fa.jpg,,,,,,,,,,,,,,,
325,34,Memory,6,,,,,,,00092931230fa.jpg,,,,,,,,,,,,,,,
326,34,Memory,6,,,,,,,00822940307fa.jpg,,,,,,,,,,,,,,,
327,34,Memory,6,,,,,,,00891960530fa.jpg,,,,,,,,,,,,,,,
328,34,Memory,6,,,,,,,sunaaftlyfudyzuhqzf.jpg,,,,,,,,,,,,,,,
329,34,Memory,6,,,,,,,sunahqrxievfeusiqlt.jpg,,,,,,,,,,,,,,,
330,34,Memory,6,,,,,,,00953960627fa.jpg,,,,,,,,,,,,,,,
331,34,Memory,6,,,,,,,00782941205fa.jpg,,,,,,,,,,,,,,,
332,34,Memory,6,,,,,,,00720960620fa.jpg,,,,,,,,,,,,,,,
333,34,Memory,6,,,,,,,00816941205fa.jpg,,,,,,,,,,,,,,,
334,34,Memory,6,,,,,,,sunalkiibhqpxfamlll.jpg,,,,,,,,,,,,,,,
335,34,Memory,6,,,,,,,sunbgklxeqjhdbyfhhy.jpg,,,,,,,,,,,,,,,
336,34,Memory,6,,,,,,,sunaddtdkycxbqlpfqa.jpg,,,,,,,,,,,,,,,
337,34,Memory,6,,,,,,,00854940307fa.jpg,,,,,,,,,,,,,,,
338,34,Memory,6,,,,,,,sunaaelotvjgibjtjhs.jpg,,,,,,,,,,,,,,,
339,34,Memory,6,,,,,,,sunagfvluwixdsozaql.jpg,,,,,,,,,,,,,,,
340,34,Memory,6,,,,,,,00142931230fb.jpg,,,,,,,,,,,,,,,
341,34,Memory,6,,,,,,,sunadtlxenqqxsyjvix.jpg,,,,,,,,,,,,,,,
342,34,Memory,6,,,,,,,00985960627fa.jpg,,,,,,,,,,,,,,,
343,34,Memory,6,,,,,,,sunasrjlmglmjzbmqxb.jpg,,,,,,,,,,,,,,,
344,34,Memory,6,,,,,,,00245940128fa.jpg,,,,,,,,,,,,,,,
345,34,Memory,6,,,,,,,sunaecpkgfewqqreqwe.jpg,,,,,,,,,,,,,,,
346,34,Memory,6,,,,,,,00280940422fb.jpg,,,,,,,,,,,,,,,
347,34,Memory,6,,,,,,,sunahmhrncocyhsjpxk.jpg,,,,,,,,,,,,,,,
348,34,Memory,6,,,,,,,00081941031fa.jpg,,,,,,,,,,,,,,,
349,34,Memory,6,,,,,,,00950960627fa.jpg,,,,,,,,,,,,,,,
350,34,Presentation,7,00063931230fa_sunaaelyvurpntclgau.jpg,00061931230fb_sunaaekxzjzrfgtkwjf.jpg,00063931230fa.jpg,sunaaelyvurpntclgau.jpg,00061931230fb.jpg,sunaaekxzjzrfgtkwjf.jpg,,,>,Place,,,,,1,,,,,,,x
351,34,Presentation,7,00997960627fa_sunbtpilbhhbmhmeuzq.jpg,00111931230fb_sunaakgekhjklxmvulj.jpg,00997960627fa.jpg,sunbtpilbhhbmhmeuzq.jpg,00111931230fb.jpg,sunaakgekhjklxmvulj.jpg,,,>,Place,,,,,1,,,,,,,o
352,34,Presentation,7,00260940128fa_sunabgfhvifeijihhjw.jpg,00915960620fa_sunapileznnbbmrwoei.jpg,00260940128fa.jpg,sunabgfhvifeijihhjw.jpg,00915960620fa.jpg,sunapileznnbbmrwoei.jpg,,,>,Place,,,,,1,,,,,,,o
353,34,Presentation,7,01003960627fb_sunbwdrdvsweerwsdrj.jpg,00119931230fb_sunaakvmbftkrgqhjun.jpg,01003960627fb.jpg,sunbwdrdvsweerwsdrj.jpg,00119931230fb.jpg,sunaakvmbftkrgqhjun.jpg,,,>,Place,,,,,1,,,,,,,x
354,34,Presentation,7,00827940307fa_sunahtfxgsrmkiulnwk.jpg,00878960530fa_sunakgbnzxmfohgehnu.jpg,00827940307fa.jpg,sunahtfxgsrmkiulnwk.jpg,00878960530fa.jpg,sunakgbnzxmfohgehnu.jpg,,,>,Place,,,,,1,,,,,,,o
355,34,Presentation,7,00146960620fb_sunaatpeezlljqaxlhj.jpg,00763941205fa_sunafhmnhsdurlvddpw.jpg,00146960620fb.jpg,sunaatpeezlljqaxlhj.jpg,00763941205fa.jpg,sunafhmnhsdurlvddpw.jpg,,,>,Place,,,,,1,,,,,,,o
356,34,Presentation,7,00876960620fa_sunajwqkfsykceonyig.jpg,00313940422fa_sunabwjvmoaddlyxfjr.jpg,00876960620fa.jpg,sunajwqkfsykceonyig.jpg,00313940422fa.jpg,sunabwjvmoaddlyxfjr.jpg,,,>,Place,,,,,0,,,,,,,o
357,34,Presentation,7,00162931230fb_sunaavjinpnkappuonm.jpg,00792941205fa_sunagsiwrmuixqgdimb.jpg,00162931230fb.jpg,sunaavjinpnkappuonm.jpg,00792941205fa.jpg,sunagsiwrmuixqgdimb.jpg,,,>,Place,,,,,1,,,,,,,x
358,34,Presentation,7,00080931230fb_sunaafjszryxyavjzln.jpg,00885960530fa_sunakwlvxjpddialozd.jpg,00080931230fb.jpg,sunaafjszryxyavjzln.jpg,00885960530fa.jpg,sunakwlvxjpddialozd.jpg,,,>,Place,,,,,0,,,,,,,o
359,34,Presentation,7,00700941121fa_sunadsgmtznewzyasnk.jpg,00775941205fa_sunafvwfsmqkjrutjta.jpg,00700941121fa.jpg,sunadsgmtznewzyasnk.jpg,00775941205fa.jpg,sunafvwfsmqkjrutjta.jpg,,,>,Place,,,,,1,,,,,,,o
360,34,Memory,7,,,,,,,sunadnjjzohjhbohlwq.jpg,,,,,,,,,,,,,,,
361,34,Memory,7,,,,,,,00922960627fa.jpg,,,,,,,,,,,,,,,
362,34,Memory,7,,,,,,,sunahedfrhtcwpneund.jpg,,,,,,,,,,,,,,,
363,34,Memory,7,,,,,,,01003960627fb.jpg,,,,,,,,,,,,,,,
364,34,Memory,7,,,,,,,00162931230fb.jpg,,,,,,,,,,,,,,,
365,34,Memory,7,,,,,,,00915960620fa.jpg,,,,,,,,,,,,,,,
366,34,Memory,7,,,,,,,sunaaekxzjzrfgtkwjf.jpg,,,,,,,,,,,,,,,
367,34,Memory,7,,,,,,,00061931230fb.jpg,,,,,,,,,,,,,,,
368,34,Memory,7,,,,,,,00086931230fa.jpg,,,,,,,,,,,,,,,
369,34,Memory,7,,,,,,,sunakwlvxjpddialozd.jpg,,,,,,,,,,,,,,,
370,34,Memory,7,,,,,,,sunafhmnhsdurlvddpw.jpg,,,,,,,,,,,,,,,
371,34,Memory,7,,,,,,,00080931230fb.jpg,,,,,,,,,,,,,,,
372,34,Memory,7,,,,,,,sunachtuarilwyqnvjx.jpg,,,,,,,,,,,,,,,
373,34,Memory,7,,,,,,,sunbwdrdvsweerwsdrj.jpg,,,,,,,,,,,,,,,
374,34,Memory,7,,,,,,,00925960627fa.jpg,,,,,,,,,,,,,,,
375,34,Memory,7,,,,,,,00811960530fa.jpg,,,,,,,,,,,,,,,
376,34,Memory,7,,,,,,,sunahtfxgsrmkiulnwk.jpg,,,,,,,,,,,,,,,
377,34,Memory,7,,,,,,,sunaatpeezlljqaxlhj.jpg,,,,,,,,,,,,,,,
378,34,Memory,7,,,,,,,sunapqwnqzxlsfvgsjm.jpg,,,,,,,,,,,,,,,
379,34,Memory,7,,,,,,,sunaafynehyrzpsoaml.jpg,,,,,,,,,,,,,,,
380,34,Memory,7,,,,,,,00775941205fa.jpg,,,,,,,,,,,,,,,
381,34,Memory,7,,,,,,,sunapmfmzadmosuogaz.jpg,,,,,,,,,,,,,,,
382,34,Memory,7,,,,,,,sunabclssnoeuigtawp.jpg,,,,,,,,,,,,,,,
383,34,Memory,7,,,,,,,sunapileznnbbmrwoei.jpg,,,,,,,,,,,,,,,
384,34,Memory,7,,,,,,,00827940307fa.jpg,,,,,,,,,,,,,,,
385,34,Memory,7,,,,,,,sunaavjinpnkappuonm.jpg,,,,,,,,,,,,,,,
386,34,Memory,7,,,,,,,sunapwjkcxdaeqehfql.jpg,,,,,,,,,,,,,,,
387,34,Memory,7,,,,,,,sunafvwfsmqkjrutjta.jpg,,,,,,,,,,,,,,,
388,34,Memory,7,,,,,,,00885960530fa.jpg,,,,,,,,,,,,,,,
389,34,Memory,7,,,,,,,00763941205fa.jpg,,,,,,,,,,,,,,,
390,34,Memory,7,,,,,,,00864940307fa.jpg,,,,,,,,,,,,,,,
391,34,Memory,7,,,,,,,00663941121fa.jpg,,,,,,,,,,,,,,,
392,34,Memory,7,,,,,,,00933960627fa.jpg,,,,,,,,,,,,,,,
393,34,Memory,7,,,,,,,sunaafjszryxyavjzln.jpg,,,,,,,,,,,,,,,
394,34,Memory,7,,,,,,,00146960620fb.jpg,,,,,,,,,,,,,,,
395,34,Memory,7,,,,,,,00919960620fa.jpg,,,,,,,,,,,,,,,
396,34,Memory,7,,,,,,,sunajawzbrlrwafowen.jpg,,,,,,,,,,,,,,,
397,34,Memory,7,,,,,,,00235940128fb.jpg,,,,,,,,,,,,,,,
398,34,Memory,7,,,,,,,00557940519fa.jpg,,,,,,,,,,,,,,,
399,34,Memory,7,,,,,,,sunapqkyghktgtosuuk.jpg,,,,,,,,,,,,,,,
