,Subject,Trial Type,Run,Cued Composite,Uncued Composite,Cued Face,Cued Place,Uncued Face,Uncued Place,Memory Image,Category,Cued Side,Cued Category,Attention Reaction Time (s),Familiarity Reaction Time (s),Familiarity Rating,Attention Level,Cue Validity,Post Invalid Cue,Pre Invalid Cue,Attention Button,Rating History,Stimulus Onset,Stimulus End,Attention Probe
160,26,Memory,3,,,,,,,00218940128fa.jpg,,,,,1.37,3.0,,,,,,,1555442860.068736,1555442862.115642,
161,26,Memory,3,,,,,,,00270940422fb.jpg,,,,,1.315,3.0,,,,,,,1555442863.399923,1555442865.366935,
162,26,Memory,3,,,,,,,00864940307fa.jpg,,,,,1.365,2.0,,,,,,,1555442866.700903,1555442868.671166,
163,26,Memory,3,,,,,,,sunafvsxtzaizojicxx.jpg,,,,,0.0,,,,,,,,1555442869.939087,1555442871.902327,
164,26,Memory,3,,,,,,,sunacxtcahkymosigud.jpg,,,,,0.719,2.0,,,,,,,1555442873.173871,1555442875.136632,
165,26,Memory,3,,,,,,,00598941031fa.jpg,,,,,0.683,3.0,,,,,,,1555442876.392468,1555442878.35695,
166,26,Memory,3,,,,,,,00194940128fb.jpg,,,,,0.932,3.0,,,,,,,1555442879.641921,1555442881.606199,
167,26,Memory,3,,,,,,,sunajawzbrlrwafowen.jpg,,,,,0.0,,,,,,,,1555442882.861028,1555442884.822772,
168,26,Memory,3,,,,,,,sunafhmnhsdurlvddpw.jpg,,,,,0.819,3.0,,,,,,,1555442886.078081,1555442888.042502,
169,26,Memory,3,,,,,,,00773960620fa.jpg,,,,,0.732,3.0,,,,,,,1555442889.291808,1555442891.260502,
170,26,Memory,3,,,,,,,sunajtrfunvzdfticna.jpg,,,,,1.603,3.0,,,,,,,1555442892.513776,1555442894.477213,
171,26,Memory,3,,,,,,,sunaedtgwjvvziytspa.jpg,,,,,0.587,2.0,,,,,,,1555442895.730868,1555442897.693572,
172,26,Memory,3,,,,,,,01004960627fa.jpg,,,,,1.315,3.0,,,,,,,1555442898.948558,1555442900.910907,
173,26,Memory,3,,,,,,,sunabbwggenhfbftyvi.jpg,,,,,0.736,2.0,,,,,,,1555442902.179502,1555442904.146306,
174,26,Memory,3,,,,,,,00620940928fa.jpg,,,,,0.665,3.0,,,,,,,1555442905.401067,1555442907.365617,
175,26,Memory,3,,,,,,,sunaayehfdqcyxggsej.jpg,,,,,1.002,3.0,,,,,,,1555442908.631077,1555442910.599195,
176,26,Memory,3,,,,,,,sunbesrwkdsffeogeqq.jpg,,,,,0.0,,,,,,,,1555442911.853774,1555442913.816837,
177,26,Memory,3,,,,,,,00153931230fa.jpg,,,,,0.652,3.0,,,,,,,1555442915.083169,1555442917.050216,
178,26,Memory,3,,,,,,,01207940128fa.jpg,,,,,0.716,3.0,,,,,,,1555442918.301598,1555442920.268077,
179,26,Memory,3,,,,,,,sunabbafjowbzcvbucc.jpg,,,,,0.552,3.0,,,,,,,1555442921.523708,1555442923.487118,
180,26,Memory,3,,,,,,,sunalcrtwiycqobgelp.jpg,,,,,0.765,2.0,,,,,,,1555442924.736694,1555442926.70363,
181,26,Memory,3,,,,,,,00887960530.jpg,,,,,0.586,3.0,,,,,,,1555442927.958497,1555442929.922358,
182,26,Memory,3,,,,,,,sunbwtlihsuptkrckid.jpg,,,,,0.799,3.0,,,,,,,1555442931.425853,1555442933.388958,
183,26,Memory,3,,,,,,,sunaauhozyxzeeqstxi.jpg,,,,,0.766,2.0,,,,,,,1555442934.656194,1555442936.626855,
184,26,Memory,3,,,,,,,00982960627fa.jpg,,,,,0.601,3.0,,,,,,,1555442937.895255,1555442939.857833,
185,26,Memory,3,,,,,,,00791941205fa.jpg,,,,,0.653,3.0,,,,,,,1555442941.111735,1555442943.075913,
186,26,Memory,3,,,,,,,00723941201fa.jpg,,,,,0.715,3.0,,,,,,,1555442944.342609,1555442946.310736,
187,26,Memory,3,,,,,,,00786941205fa.jpg,,,,,1.635,4.0,,,,,,,1555442947.56527,1555442949.526706,
188,26,Memory,3,,,,,,,00874940307fa.jpg,,,,,0.636,3.0,,,,,,,1555442950.778281,1555442952.749066,
189,26,Memory,3,,,,,,,sunabllobxadqcyttej.jpg,,,,,0.765,2.0,,,,,,,1555442953.999834,1555442955.962393,
190,26,Memory,3,,,,,,,sunagmhildamktmqjss.jpg,,,,,0.765,3.0,,,,,,,1555442957.234804,1555442959.196566,
191,26,Memory,3,,,,,,,sundbixjudsgeuuehrn.jpg,,,,,1.184,3.0,,,,,,,1555442960.447658,1555442962.415835,
192,26,Memory,3,,,,,,,sunagrmyoovzukhxmlo.jpg,,,,,0.67,2.0,,,,,,,1555442963.669518,1555442965.65152,
193,26,Memory,3,,,,,,,00763941205fa.jpg,,,,,1.349,4.0,,,,,,,1555442966.917286,1555442968.884066,
194,26,Memory,3,,,,,,,00784941205fb.jpg,,,,,0.866,3.0,,,,,,,1555442970.134221,1555442972.102734,
195,26,Memory,3,,,,,,,00214940128fa.jpg,,,,,0.968,3.0,,,,,,,1555442973.352381,1555442975.318697,
196,26,Memory,3,,,,,,,sunagwzdbtlixdhgolm.jpg,,,,,1.053,2.0,,,,,,,1555442976.574464,1555442978.536389,
197,26,Memory,3,,,,,,,sunacypmnujalygkunp.jpg,,,,,0.749,3.0,,,,,,,1555442979.791683,1555442981.756171,
198,26,Memory,3,,,,,,,00805941205fa.jpg,,,,,0.765,3.0,,,,,,,1555442983.009556,1555442984.971534,
199,26,Memory,3,,,,,,,sunagjzcrjvmxzqzljx.jpg,,,,,0.638,3.0,,,,,,,1555442986.228608,1555442988.194826,
