,Subject,Trial Type,Run,Cued Composite,Uncued Composite,Cued Face,Cued Place,Uncued Face,Uncued Place,Memory Image,Category,Cued Side,Cued Category,Attention Response Time (s),Familiarity Reaction Time (s),Familiarity Rating,Attention Level,Cue Validity,Post Invalid Cue,Pre Invalid Cue,Attention Button,Rating History,Stimulus Onset,Stimulus End,Attention Probe
0,14,Presentation,0,00308940422fb_sunabwfvcqqidycwypa.jpg,00782941205fa_sunagfvluwixdsozaql.jpg,00308940422fb.jpg,sunabwfvcqqidycwypa.jpg,00782941205fa.jpg,sunagfvluwixdsozaql.jpg,,,<,Place,,,,,1,,,,,,,x
1,14,Presentation,0,00227940128fa_sunabckqabszusgcykj.jpg,00065931230fb_sunaaemixhfquhnxxlm.jpg,00227940128fa.jpg,sunabckqabszusgcykj.jpg,00065931230fb.jpg,sunaaemixhfquhnxxlm.jpg,,,<,Place,,,,,1,,,,,,,o
2,14,Presentation,0,00783941205fa_sunagjeesomrwjsfqie.jpg,00892960530fa_sunalntxqqadigcletd.jpg,00783941205fa.jpg,sunagjeesomrwjsfqie.jpg,00892960530fa.jpg,sunalntxqqadigcletd.jpg,,,<,Place,,,,,1,,,,,,,o
3,14,Presentation,0,00260940128fa_sunabgfhvifeijihhjw.jpg,00723941201fa_sunaedtgwjvvziytspa.jpg,00260940128fa.jpg,sunabgfhvifeijihhjw.jpg,00723941201fa.jpg,sunaedtgwjvvziytspa.jpg,,,<,Place,,,,,1,,,,,,,o
4,14,Presentation,0,00877960530fa_sunajxpkuhbizeveguy.jpg,00772941201fa_sunafpfpiiujzoesnqg.jpg,00877960530fa.jpg,sunajxpkuhbizeveguy.jpg,00772941201fa.jpg,sunafpfpiiujzoesnqg.jpg,,,<,Place,,,,,1,,,,,,,o
5,14,Presentation,0,00882960530fa_sunaknlirqjqiwbbeeg.jpg,00787960620fa_sunagoufulkpsxrmklt.jpg,00882960530fa.jpg,sunaknlirqjqiwbbeeg.jpg,00787960620fa.jpg,sunagoufulkpsxrmklt.jpg,,,<,Place,,,,,1,,,,,,,x
6,14,Presentation,0,00801941205fa_sunagvprlbprarvgdvj.jpg,00854940307fa_sunaiwduelojtwaqeyh.jpg,00801941205fa.jpg,sunagvprlbprarvgdvj.jpg,00854940307fa.jpg,sunaiwduelojtwaqeyh.jpg,,,<,Place,,,,,1,,,,,,,x
7,14,Presentation,0,00097931230fa_sunaajayojuslbbnneg.jpg,01002960627fb_sunbwaafjdebjzttuvq.jpg,00097931230fa.jpg,sunaajayojuslbbnneg.jpg,01002960627fb.jpg,sunbwaafjdebjzttuvq.jpg,,,<,Place,,,,,1,,,,,,,x
8,14,Presentation,0,00132931230fb_sunaanjcbzdvtvblsdy.jpg,00265940128fb_sunabkmdplkdbvxriff.jpg,00132931230fb.jpg,sunaanjcbzdvtvblsdy.jpg,00265940128fb.jpg,sunabkmdplkdbvxriff.jpg,,,<,Place,,,,,1,,,,,,,o
9,14,Presentation,0,00636941031fa_sunaddtdkycxbqlpfqa.jpg,00571940928fa_sunacuatpqpqhyjhjqk.jpg,00636941031fa.jpg,sunaddtdkycxbqlpfqa.jpg,00571940928fa.jpg,sunacuatpqpqhyjhjqk.jpg,,,<,Place,,,,,1,,,,,,,x
10,14,Memory,0,,,,,,,01002960627fb.jpg,,,,,,,,,,,,,,,
11,14,Memory,0,,,,,,,sunamczizlzavhzhpay.jpg,,,,,,,,,,,,,,,
12,14,Memory,0,,,,,,,00101931230fb.jpg,,,,,,,,,,,,,,,
13,14,Memory,0,,,,,,,00630940928fa.jpg,,,,,,,,,,,,,,,
14,14,Memory,0,,,,,,,sunaanjcbzdvtvblsdy.jpg,,,,,,,,,,,,,,,
15,14,Memory,0,,,,,,,00120931230fa.jpg,,,,,,,,,,,,,,,
16,14,Memory,0,,,,,,,sunagjeesomrwjsfqie.jpg,,,,,,,,,,,,,,,
17,14,Memory,0,,,,,,,sunagfvluwixdsozaql.jpg,,,,,,,,,,,,,,,
18,14,Memory,0,,,,,,,00864940307fa.jpg,,,,,,,,,,,,,,,
19,14,Memory,0,,,,,,,sunabxmguapjekttvwm.jpg,,,,,,,,,,,,,,,
20,14,Memory,0,,,,,,,00076931230fa.jpg,,,,,,,,,,,,,,,
21,14,Memory,0,,,,,,,00874940307fa.jpg,,,,,,,,,,,,,,,
22,14,Memory,0,,,,,,,sunajxpkuhbizeveguy.jpg,,,,,,,,,,,,,,,
23,14,Memory,0,,,,,,,00895960530fa.jpg,,,,,,,,,,,,,,,
24,14,Memory,0,,,,,,,sunabkmdplkdbvxriff.jpg,,,,,,,,,,,,,,,
25,14,Memory,0,,,,,,,sunaczwgyukesaajxnx.jpg,,,,,,,,,,,,,,,
26,14,Memory,0,,,,,,,sunaakxgygjfqrzpyoz.jpg,,,,,,,,,,,,,,,
27,14,Memory,0,,,,,,,00771941205fa.jpg,,,,,,,,,,,,,,,
28,14,Memory,0,,,,,,,00782941205fa.jpg,,,,,,,,,,,,,,,
29,14,Memory,0,,,,,,,sunagvprlbprarvgdvj.jpg,,,,,,,,,,,,,,,
30,14,Memory,0,,,,,,,sunaakmxzhuceuiryah.jpg,,,,,,,,,,,,,,,
31,14,Memory,0,,,,,,,sunacuatpqpqhyjhjqk.jpg,,,,,,,,,,,,,,,
32,14,Memory,0,,,,,,,sunajawzbrlrwafowen.jpg,,,,,,,,,,,,,,,
33,14,Memory,0,,,,,,,sunaajqmsaavkmgbsth.jpg,,,,,,,,,,,,,,,
34,14,Memory,0,,,,,,,sunajtrfunvzdfticna.jpg,,,,,,,,,,,,,,,
35,14,Memory,0,,,,,,,00723941201fa.jpg,,,,,,,,,,,,,,,
36,14,Memory,0,,,,,,,sunaafewhewbxmjiurz.jpg,,,,,,,,,,,,,,,
37,14,Memory,0,,,,,,,00877960530fa.jpg,,,,,,,,,,,,,,,
38,14,Memory,0,,,,,,,00132931230fb.jpg,,,,,,,,,,,,,,,
39,14,Memory,0,,,,,,,00115931230fa.jpg,,,,,,,,,,,,,,,
40,14,Memory,0,,,,,,,sunbwaafjdebjzttuvq.jpg,,,,,,,,,,,,,,,
41,14,Memory,0,,,,,,,00571940928fa.jpg,,,,,,,,,,,,,,,
42,14,Memory,0,,,,,,,sunaedtgwjvvziytspa.jpg,,,,,,,,,,,,,,,
43,14,Memory,0,,,,,,,00265940128fb.jpg,,,,,,,,,,,,,,,
44,14,Memory,0,,,,,,,00783941205fa.jpg,,,,,,,,,,,,,,,
45,14,Memory,0,,,,,,,sunaajayojuslbbnneg.jpg,,,,,,,,,,,,,,,
46,14,Memory,0,,,,,,,00316940422fa.jpg,,,,,,,,,,,,,,,
47,14,Memory,0,,,,,,,sunafowswglhxcsufpo.jpg,,,,,,,,,,,,,,,
48,14,Memory,0,,,,,,,00801941205fa.jpg,,,,,,,,,,,,,,,
49,14,Memory,0,,,,,,,00097931230fa.jpg,,,,,,,,,,,,,,,
50,14,Presentation,1,00902960530fa_sunanaacmmosxrfwmvl.jpg,00126931230fb_sunaamdjwemxpmmtypi.jpg,00902960530fa.jpg,sunanaacmmosxrfwmvl.jpg,00126931230fb.jpg,sunaamdjwemxpmmtypi.jpg,,,<,Face,,,,,1,,,,,,,o
51,14,Presentation,1,00719960620fa_sunadzuvtmtmgupotmf.jpg,00947960627fa_sunasmmcxdddtmtazwx.jpg,00719960620fa.jpg,sunadzuvtmtmgupotmf.jpg,00947960627fa.jpg,sunasmmcxdddtmtazwx.jpg,,,<,Face,,,,,1,,,,,,,o
52,14,Presentation,1,00092931230fa_sunaaheqzstzxuadglu.jpg,00060931230fa_sunaaehaikpckyjsety.jpg,00092931230fa.jpg,sunaaheqzstzxuadglu.jpg,00060931230fa.jpg,sunaaehaikpckyjsety.jpg,,,<,Face,,,,,0,,,,,,,x
53,14,Presentation,1,00140931230fb_sunaapllqyqlykszopd.jpg,00885960530fa_sunakwlvxjpddialozd.jpg,00140931230fb.jpg,sunaapllqyqlykszopd.jpg,00885960530fa.jpg,sunakwlvxjpddialozd.jpg,,,<,Face,,,,,1,,,,,,,o
54,14,Presentation,1,00929960627fa_sunaprnrbmgkomdbchr.jpg,00819940307fa_sunahqldjibofgsfdgb.jpg,00929960627fa.jpg,sunaprnrbmgkomdbchr.jpg,00819940307fa.jpg,sunahqldjibofgsfdgb.jpg,,,<,Face,,,,,1,,,,,,,o
55,14,Presentation,1,00119931230fb_sunaakvmbftkrgqhjun.jpg,00938960627fa_sunaqyylsngywqzwfmx.jpg,00119931230fb.jpg,sunaakvmbftkrgqhjun.jpg,00938960627fa.jpg,sunaqyylsngywqzwfmx.jpg,,,<,Face,,,,,1,,,,,,,x
56,14,Presentation,1,00989960627fa_sunbondbduabvijnmch.jpg,00825940307fa_sunahrltmuwbiehihpe.jpg,00989960627fa.jpg,sunbondbduabvijnmch.jpg,00825940307fa.jpg,sunahrltmuwbiehihpe.jpg,,,<,Face,,,,,1,,,,,,,o
57,14,Presentation,1,00876960620fa_sunajwqkfsykceonyig.jpg,00554940519fa_sunacfdkbsrughwqwtt.jpg,00876960620fa.jpg,sunajwqkfsykceonyig.jpg,00554940519fa.jpg,sunacfdkbsrughwqwtt.jpg,,,<,Face,,,,,1,,,,,,,x
58,14,Presentation,1,00581940928fa_sunacvzhvcksnwqcqbw.jpg,00811960530fa_sunahedfrhtcwpneund.jpg,00581940928fa.jpg,sunacvzhvcksnwqcqbw.jpg,00811960530fa.jpg,sunahedfrhtcwpneund.jpg,,,<,Face,,,,,1,,,,,,,o
59,14,Presentation,1,00745941205fa_sunaeouogqolxvggaoq.jpg,00789960620fa_sunagpancjmxqfazssf.jpg,00745941205fa.jpg,sunaeouogqolxvggaoq.jpg,00789960620fa.jpg,sunagpancjmxqfazssf.jpg,,,<,Face,,,,,0,,,,,,,x
60,14,Memory,1,,,,,,,00119931230fb.jpg,,,,,,,,,,,,,,,
61,14,Memory,1,,,,,,,00481940519fa.jpg,,,,,,,,,,,,,,,
62,14,Memory,1,,,,,,,00999960627fa.jpg,,,,,,,,,,,,,,,
63,14,Memory,1,,,,,,,00126931230fb.jpg,,,,,,,,,,,,,,,
64,14,Memory,1,,,,,,,00082931230fa.jpg,,,,,,,,,,,,,,,
65,14,Memory,1,,,,,,,00784941205fb.jpg,,,,,,,,,,,,,,,
66,14,Memory,1,,,,,,,00885960530fa.jpg,,,,,,,,,,,,,,,
67,14,Memory,1,,,,,,,00062931230fb.jpg,,,,,,,,,,,,,,,
68,14,Memory,1,,,,,,,sunasrjlmglmjzbmqxb.jpg,,,,,,,,,,,,,,,
69,14,Memory,1,,,,,,,00789960620fa.jpg,,,,,,,,,,,,,,,
70,14,Memory,1,,,,,,,00819940307fa.jpg,,,,,,,,,,,,,,,
71,14,Memory,1,,,,,,,sunanaacmmosxrfwmvl.jpg,,,,,,,,,,,,,,,
72,14,Memory,1,,,,,,,sunaatpeezlljqaxlhj.jpg,,,,,,,,,,,,,,,
73,14,Memory,1,,,,,,,sunahtfxgsrmkiulnwk.jpg,,,,,,,,,,,,,,,
74,14,Memory,1,,,,,,,00950960627fa.jpg,,,,,,,,,,,,,,,
75,14,Memory,1,,,,,,,sunaafvitpexrpvumsa.jpg,,,,,,,,,,,,,,,
76,14,Memory,1,,,,,,,sunbvbrvgbpanfrawft.jpg,,,,,,,,,,,,,,,
77,14,Memory,1,,,,,,,sunahqldjibofgsfdgb.jpg,,,,,,,,,,,,,,,
78,14,Memory,1,,,,,,,sunaakvmbftkrgqhjun.jpg,,,,,,,,,,,,,,,
79,14,Memory,1,,,,,,,sunajwqkfsykceonyig.jpg,,,,,,,,,,,,,,,
80,14,Memory,1,,,,,,,00827940307fa.jpg,,,,,,,,,,,,,,,
81,14,Memory,1,,,,,,,00812941205fa.jpg,,,,,,,,,,,,,,,
82,14,Memory,1,,,,,,,sunasnqkkyhilqkxiqm.jpg,,,,,,,,,,,,,,,
83,14,Memory,1,,,,,,,sunacvzhvcksnwqcqbw.jpg,,,,,,,,,,,,,,,
84,14,Memory,1,,,,,,,00902960530fa.jpg,,,,,,,,,,,,,,,
85,14,Memory,1,,,,,,,sunabxsuqbleluwczoy.jpg,,,,,,,,,,,,,,,
86,14,Memory,1,,,,,,,sunagpancjmxqfazssf.jpg,,,,,,,,,,,,,,,
87,14,Memory,1,,,,,,,00146960620fb.jpg,,,,,,,,,,,,,,,
88,14,Memory,1,,,,,,,00581940928fa.jpg,,,,,,,,,,,,,,,
89,14,Memory,1,,,,,,,sunahrltmuwbiehihpe.jpg,,,,,,,,,,,,,,,
90,14,Memory,1,,,,,,,sunakwlvxjpddialozd.jpg,,,,,,,,,,,,,,,
91,14,Memory,1,,,,,,,00876960620fa.jpg,,,,,,,,,,,,,,,
92,14,Memory,1,,,,,,,sunagjzcrjvmxzqzljx.jpg,,,,,,,,,,,,,,,
93,14,Memory,1,,,,,,,sunaamdjwemxpmmtypi.jpg,,,,,,,,,,,,,,,
94,14,Memory,1,,,,,,,sunaprnrbmgkomdbchr.jpg,,,,,,,,,,,,,,,
95,14,Memory,1,,,,,,,sunahgtbwgsmtqeodwh.jpg,,,,,,,,,,,,,,,
96,14,Memory,1,,,,,,,00825940307fa.jpg,,,,,,,,,,,,,,,
97,14,Memory,1,,,,,,,sunaaelotvjgibjtjhs.jpg,,,,,,,,,,,,,,,
98,14,Memory,1,,,,,,,00949960627fb.jpg,,,,,,,,,,,,,,,
99,14,Memory,1,,,,,,,00929960627fa.jpg,,,,,,,,,,,,,,,
100,14,Presentation,2,00997960627fa_sunbtpilbhhbmhmeuzq.jpg,00112931230fa_sunaakjaacuzulqckgl.jpg,00997960627fa.jpg,sunbtpilbhhbmhmeuzq.jpg,00112931230fa.jpg,sunaakjaacuzulqckgl.jpg,,,<,Place,,,,,1,,,,,,,x
101,14,Presentation,2,00061931230fb_sunaaekxzjzrfgtkwjf.jpg,00149931230fa_sunaauglwmctnkxyird.jpg,00061931230fb.jpg,sunaaekxzjzrfgtkwjf.jpg,00149931230fa.jpg,sunaauglwmctnkxyird.jpg,,,<,Place,,,,,0,,,,,,,o
102,14,Presentation,2,00138931230fa_sunaapfaivxqoynnwwp.jpg,00839940307fa_sunaipyohrqlwngaqif.jpg,00138931230fa.jpg,sunaapfaivxqoynnwwp.jpg,00839940307fa.jpg,sunaipyohrqlwngaqif.jpg,,,<,Place,,,,,1,,,,,,,o
103,14,Presentation,2,00958960627fa_sunavspxmxubqaeidjt.jpg,00914960620fa_sunaozisvwfbmlkfhzv.jpg,00958960627fa.jpg,sunavspxmxubqaeidjt.jpg,00914960620fa.jpg,sunaozisvwfbmlkfhzv.jpg,,,<,Place,,,,,1,,,,,,,o
104,14,Presentation,2,00700941121fa_sunadsgmtznewzyasnk.jpg,00564941031fa_sunacsaovnjezqwbykf.jpg,00700941121fa.jpg,sunadsgmtznewzyasnk.jpg,00564941031fa.jpg,sunacsaovnjezqwbykf.jpg,,,<,Place,,,,,1,,,,,,,x
105,14,Presentation,2,00071941031fa_sunaaexqbtdswxrqjvz.jpg,00483940519fa_sunabyvpwkgsjtijdwj.jpg,00071941031fa.jpg,sunaaexqbtdswxrqjvz.jpg,00483940519fa.jpg,sunabyvpwkgsjtijdwj.jpg,,,<,Place,,,,,1,,,,,,,o
106,14,Presentation,2,00921960627fa_sunapqkpqdfvxlbqwyo.jpg,00129931230fb_sunaamsdyakblkfoydx.jpg,00921960627fa.jpg,sunapqkpqdfvxlbqwyo.jpg,00129931230fb.jpg,sunaamsdyakblkfoydx.jpg,,,<,Place,,,,,1,,,,,,,x
107,14,Presentation,2,00834940307fa_sunaibnpvhkdpdnzcnz.jpg,00773960620fa_sunafvsxtzaizojicxx.jpg,00834940307fa.jpg,sunaibnpvhkdpdnzcnz.jpg,00773960620fa.jpg,sunafvsxtzaizojicxx.jpg,,,<,Place,,,,,1,,,,,,,x
108,14,Presentation,2,00071940128fa_sunaaexpnawiehinlpy.jpg,00961960627fa_sunawotxrevnqvamsfp.jpg,00071940128fa.jpg,sunaaexpnawiehinlpy.jpg,00961960627fa.jpg,sunawotxrevnqvamsfp.jpg,,,<,Place,,,,,1,,,,,,,o
109,14,Presentation,2,00136931230fb_sunaanptmsknhirrzed.jpg,00133931230fa_sunaanlwnpqndclffxt.jpg,00136931230fb.jpg,sunaanptmsknhirrzed.jpg,00133931230fa.jpg,sunaanlwnpqndclffxt.jpg,,,<,Place,,,,,1,,,,,,,x
110,14,Memory,2,,,,,,,00719941201fa.jpg,,,,,,,,,,,,,,,
111,14,Memory,2,,,,,,,00136931230fb.jpg,,,,,,,,,,,,,,,
112,14,Memory,2,,,,,,,00112931230fa.jpg,,,,,,,,,,,,,,,
113,14,Memory,2,,,,,,,sunaemcowdozyphwknd.jpg,,,,,,,,,,,,,,,
114,14,Memory,2,,,,,,,00847940307fa.jpg,,,,,,,,,,,,,,,
115,14,Memory,2,,,,,,,sunadvithllcgmfxsrn.jpg,,,,,,,,,,,,,,,
116,14,Memory,2,,,,,,,00829940307fa.jpg,,,,,,,,,,,,,,,
117,14,Memory,2,,,,,,,sunagetqixeypsysbpn.jpg,,,,,,,,,,,,,,,
118,14,Memory,2,,,,,,,00970960627fa.jpg,,,,,,,,,,,,,,,
119,14,Memory,2,,,,,,,00780960530fa.jpg,,,,,,,,,,,,,,,
120,14,Memory,2,,,,,,,00741941201fa.jpg,,,,,,,,,,,,,,,
121,14,Memory,2,,,,,,,00908960530fa.jpg,,,,,,,,,,,,,,,
122,14,Memory,2,,,,,,,sunaivdjruhkrfywfed.jpg,,,,,,,,,,,,,,,
123,14,Memory,2,,,,,,,sunaibnpvhkdpdnzcnz.jpg,,,,,,,,,,,,,,,
124,14,Memory,2,,,,,,,sunaaexqbtdswxrqjvz.jpg,,,,,,,,,,,,,,,
125,14,Memory,2,,,,,,,sunanmoqeyprjjjfxjt.jpg,,,,,,,,,,,,,,,
126,14,Memory,2,,,,,,,00564941031fa.jpg,,,,,,,,,,,,,,,
127,14,Memory,2,,,,,,,sunathzzbcwjykldrem.jpg,,,,,,,,,,,,,,,
128,14,Memory,2,,,,,,,00961960627fa.jpg,,,,,,,,,,,,,,,
129,14,Memory,2,,,,,,,sunahwgbqkqcrwprgvh.jpg,,,,,,,,,,,,,,,
130,14,Memory,2,,,,,,,sunanwjjyqqwzqrqagd.jpg,,,,,,,,,,,,,,,
131,14,Memory,2,,,,,,,sunawotxrevnqvamsfp.jpg,,,,,,,,,,,,,,,
132,14,Memory,2,,,,,,,00839940307fa.jpg,,,,,,,,,,,,,,,
133,14,Memory,2,,,,,,,sunacsaovnjezqwbykf.jpg,,,,,,,,,,,,,,,
134,14,Memory,2,,,,,,,00857940307fa.jpg,,,,,,,,,,,,,,,
135,14,Memory,2,,,,,,,00952960627fa.jpg,,,,,,,,,,,,,,,
136,14,Memory,2,,,,,,,sunaipyohrqlwngaqif.jpg,,,,,,,,,,,,,,,
137,14,Memory,2,,,,,,,00905960530fa.jpg,,,,,,,,,,,,,,,
138,14,Memory,2,,,,,,,sunbasypfgzjtomktmu.jpg,,,,,,,,,,,,,,,
139,14,Memory,2,,,,,,,sunavspxmxubqaeidjt.jpg,,,,,,,,,,,,,,,
140,14,Memory,2,,,,,,,sunaakjaacuzulqckgl.jpg,,,,,,,,,,,,,,,
141,14,Memory,2,,,,,,,00958960627fa.jpg,,,,,,,,,,,,,,,
142,14,Memory,2,,,,,,,00071940128fa.jpg,,,,,,,,,,,,,,,
143,14,Memory,2,,,,,,,sunaozisvwfbmlkfhzv.jpg,,,,,,,,,,,,,,,
144,14,Memory,2,,,,,,,sunaiwfobocrruqznsv.jpg,,,,,,,,,,,,,,,
145,14,Memory,2,,,,,,,00834940307fa.jpg,,,,,,,,,,,,,,,
146,14,Memory,2,,,,,,,sunaaexpnawiehinlpy.jpg,,,,,,,,,,,,,,,
147,14,Memory,2,,,,,,,sunaanptmsknhirrzed.jpg,,,,,,,,,,,,,,,
148,14,Memory,2,,,,,,,00914960620fa.jpg,,,,,,,,,,,,,,,
149,14,Memory,2,,,,,,,00071941031fa.jpg,,,,,,,,,,,,,,,
150,14,Presentation,3,00919960620fa_sunapmfmzadmosuogaz.jpg,00633940928fa_sunadbhmrgrrpyzglxs.jpg,00919960620fa.jpg,sunapmfmzadmosuogaz.jpg,00633940928fa.jpg,sunadbhmrgrrpyzglxs.jpg,,,<,Face,,,,,1,,,,,,,o
151,14,Presentation,3,00906960530fa_sunantryfbloeaomfta.jpg,00742941201fa_sunaenwuebvlpdmntju.jpg,00906960530fa.jpg,sunantryfbloeaomfta.jpg,00742941201fa.jpg,sunaenwuebvlpdmntju.jpg,,,<,Face,,,,,1,,,,,,,x
152,14,Presentation,3,00779941205fa_sunagdzlvkqtpnfxfcg.jpg,00955960627fb_sunauburywlkjszngcq.jpg,00779941205fa.jpg,sunagdzlvkqtpnfxfcg.jpg,00955960627fb.jpg,sunauburywlkjszngcq.jpg,,,<,Face,,,,,1,,,,,,,o
153,14,Presentation,3,00869940307fa_sunajoveqhiprwqgoco.jpg,00077931230fb_sunaafgqutfaishsxyu.jpg,00869940307fa.jpg,sunajoveqhiprwqgoco.jpg,00077931230fb.jpg,sunaafgqutfaishsxyu.jpg,,,<,Face,,,,,1,,,,,,,x
154,14,Presentation,3,00505960627fa_sunabzuqsrgcsonqlkz.jpg,00145931230fb_sunaatjesvdupctftmn.jpg,00505960627fa.jpg,sunabzuqsrgcsonqlkz.jpg,00145931230fb.jpg,sunaatjesvdupctftmn.jpg,,,<,Face,,,,,1,,,,,,,x
155,14,Presentation,3,00214940128fa_sunabbafjowbzcvbucc.jpg,00096931230fa_sunaaiqiqcggrskoqgy.jpg,00214940128fa.jpg,sunabbafjowbzcvbucc.jpg,00096931230fa.jpg,sunaaiqiqcggrskoqgy.jpg,,,<,Face,,,,,0,,,,,,,x
156,14,Presentation,3,00933960627fa_sunapwjkcxdaeqehfql.jpg,00211940128fa_sunabasphceswhwwqvv.jpg,00933960627fa.jpg,sunapwjkcxdaeqehfql.jpg,00211940128fa.jpg,sunabasphceswhwwqvv.jpg,,,<,Face,,,,,1,,,,,,,x
157,14,Presentation,3,00184940128fa_sunaavtbadenwnzeutj.jpg,00543940519fa_sunacepzfrmtkiqonpy.jpg,00184940128fa.jpg,sunaavtbadenwnzeutj.jpg,00543940519fa.jpg,sunacepzfrmtkiqonpy.jpg,,,<,Face,,,,,0,,,,,,,o
158,14,Presentation,3,00977960627fa_sunbbxkanhzjgbwyxqs.jpg,00931960627fa_sunaptrqvaooxfvktvw.jpg,00977960627fa.jpg,sunbbxkanhzjgbwyxqs.jpg,00931960627fa.jpg,sunaptrqvaooxfvktvw.jpg,,,<,Face,,,,,1,,,,,,,o
159,14,Presentation,3,00063931230fa_sunaaelyvurpntclgau.jpg,01011960627fa_sundahdxwmcdluscvot.jpg,00063931230fa.jpg,sunaaelyvurpntclgau.jpg,01011960627fa.jpg,sundahdxwmcdluscvot.jpg,,,<,Face,,,,,1,,,,,,,x
160,14,Memory,3,,,,,,,sunaefgzwiramypjvtd.jpg,,,,,,,,,,,,,,,
161,14,Memory,3,,,,,,,sunauburywlkjszngcq.jpg,,,,,,,,,,,,,,,
162,14,Memory,3,,,,,,,sunaajtnvzzpsjdzres.jpg,,,,,,,,,,,,,,,
163,14,Memory,3,,,,,,,00891960530fa.jpg,,,,,,,,,,,,,,,
164,14,Memory,3,,,,,,,sunakmnfgklupjijsgf.jpg,,,,,,,,,,,,,,,
165,14,Memory,3,,,,,,,00977960627fa.jpg,,,,,,,,,,,,,,,
166,14,Memory,3,,,,,,,sunbbgtoeuzierkkajt.jpg,,,,,,,,,,,,,,,
167,14,Memory,3,,,,,,,00985960627fa.jpg,,,,,,,,,,,,,,,
168,14,Memory,3,,,,,,,sunabrlndkruqokhury.jpg,,,,,,,,,,,,,,,
169,14,Memory,3,,,,,,,00725941201fa.jpg,,,,,,,,,,,,,,,
170,14,Memory,3,,,,,,,sunapwjkcxdaeqehfql.jpg,,,,,,,,,,,,,,,
171,14,Memory,3,,,,,,,00955960627fb.jpg,,,,,,,,,,,,,,,
172,14,Memory,3,,,,,,,00749941201fa.jpg,,,,,,,,,,,,,,,
173,14,Memory,3,,,,,,,sunaydywdmvlfddbxbk.jpg,,,,,,,,,,,,,,,
174,14,Memory,3,,,,,,,00742941201fa.jpg,,,,,,,,,,,,,,,
175,14,Memory,3,,,,,,,00063931230fa.jpg,,,,,,,,,,,,,,,
176,14,Memory,3,,,,,,,00880960530fa.jpg,,,,,,,,,,,,,,,
177,14,Memory,3,,,,,,,sunalkiibhqpxfamlll.jpg,,,,,,,,,,,,,,,
178,14,Memory,3,,,,,,,sunaavtbadenwnzeutj.jpg,,,,,,,,,,,,,,,
179,14,Memory,3,,,,,,,00965960627fa.jpg,,,,,,,,,,,,,,,
180,14,Memory,3,,,,,,,sunabasphceswhwwqvv.jpg,,,,,,,,,,,,,,,
181,14,Memory,3,,,,,,,00770941201fa.jpg,,,,,,,,,,,,,,,
182,14,Memory,3,,,,,,,00633940928fa.jpg,,,,,,,,,,,,,,,
183,14,Memory,3,,,,,,,sunaaelyvurpntclgau.jpg,,,,,,,,,,,,,,,
184,14,Memory,3,,,,,,,sunbgklxeqjhdbyfhhy.jpg,,,,,,,,,,,,,,,
185,14,Memory,3,,,,,,,sunbbxkanhzjgbwyxqs.jpg,,,,,,,,,,,,,,,
186,14,Memory,3,,,,,,,00096931230fa.jpg,,,,,,,,,,,,,,,
187,14,Memory,3,,,,,,,sunaenwuebvlpdmntju.jpg,,,,,,,,,,,,,,,
188,14,Memory,3,,,,,,,00933960627fa.jpg,,,,,,,,,,,,,,,
189,14,Memory,3,,,,,,,sunajoveqhiprwqgoco.jpg,,,,,,,,,,,,,,,
190,14,Memory,3,,,,,,,00184940128fa.jpg,,,,,,,,,,,,,,,
191,14,Memory,3,,,,,,,sunaeuvjbmdpknaqqaj.jpg,,,,,,,,,,,,,,,
192,14,Memory,3,,,,,,,sunaaiqiqcggrskoqgy.jpg,,,,,,,,,,,,,,,
193,14,Memory,3,,,,,,,00211940128fa.jpg,,,,,,,,,,,,,,,
194,14,Memory,3,,,,,,,sunaflojskatpeqyzqp.jpg,,,,,,,,,,,,,,,
195,14,Memory,3,,,,,,,00973960627fa.jpg,,,,,,,,,,,,,,,
196,14,Memory,3,,,,,,,sunadbhmrgrrpyzglxs.jpg,,,,,,,,,,,,,,,
197,14,Memory,3,,,,,,,00294940422fb.jpg,,,,,,,,,,,,,,,
198,14,Memory,3,,,,,,,00108960530fa.jpg,,,,,,,,,,,,,,,
199,14,Memory,3,,,,,,,00869940307fa.jpg,,,,,,,,,,,,,,,
200,14,Presentation,4,00803941205fa_sunagvxkjokqimstxpe.jpg,00093931230fa_sunaahwnmtqsrhocysw.jpg,00803941205fa.jpg,sunagvxkjokqimstxpe.jpg,00093931230fa.jpg,sunaahwnmtqsrhocysw.jpg,,,>,Place,,,,,1,,,,,,,o
201,14,Presentation,4,00893960530Fa_sunaloffvbvysigxent.jpg,00153931230fa_sunaauhozyxzeeqstxi.jpg,00893960530Fa.jpg,sunaloffvbvysigxent.jpg,00153931230fa.jpg,sunaauhozyxzeeqstxi.jpg,,,>,Place,,,,,1,,,,,,,x
202,14,Presentation,4,00290940422fa_sunabqowuarvqqcnipn.jpg,00797960620fa_sunagufzbeteqdjxais.jpg,00290940422fa.jpg,sunabqowuarvqqcnipn.jpg,00797960620fa.jpg,sunagufzbeteqdjxais.jpg,,,>,Place,,,,,1,,,,,,,o
203,14,Presentation,4,00868960307fa_sunajjxttslobudoqbv.jpg,00630941031fa_sunadakkdovnuzlycvp.jpg,00868960307fa.jpg,sunajjxttslobudoqbv.jpg,00630941031fa.jpg,sunadakkdovnuzlycvp.jpg,,,>,Place,,,,,1,,,,,,,x
204,14,Presentation,4,00631940928fa_sunadbdqzigzwipuipr.jpg,00944960627fa_sunasbbntuiheekqyaq.jpg,00631940928fa.jpg,sunadbdqzigzwipuipr.jpg,00944960627fa.jpg,sunasbbntuiheekqyaq.jpg,,,>,Place,,,,,1,,,,,,,o
205,14,Presentation,4,00676941121fa_sunadpnqovzckyikrjo.jpg,00124931230fa_sunaalhlvzmjmitybdn.jpg,00676941121fa.jpg,sunadpnqovzckyikrjo.jpg,00124931230fa.jpg,sunaalhlvzmjmitybdn.jpg,,,>,Place,,,,,1,,,,,,,x
206,14,Presentation,4,00568940928fa_sunacsdhbbsybcyxnel.jpg,00976960627fa_sunbbhqyyzmsxhsbjmp.jpg,00568940928fa.jpg,sunacsdhbbsybcyxnel.jpg,00976960627fa.jpg,sunbbhqyyzmsxhsbjmp.jpg,,,>,Place,,,,,0,,,,,,,o
207,14,Presentation,4,00276940422fa_sunabmytpyhsgigllxu.jpg,00507940519fa_sunacacflqoyxhsqzhe.jpg,00276940422fa.jpg,sunabmytpyhsgigllxu.jpg,00507940519fa.jpg,sunacacflqoyxhsqzhe.jpg,,,>,Place,,,,,0,,,,,,,x
208,14,Presentation,4,00598940928fa_sunacxeheuiigkcgquf.jpg,00163931230fb_sunaavodbcpygkggnfp.jpg,00598940928fa.jpg,sunacxeheuiigkcgquf.jpg,00163931230fb.jpg,sunaavodbcpygkggnfp.jpg,,,>,Place,,,,,1,,,,,,,o
209,14,Presentation,4,00267940128fb_sunablfqiwfqomjarht.jpg,00131931230fb_sunaangbuylfvckqqoo.jpg,00267940128fb.jpg,sunablfqiwfqomjarht.jpg,00131931230fb.jpg,sunaangbuylfvckqqoo.jpg,,,>,Place,,,,,1,,,,,,,o
210,14,Memory,4,,,,,,,00089931230fa.jpg,,,,,,,,,,,,,,,
211,14,Memory,4,,,,,,,sunaivdylrawbmhryfp.jpg,,,,,,,,,,,,,,,
212,14,Memory,4,,,,,,,sunabqowuarvqqcnipn.jpg,,,,,,,,,,,,,,,
213,14,Memory,4,,,,,,,00144931230fb.jpg,,,,,,,,,,,,,,,
214,14,Memory,4,,,,,,,sunafgzgbisbopcyslr.jpg,,,,,,,,,,,,,,,
215,14,Memory,4,,,,,,,sunagufzbeteqdjxais.jpg,,,,,,,,,,,,,,,
216,14,Memory,4,,,,,,,sunaahwnmtqsrhocysw.jpg,,,,,,,,,,,,,,,
217,14,Memory,4,,,,,,,00868960307fa.jpg,,,,,,,,,,,,,,,
218,14,Memory,4,,,,,,,00568940928fa.jpg,,,,,,,,,,,,,,,
219,14,Memory,4,,,,,,,sunaavodbcpygkggnfp.jpg,,,,,,,,,,,,,,,
220,14,Memory,4,,,,,,,00124931230fa.jpg,,,,,,,,,,,,,,,
221,14,Memory,4,,,,,,,sunaloffvbvysigxent.jpg,,,,,,,,,,,,,,,
222,14,Memory,4,,,,,,,sunaalhlvzmjmitybdn.jpg,,,,,,,,,,,,,,,
223,14,Memory,4,,,,,,,00290940422fa.jpg,,,,,,,,,,,,,,,
224,14,Memory,4,,,,,,,00163931230fb.jpg,,,,,,,,,,,,,,,
225,14,Memory,4,,,,,,,00116931230fa.jpg,,,,,,,,,,,,,,,
226,14,Memory,4,,,,,,,sunaathajvxrgptwhoj.jpg,,,,,,,,,,,,,,,
227,14,Memory,4,,,,,,,sunahqrxievfeusiqlt.jpg,,,,,,,,,,,,,,,
228,14,Memory,4,,,,,,,sunaauhozyxzeeqstxi.jpg,,,,,,,,,,,,,,,
229,14,Memory,4,,,,,,,00762941201fa.jpg,,,,,,,,,,,,,,,
230,14,Memory,4,,,,,,,00893960530Fa.jpg,,,,,,,,,,,,,,,
231,14,Memory,4,,,,,,,sunacsdhbbsybcyxnel.jpg,,,,,,,,,,,,,,,
232,14,Memory,4,,,,,,,sunbpvgllfdejxcpjqp.jpg,,,,,,,,,,,,,,,
233,14,Memory,4,,,,,,,00676941121fa.jpg,,,,,,,,,,,,,,,
234,14,Memory,4,,,,,,,sunaakqepfoeqomfgxf.jpg,,,,,,,,,,,,,,,
235,14,Memory,4,,,,,,,00797960620fa.jpg,,,,,,,,,,,,,,,
236,14,Memory,4,,,,,,,sunaagcpoejbuzyvddd.jpg,,,,,,,,,,,,,,,
237,14,Memory,4,,,,,,,00194940128fb.jpg,,,,,,,,,,,,,,,
238,14,Memory,4,,,,,,,sunajjxttslobudoqbv.jpg,,,,,,,,,,,,,,,
239,14,Memory,4,,,,,,,00153931230fa.jpg,,,,,,,,,,,,,,,
240,14,Memory,4,,,,,,,sunaglqunwuycxydmyu.jpg,,,,,,,,,,,,,,,
241,14,Memory,4,,,,,,,00795941205fa.jpg,,,,,,,,,,,,,,,
242,14,Memory,4,,,,,,,sunagtumacdlmciqamz.jpg,,,,,,,,,,,,,,,
243,14,Memory,4,,,,,,,00822940307fa.jpg,,,,,,,,,,,,,,,
244,14,Memory,4,,,,,,,00785941205fa.jpg,,,,,,,,,,,,,,,
245,14,Memory,4,,,,,,,00848940307fa.jpg,,,,,,,,,,,,,,,
246,14,Memory,4,,,,,,,sunadpnqovzckyikrjo.jpg,,,,,,,,,,,,,,,
247,14,Memory,4,,,,,,,00093931230fa.jpg,,,,,,,,,,,,,,,
248,14,Memory,4,,,,,,,00996960627fa.jpg,,,,,,,,,,,,,,,
249,14,Memory,4,,,,,,,sunaayehfdqcyxggsej.jpg,,,,,,,,,,,,,,,
250,14,Presentation,5,00479940519fa_sunabxsbfwjccqxxzxq.jpg,00663941121fa_sunadnjjzohjhbohlwq.jpg,00479940519fa.jpg,sunabxsbfwjccqxxzxq.jpg,00663941121fa.jpg,sunadnjjzohjhbohlwq.jpg,,,>,Face,,,,,1,,,,,,,o
251,14,Presentation,5,00800941205fb_sunagvjurcwdbixvnyi.jpg,00835940307fa_sunaijsqpvodplbwxkf.jpg,00800941205fb.jpg,sunagvjurcwdbixvnyi.jpg,00835940307fa.jpg,sunaijsqpvodplbwxkf.jpg,,,>,Face,,,,,0,,,,,,,x
252,14,Presentation,5,00305940422fa_sunabtrnbvpppgczjim.jpg,00314940422fa_sunabwmcbaxwioksdgw.jpg,00305940422fa.jpg,sunabtrnbvpppgczjim.jpg,00314940422fa.jpg,sunabwmcbaxwioksdgw.jpg,,,>,Face,,,,,1,,,,,,,x
253,14,Presentation,5,01009960627fa_sunbxzweleltykebgan.jpg,01004960627fa_sunbwtlihsuptkrckid.jpg,01009960627fa.jpg,sunbxzweleltykebgan.jpg,01004960627fa.jpg,sunbwtlihsuptkrckid.jpg,,,>,Face,,,,,1,,,,,,,o
254,14,Presentation,5,00292940422fb_sunabrjdpmoedcdjbpo.jpg,00532960627fa_sunaccdtpgenvcbcbcf.jpg,00292940422fb.jpg,sunabrjdpmoedcdjbpo.jpg,00532960627fa.jpg,sunaccdtpgenvcbcbcf.jpg,,,>,Face,,,,,1,,,,,,,x
255,14,Presentation,5,00971960627fa_sunbbegcweqnetpdlrh.jpg,00967960627fa_sunbaejotfklekvpxcz.jpg,00971960627fa.jpg,sunbbegcweqnetpdlrh.jpg,00967960627fa.jpg,sunbaejotfklekvpxcz.jpg,,,>,Face,,,,,1,,,,,,,x
256,14,Presentation,5,00296940422fa_sunabrwnslxalcohfre.jpg,00871940307_sunajrujcsdxmfbssmc.jpg,00296940422fa.jpg,sunabrwnslxalcohfre.jpg,00871940307.jpg,sunajrujcsdxmfbssmc.jpg,,,>,Face,,,,,1,,,,,,,x
257,14,Presentation,5,00069931230fb_sunaaeowapdkwzqpgqr.jpg,00815941205fa_sunahiphsekjihkafsl.jpg,00069931230fb.jpg,sunaaeowapdkwzqpgqr.jpg,00815941205fa.jpg,sunahiphsekjihkafsl.jpg,,,>,Face,,,,,1,,,,,,,o
258,14,Presentation,5,00280940422fb_sunabohxbskznglnrhv.jpg,00903960620fa_sunanainkqdvktzoxyl.jpg,00280940422fb.jpg,sunabohxbskznglnrhv.jpg,00903960620fa.jpg,sunanainkqdvktzoxyl.jpg,,,>,Face,,,,,1,,,,,,,o
259,14,Presentation,5,00198940128fb_sunaazezcsunmhttzxz.jpg,00983960627fa_sunbfyvfqiimvdaxlqn.jpg,00198940128fb.jpg,sunaazezcsunmhttzxz.jpg,00983960627fa.jpg,sunbfyvfqiimvdaxlqn.jpg,,,>,Face,,,,,1,,,,,,,o
260,14,Memory,5,,,,,,,00305940422fa.jpg,,,,,,,,,,,,,,,
261,14,Memory,5,,,,,,,sunadqmjrhfjyuzyvdd.jpg,,,,,,,,,,,,,,,
262,14,Memory,5,,,,,,,sunaaylzyqlqrsmfwif.jpg,,,,,,,,,,,,,,,
263,14,Memory,5,,,,,,,00197940128fa.jpg,,,,,,,,,,,,,,,
264,14,Memory,5,,,,,,,00730960620fa.jpg,,,,,,,,,,,,,,,
265,14,Memory,5,,,,,,,sunbaejotfklekvpxcz.jpg,,,,,,,,,,,,,,,
266,14,Memory,5,,,,,,,00663941121fa.jpg,,,,,,,,,,,,,,,
267,14,Memory,5,,,,,,,sunaavjinpnkappuonm.jpg,,,,,,,,,,,,,,,
268,14,Memory,5,,,,,,,00634940928fa.jpg,,,,,,,,,,,,,,,
269,14,Memory,5,,,,,,,00292940422fb.jpg,,,,,,,,,,,,,,,
270,14,Memory,5,,,,,,,sunabohxbskznglnrhv.jpg,,,,,,,,,,,,,,,
271,14,Memory,5,,,,,,,sunbxzweleltykebgan.jpg,,,,,,,,,,,,,,,
272,14,Memory,5,,,,,,,sunaooaqzputrowwbsw.jpg,,,,,,,,,,,,,,,
273,14,Memory,5,,,,,,,00681941121fa.jpg,,,,,,,,,,,,,,,
274,14,Memory,5,,,,,,,sunabwmcbaxwioksdgw.jpg,,,,,,,,,,,,,,,
275,14,Memory,5,,,,,,,00314940422fa.jpg,,,,,,,,,,,,,,,
276,14,Memory,5,,,,,,,sunabanoxjtqxamkucc.jpg,,,,,,,,,,,,,,,
277,14,Memory,5,,,,,,,00960960627fa.jpg,,,,,,,,,,,,,,,
278,14,Memory,5,,,,,,,00162931230fb.jpg,,,,,,,,,,,,,,,
279,14,Memory,5,,,,,,,00835940307fa.jpg,,,,,,,,,,,,,,,
280,14,Memory,5,,,,,,,00210940128fb.jpg,,,,,,,,,,,,,,,
281,14,Memory,5,,,,,,,sunawksfbacycuhbrsc.jpg,,,,,,,,,,,,,,,
282,14,Memory,5,,,,,,,sunabrwnslxalcohfre.jpg,,,,,,,,,,,,,,,
283,14,Memory,5,,,,,,,00967960627fa.jpg,,,,,,,,,,,,,,,
284,14,Memory,5,,,,,,,sunaijsqpvodplbwxkf.jpg,,,,,,,,,,,,,,,
285,14,Memory,5,,,,,,,sunadcphrizvfpljiqt.jpg,,,,,,,,,,,,,,,
286,14,Memory,5,,,,,,,sunaeutbrtswvsozxyk.jpg,,,,,,,,,,,,,,,
287,14,Memory,5,,,,,,,01009960627fa.jpg,,,,,,,,,,,,,,,
288,14,Memory,5,,,,,,,00747941201fa.jpg,,,,,,,,,,,,,,,
289,14,Memory,5,,,,,,,00911960530fa.jpg,,,,,,,,,,,,,,,
290,14,Memory,5,,,,,,,sunadnjjzohjhbohlwq.jpg,,,,,,,,,,,,,,,
291,14,Memory,5,,,,,,,00280940422fb.jpg,,,,,,,,,,,,,,,
292,14,Memory,5,,,,,,,sunbwyuesflwdpqtgoy.jpg,,,,,,,,,,,,,,,
293,14,Memory,5,,,,,,,sunabrjdpmoedcdjbpo.jpg,,,,,,,,,,,,,,,
294,14,Memory,5,,,,,,,00296940422fa.jpg,,,,,,,,,,,,,,,
295,14,Memory,5,,,,,,,sunaekgzpfilgjxpeyq.jpg,,,,,,,,,,,,,,,
296,14,Memory,5,,,,,,,00983960627fa.jpg,,,,,,,,,,,,,,,
297,14,Memory,5,,,,,,,sunabtrnbvpppgczjim.jpg,,,,,,,,,,,,,,,
298,14,Memory,5,,,,,,,sunbfyvfqiimvdaxlqn.jpg,,,,,,,,,,,,,,,
299,14,Memory,5,,,,,,,01005960627fa.jpg,,,,,,,,,,,,,,,
300,14,Presentation,6,00158931230fb_sunaavchcbptaerhcfy.jpg,00125931230fa_sunaalltyvjhbzhkmvg.jpg,00158931230fb.jpg,sunaavchcbptaerhcfy.jpg,00125931230fa.jpg,sunaalltyvjhbzhkmvg.jpg,,,>,Place,,,,,1,,,,,,,o
301,14,Presentation,6,00866940307fa_sunajbwkywmsqkldfml.jpg,00090931230fa_sunaahedjlmtqekgyvj.jpg,00866940307fa.jpg,sunajbwkywmsqkldfml.jpg,00090931230fa.jpg,sunaahedjlmtqekgyvj.jpg,,,>,Place,,,,,1,,,,,,,x
302,14,Presentation,6,00313940422fa_sunabwjvmoaddlyxfjr.jpg,00185940422fb_sunaawqdbpihmlbwyyn.jpg,00313940422fa.jpg,sunabwjvmoaddlyxfjr.jpg,00185940422fb.jpg,sunaawqdbpihmlbwyyn.jpg,,,>,Place,,,,,1,,,,,,,x
303,14,Presentation,6,00263940128fb_sunabjuovqvyfuzvqwt.jpg,00791941205fa_sunagrmyoovzukhxmlo.jpg,00263940128fb.jpg,sunabjuovqvyfuzvqwt.jpg,00791941205fa.jpg,sunagrmyoovzukhxmlo.jpg,,,>,Place,,,,,1,,,,,,,o
304,14,Presentation,6,00562941031fa_sunacjnahdmqfnjfwqx.jpg,00993960627fa_sunbprywzqxjcezkbch.jpg,00562941031fa.jpg,sunacjnahdmqfnjfwqx.jpg,00993960627fa.jpg,sunbprywzqxjcezkbch.jpg,,,>,Place,,,,,1,,,,,,,o
305,14,Presentation,6,01000960627fa_sunbvzmgrdvaakxusbu.jpg,00796941205fa_sunaguchqqnrtodtezq.jpg,01000960627fa.jpg,sunbvzmgrdvaakxusbu.jpg,00796941205fa.jpg,sunaguchqqnrtodtezq.jpg,,,>,Place,,,,,1,,,,,,,x
306,14,Presentation,6,00775941205fa_sunafvwfsmqkjrutjta.jpg,00982960627fa_sunbesrwkdsffeogeqq.jpg,00775941205fa.jpg,sunafvwfsmqkjrutjta.jpg,00982960627fa.jpg,sunbesrwkdsffeogeqq.jpg,,,>,Place,,,,,1,,,,,,,o
307,14,Presentation,6,00910960530fa_sunaofikylqtxphvdem.jpg,00851940307fa_sunaivflshbyfrfzhqb.jpg,00910960530fa.jpg,sunaofikylqtxphvdem.jpg,00851940307fa.jpg,sunaivflshbyfrfzhqb.jpg,,,>,Place,,,,,1,,,,,,,o
308,14,Presentation,6,00262940128fa_sunabizydfotqddlnjp.jpg,00208940128fa_sunaazzyhbvqjpmazjq.jpg,00262940128fa.jpg,sunabizydfotqddlnjp.jpg,00208940128fa.jpg,sunaazzyhbvqjpmazjq.jpg,,,>,Place,,,,,1,,,,,,,x
309,14,Presentation,6,00859940307fa_sunaiycurtqsfkvcaso.jpg,00662941121fa_sunadkazmlajmohnwfl.jpg,00859940307fa.jpg,sunaiycurtqsfkvcaso.jpg,00662941121fa.jpg,sunadkazmlajmohnwfl.jpg,,,>,Place,,,,,1,,,,,,,o
310,14,Memory,6,,,,,,,00313940422fa.jpg,,,,,,,,,,,,,,,
311,14,Memory,6,,,,,,,00529940519fa.jpg,,,,,,,,,,,,,,,
312,14,Memory,6,,,,,,,sunacwggadqsfpovdjv.jpg,,,,,,,,,,,,,,,
313,14,Memory,6,,,,,,,sunaahedjlmtqekgyvj.jpg,,,,,,,,,,,,,,,
314,14,Memory,6,,,,,,,sunaeuzwggvibufclwf.jpg,,,,,,,,,,,,,,,
315,14,Memory,6,,,,,,,sunaiycurtqsfkvcaso.jpg,,,,,,,,,,,,,,,
316,14,Memory,6,,,,,,,sunacbeefkxpymwevpk.jpg,,,,,,,,,,,,,,,
317,14,Memory,6,,,,,,,00562941031fa.jpg,,,,,,,,,,,,,,,
318,14,Memory,6,,,,,,,00158931230fb.jpg,,,,,,,,,,,,,,,
319,14,Memory,6,,,,,,,sunacdnquypmsshhsbk.jpg,,,,,,,,,,,,,,,
320,14,Memory,6,,,,,,,00870940307fa.jpg,,,,,,,,,,,,,,,
321,14,Memory,6,,,,,,,00851940307fa.jpg,,,,,,,,,,,,,,,
322,14,Memory,6,,,,,,,00866940307fa.jpg,,,,,,,,,,,,,,,
323,14,Memory,6,,,,,,,sunacjnahdmqfnjfwqx.jpg,,,,,,,,,,,,,,,
324,14,Memory,6,,,,,,,sunaawqdbpihmlbwyyn.jpg,,,,,,,,,,,,,,,
325,14,Memory,6,,,,,,,00750941201fa.jpg,,,,,,,,,,,,,,,
326,14,Memory,6,,,,,,,sunacerqowiaeoqkmsq.jpg,,,,,,,,,,,,,,,
327,14,Memory,6,,,,,,,sunajbwkywmsqkldfml.jpg,,,,,,,,,,,,,,,
328,14,Memory,6,,,,,,,sunagrmyoovzukhxmlo.jpg,,,,,,,,,,,,,,,
329,14,Memory,6,,,,,,,sunabwjvmoaddlyxfjr.jpg,,,,,,,,,,,,,,,
330,14,Memory,6,,,,,,,00548940519fa.jpg,,,,,,,,,,,,,,,
331,14,Memory,6,,,,,,,00090931230fa.jpg,,,,,,,,,,,,,,,
332,14,Memory,6,,,,,,,sunaalcrrdbjgdztbiz.jpg,,,,,,,,,,,,,,,
333,14,Memory,6,,,,,,,sunaivflshbyfrfzhqb.jpg,,,,,,,,,,,,,,,
334,14,Memory,6,,,,,,,00792941205fa.jpg,,,,,,,,,,,,,,,
335,14,Memory,6,,,,,,,sunaavchcbptaerhcfy.jpg,,,,,,,,,,,,,,,
336,14,Memory,6,,,,,,,00791941205fa.jpg,,,,,,,,,,,,,,,
337,14,Memory,6,,,,,,,00208940128fa.jpg,,,,,,,,,,,,,,,
338,14,Memory,6,,,,,,,sunajrgtewnualfcerj.jpg,,,,,,,,,,,,,,,
339,14,Memory,6,,,,,,,00986960627fa.jpg,,,,,,,,,,,,,,,
340,14,Memory,6,,,,,,,sunagsiwrmuixqgdimb.jpg,,,,,,,,,,,,,,,
341,14,Memory,6,,,,,,,sunbgzjryivyczuvkvm.jpg,,,,,,,,,,,,,,,
342,14,Memory,6,,,,,,,00185940422fb.jpg,,,,,,,,,,,,,,,
343,14,Memory,6,,,,,,,00540940519fa.jpg,,,,,,,,,,,,,,,
344,14,Memory,6,,,,,,,00589940928fa.jpg,,,,,,,,,,,,,,,
345,14,Memory,6,,,,,,,00859940307fa.jpg,,,,,,,,,,,,,,,
346,14,Memory,6,,,,,,,sunabctlikybqabezjv.jpg,,,,,,,,,,,,,,,
347,14,Memory,6,,,,,,,00239940128fa.jpg,,,,,,,,,,,,,,,
348,14,Memory,6,,,,,,,sunaazzyhbvqjpmazjq.jpg,,,,,,,,,,,,,,,
349,14,Memory,6,,,,,,,00123931230fb.jpg,,,,,,,,,,,,,,,
350,14,Presentation,7,00858940307fa_sunaixpqndlwhwjtjek.jpg,00768941205fa_sunafkmnlytenlsywia.jpg,00858940307fa.jpg,sunaixpqndlwhwjtjek.jpg,00768941205fa.jpg,sunafkmnlytenlsywia.jpg,,,>,Face,,,,,1,,,,,,,o
351,14,Presentation,7,00915960620fa_sunapileznnbbmrwoei.jpg,00218940128fa_sunabbwggenhfbftyvi.jpg,00915960620fa.jpg,sunapileznnbbmrwoei.jpg,00218940128fa.jpg,sunabbwggenhfbftyvi.jpg,,,>,Face,,,,,1,,,,,,,o
352,14,Presentation,7,00752960620fa_sunafbwnojpqeyzssoe.jpg,00972960627fa_sunbbfqwjpdxniyhies.jpg,00752960620fa.jpg,sunafbwnojpqeyzssoe.jpg,00972960627fa.jpg,sunbbfqwjpdxniyhies.jpg,,,>,Face,,,,,1,,,,,,,x
353,14,Presentation,7,00978960627fa_sunbddbivbptlrlauhy.jpg,00809960620fa_sunahbvlpavurqoxdeq.jpg,00978960627fa.jpg,sunbddbivbptlrlauhy.jpg,00809960620fa.jpg,sunahbvlpavurqoxdeq.jpg,,,>,Face,,,,,1,,,,,,,o
354,14,Presentation,7,00086931230fa_sunaafynehyrzpsoaml.jpg,00793941205fa_sunagtjwilqjvxohypn.jpg,00086931230fa.jpg,sunaafynehyrzpsoaml.jpg,00793941205fa.jpg,sunagtjwilqjvxohypn.jpg,,,>,Face,,,,,1,,,,,,,x
355,14,Presentation,7,00193940928fa_sunaaxjpzcnxligjtjq.jpg,00943960627fa_sunarpsxqkduedrrzyi.jpg,00193940928fa.jpg,sunaaxjpzcnxligjtjq.jpg,00943960627fa.jpg,sunarpsxqkduedrrzyi.jpg,,,>,Face,,,,,1,,,,,,,x
356,14,Presentation,7,00777941205fa_sunagcinxkccdtrjmlv.jpg,00794960620fa_sunagtqhhwxjeuxdebe.jpg,00777941205fa.jpg,sunagcinxkccdtrjmlv.jpg,00794960620fa.jpg,sunagtqhhwxjeuxdebe.jpg,,,>,Face,,,,,1,,,,,,,x
357,14,Presentation,7,01003960627fb_sunbwdrdvsweerwsdrj.jpg,00894960620fa_sunalqmfgeadpqsyzpd.jpg,01003960627fb.jpg,sunbwdrdvsweerwsdrj.jpg,00894960620fa.jpg,sunalqmfgeadpqsyzpd.jpg,,,>,Face,,,,,1,,,,,,,x
358,14,Presentation,7,00816941205fa_sunahmhrncocyhsjpxk.jpg,00564940928fa_sunacmpqqfbsvlzinzl.jpg,00816941205fa.jpg,sunahmhrncocyhsjpxk.jpg,00564940928fa.jpg,sunacmpqqfbsvlzinzl.jpg,,,>,Face,,,,,1,,,,,,,x
359,14,Presentation,7,00650941031fa_sunadikxpvqeabxrvvc.jpg,00720960620fa_sunaecpkgfewqqreqwe.jpg,00650941031fa.jpg,sunadikxpvqeabxrvvc.jpg,00720960620fa.jpg,sunaecpkgfewqqreqwe.jpg,,,>,Face,,,,,1,,,,,,,x
360,14,Memory,7,,,,,,,00878960530fa.jpg,,,,,,,,,,,,,,,
361,14,Memory,7,,,,,,,sunabbwggenhfbftyvi.jpg,,,,,,,,,,,,,,,
362,14,Memory,7,,,,,,,00752960620fa.jpg,,,,,,,,,,,,,,,
363,14,Memory,7,,,,,,,sunavhxgmgrqsaptynb.jpg,,,,,,,,,,,,,,,
364,14,Memory,7,,,,,,,sunadflbrkckmepztql.jpg,,,,,,,,,,,,,,,
365,14,Memory,7,,,,,,,sunaafynehyrzpsoaml.jpg,,,,,,,,,,,,,,,
366,14,Memory,7,,,,,,,00810941205fa.jpg,,,,,,,,,,,,,,,
367,14,Memory,7,,,,,,,00218940128fa.jpg,,,,,,,,,,,,,,,
368,14,Memory,7,,,,,,,sunagcinxkccdtrjmlv.jpg,,,,,,,,,,,,,,,
369,14,Memory,7,,,,,,,00754941201fa.jpg,,,,,,,,,,,,,,,
370,14,Memory,7,,,,,,,00728941205fa.jpg,,,,,,,,,,,,,,,
371,14,Memory,7,,,,,,,sunahctntqrunhdxhtb.jpg,,,,,,,,,,,,,,,
372,14,Memory,7,,,,,,,00720960620fa.jpg,,,,,,,,,,,,,,,
373,14,Memory,7,,,,,,,00793941205fa.jpg,,,,,,,,,,,,,,,
374,14,Memory,7,,,,,,,00777941205fa.jpg,,,,,,,,,,,,,,,
375,14,Memory,7,,,,,,,sunacxtcahkymosigud.jpg,,,,,,,,,,,,,,,
376,14,Memory,7,,,,,,,00598941031fa.jpg,,,,,,,,,,,,,,,
377,14,Memory,7,,,,,,,00987960627fa.jpg,,,,,,,,,,,,,,,
378,14,Memory,7,,,,,,,sunaecpkgfewqqreqwe.jpg,,,,,,,,,,,,,,,
379,14,Memory,7,,,,,,,sunbddbivbptlrlauhy.jpg,,,,,,,,,,,,,,,
380,14,Memory,7,,,,,,,00086931230fa.jpg,,,,,,,,,,,,,,,
381,14,Memory,7,,,,,,,00978960627fa.jpg,,,,,,,,,,,,,,,
382,14,Memory,7,,,,,,,sunaizeyhvjzknwjudw.jpg,,,,,,,,,,,,,,,
383,14,Memory,7,,,,,,,00768941205fa.jpg,,,,,,,,,,,,,,,
384,14,Memory,7,,,,,,,00957960627fa.jpg,,,,,,,,,,,,,,,
385,14,Memory,7,,,,,,,00794960620fa.jpg,,,,,,,,,,,,,,,
386,14,Memory,7,,,,,,,00647941031fa.jpg,,,,,,,,,,,,,,,
387,14,Memory,7,,,,,,,sunaffgsyyvoqdlkmnk.jpg,,,,,,,,,,,,,,,
388,14,Memory,7,,,,,,,sunagtjwilqjvxohypn.jpg,,,,,,,,,,,,,,,
389,14,Memory,7,,,,,,,sunafbwnojpqeyzssoe.jpg,,,,,,,,,,,,,,,
390,14,Memory,7,,,,,,,00922960627fa.jpg,,,,,,,,,,,,,,,
391,14,Memory,7,,,,,,,sunafkmnlytenlsywia.jpg,,,,,,,,,,,,,,,
392,14,Memory,7,,,,,,,00860940307fa.jpg,,,,,,,,,,,,,,,
393,14,Memory,7,,,,,,,sunaejnvnpltdmhbcsi.jpg,,,,,,,,,,,,,,,
394,14,Memory,7,,,,,,,sunakgbnzxmfohgehnu.jpg,,,,,,,,,,,,,,,
395,14,Memory,7,,,,,,,00915960620fa.jpg,,,,,,,,,,,,,,,
396,14,Memory,7,,,,,,,sunapileznnbbmrwoei.jpg,,,,,,,,,,,,,,,
397,14,Memory,7,,,,,,,sunbloeoiozwjjsiamp.jpg,,,,,,,,,,,,,,,
398,14,Memory,7,,,,,,,sunagtqhhwxjeuxdebe.jpg,,,,,,,,,,,,,,,
399,14,Memory,7,,,,,,,sunapqkyghktgtosuuk.jpg,,,,,,,,,,,,,,,
