,Subject,Trial Type,Run,Cued Composite,Uncued Composite,Cued Face,Cued Place,Uncued Face,Uncued Place,Memory Image,Category,Cued Side,Cued Category,Attention Response Time (s),Familiarity Reaction Time (s),Familiarity Rating,Attention Level,Cue Validity,Post Invalid Cue,Pre Invalid Cue,Attention Button,Rating History,Stimulus Onset,Stimulus End,Attention Probe
0,15,Presentation,0,00827940307fa_sunahtfxgsrmkiulnwk.jpg,00271940422fa_sunabmbnddafmywtjjj.jpg,00827940307fa.jpg,sunahtfxgsrmkiulnwk.jpg,00271940422fa.jpg,sunabmbnddafmywtjjj.jpg,,,>,Face,,,,,1,,,,,,,x
1,15,Presentation,0,00782941205fa_sunagfvluwixdsozaql.jpg,00835940307fa_sunaijsqpvodplbwxkf.jpg,00782941205fa.jpg,sunagfvluwixdsozaql.jpg,00835940307fa.jpg,sunaijsqpvodplbwxkf.jpg,,,>,Face,,,,,1,,,,,,,o
2,15,Presentation,0,00953960627fa_sunatstrpjxhvtbaczf.jpg,00839940307fa_sunaipyohrqlwngaqif.jpg,00953960627fa.jpg,sunatstrpjxhvtbaczf.jpg,00839940307fa.jpg,sunaipyohrqlwngaqif.jpg,,,>,Face,,,,,1,,,,,,,o
3,15,Presentation,0,00648941031fa_sunadfndyrtqqiasoig.jpg,00869940307fa_sunajoveqhiprwqgoco.jpg,00648941031fa.jpg,sunadfndyrtqqiasoig.jpg,00869940307fa.jpg,sunajoveqhiprwqgoco.jpg,,,>,Face,,,,,1,,,,,,,o
4,15,Presentation,0,00829940307fa_sunahwgbqkqcrwprgvh.jpg,00921960627fa_sunapqkpqdfvxlbqwyo.jpg,00829940307fa.jpg,sunahwgbqkqcrwprgvh.jpg,00921960627fa.jpg,sunapqkpqdfvxlbqwyo.jpg,,,>,Face,,,,,0,,,,,,,x
5,15,Presentation,0,00799941205fa_sunagutjvdvnhxejerz.jpg,00939960627fa_sunarceibpcyacbmfga.jpg,00799941205fa.jpg,sunagutjvdvnhxejerz.jpg,00939960627fa.jpg,sunarceibpcyacbmfga.jpg,,,>,Face,,,,,1,,,,,,,x
6,15,Presentation,0,00060931230fa_sunaaehaikpckyjsety.jpg,00836940307fa_sunainqelldeebvxtcz.jpg,00060931230fa.jpg,sunaaehaikpckyjsety.jpg,00836940307fa.jpg,sunainqelldeebvxtcz.jpg,,,>,Face,,,,,1,,,,,,,x
7,15,Presentation,0,00762941201fa_sunafgzgbisbopcyslr.jpg,00109931230fa_sunaajuzribjrizdshh.jpg,00762941201fa.jpg,sunafgzgbisbopcyslr.jpg,00109931230fa.jpg,sunaajuzribjrizdshh.jpg,,,>,Face,,,,,1,,,,,,,x
8,15,Presentation,0,00101931230fb_sunaajqmsaavkmgbsth.jpg,00786941205fa_sunagmhildamktmqjss.jpg,00101931230fb.jpg,sunaajqmsaavkmgbsth.jpg,00786941205fa.jpg,sunagmhildamktmqjss.jpg,,,>,Face,,,,,1,,,,,,,o
9,15,Presentation,0,00574940928fa_sunacvbrcejzwmcgnoq.jpg,00859940307fa_sunaiycurtqsfkvcaso.jpg,00574940928fa.jpg,sunacvbrcejzwmcgnoq.jpg,00859940307fa.jpg,sunaiycurtqsfkvcaso.jpg,,,>,Face,,,,,1,,,,,,,x
10,15,Memory,0,,,,,,,00784941205fb.jpg,,,,,,,,,,,,,,,
11,15,Memory,0,,,,,,,00839940307fa.jpg,,,,,,,,,,,,,,,
12,15,Memory,0,,,,,,,00835940307fa.jpg,,,,,,,,,,,,,,,
13,15,Memory,0,,,,,,,00818940307fa.jpg,,,,,,,,,,,,,,,
14,15,Memory,0,,,,,,,sunafvwfsmqkjrutjta.jpg,,,,,,,,,,,,,,,
15,15,Memory,0,,,,,,,00564940928fa.jpg,,,,,,,,,,,,,,,
16,15,Memory,0,,,,,,,00903960620fa.jpg,,,,,,,,,,,,,,,
17,15,Memory,0,,,,,,,sunaijsqpvodplbwxkf.jpg,,,,,,,,,,,,,,,
18,15,Memory,0,,,,,,,sunaajuzribjrizdshh.jpg,,,,,,,,,,,,,,,
19,15,Memory,0,,,,,,,00786941205fa.jpg,,,,,,,,,,,,,,,
20,15,Memory,0,,,,,,,00775941205fa.jpg,,,,,,,,,,,,,,,
21,15,Memory,0,,,,,,,sunaglqunwuycxydmyu.jpg,,,,,,,,,,,,,,,
22,15,Memory,0,,,,,,,sunaipyohrqlwngaqif.jpg,,,,,,,,,,,,,,,
23,15,Memory,0,,,,,,,sunapqkpqdfvxlbqwyo.jpg,,,,,,,,,,,,,,,
24,15,Memory,0,,,,,,,sunacvbrcejzwmcgnoq.jpg,,,,,,,,,,,,,,,
25,15,Memory,0,,,,,,,00902960530fa.jpg,,,,,,,,,,,,,,,
26,15,Memory,0,,,,,,,sunanaacmmosxrfwmvl.jpg,,,,,,,,,,,,,,,
27,15,Memory,0,,,,,,,00774941201fa.jpg,,,,,,,,,,,,,,,
28,15,Memory,0,,,,,,,00857940307fa.jpg,,,,,,,,,,,,,,,
29,15,Memory,0,,,,,,,sunatstrpjxhvtbaczf.jpg,,,,,,,,,,,,,,,
30,15,Memory,0,,,,,,,00953960627fa.jpg,,,,,,,,,,,,,,,
31,15,Memory,0,,,,,,,sunacxeheuiigkcgquf.jpg,,,,,,,,,,,,,,,
32,15,Memory,0,,,,,,,00762941201fa.jpg,,,,,,,,,,,,,,,
33,15,Memory,0,,,,,,,sunagmhildamktmqjss.jpg,,,,,,,,,,,,,,,
34,15,Memory,0,,,,,,,00574940928fa.jpg,,,,,,,,,,,,,,,
35,15,Memory,0,,,,,,,sunafvtpfczkzopbgue.jpg,,,,,,,,,,,,,,,
36,15,Memory,0,,,,,,,00060931230fa.jpg,,,,,,,,,,,,,,,
37,15,Memory,0,,,,,,,00921960627fa.jpg,,,,,,,,,,,,,,,
38,15,Memory,0,,,,,,,00598940928fa.jpg,,,,,,,,,,,,,,,
39,15,Memory,0,,,,,,,00109931230fa.jpg,,,,,,,,,,,,,,,
40,15,Memory,0,,,,,,,00101931230fb.jpg,,,,,,,,,,,,,,,
41,15,Memory,0,,,,,,,sunacmpqqfbsvlzinzl.jpg,,,,,,,,,,,,,,,
42,15,Memory,0,,,,,,,sunaiwfobocrruqznsv.jpg,,,,,,,,,,,,,,,
43,15,Memory,0,,,,,,,sunafgzgbisbopcyslr.jpg,,,,,,,,,,,,,,,
44,15,Memory,0,,,,,,,sunanainkqdvktzoxyl.jpg,,,,,,,,,,,,,,,
45,15,Memory,0,,,,,,,sunaaehaikpckyjsety.jpg,,,,,,,,,,,,,,,
46,15,Memory,0,,,,,,,00785941205fa.jpg,,,,,,,,,,,,,,,
47,15,Memory,0,,,,,,,sunagjzcrjvmxzqzljx.jpg,,,,,,,,,,,,,,,
48,15,Memory,0,,,,,,,sunaajqmsaavkmgbsth.jpg,,,,,,,,,,,,,,,
49,15,Memory,0,,,,,,,sunahpblecxtmuzkmxb.jpg,,,,,,,,,,,,,,,
50,15,Presentation,1,00221940128fa_sunabcfpwlpolnutyju.jpg,00809960620fa_sunahbvlpavurqoxdeq.jpg,00221940128fa.jpg,sunabcfpwlpolnutyju.jpg,00809960620fa.jpg,sunahbvlpavurqoxdeq.jpg,,,<,Face,,,,,1,,,,,,,o
51,15,Presentation,1,00568940928fa_sunacsdhbbsybcyxnel.jpg,00987960627fa_sunbloeoiozwjjsiamp.jpg,00568940928fa.jpg,sunacsdhbbsybcyxnel.jpg,00987960627fa.jpg,sunbloeoiozwjjsiamp.jpg,,,<,Face,,,,,1,,,,,,,o
52,15,Presentation,1,00266940128fb_sunabkngeblodihjvbk.jpg,00871940307_sunajrujcsdxmfbssmc.jpg,00266940128fb.jpg,sunabkngeblodihjvbk.jpg,00871940307.jpg,sunajrujcsdxmfbssmc.jpg,,,<,Face,,,,,1,,,,,,,x
53,15,Presentation,1,00805941205fa_sunagwzdbtlixdhgolm.jpg,00082931230fa_sunaafvitpexrpvumsa.jpg,00805941205fa.jpg,sunagwzdbtlixdhgolm.jpg,00082931230fa.jpg,sunaafvitpexrpvumsa.jpg,,,<,Face,,,,,1,,,,,,,o
54,15,Presentation,1,00751960620fa_sunaezuszgtxnmsxdbk.jpg,00938960627fa_sunaqyylsngywqzwfmx.jpg,00751960620fa.jpg,sunaezuszgtxnmsxdbk.jpg,00938960627fa.jpg,sunaqyylsngywqzwfmx.jpg,,,<,Face,,,,,0,,,,,,,o
55,15,Presentation,1,00880960530fa_sunakmnfgklupjijsgf.jpg,00795941205fa_sunagtumacdlmciqamz.jpg,00880960530fa.jpg,sunakmnfgklupjijsgf.jpg,00795941205fa.jpg,sunagtumacdlmciqamz.jpg,,,<,Face,,,,,1,,,,,,,x
56,15,Presentation,1,00129931230fb_sunaamsdyakblkfoydx.jpg,00265940128fb_sunabkmdplkdbvxriff.jpg,00129931230fb.jpg,sunaamsdyakblkfoydx.jpg,00265940128fb.jpg,sunabkmdplkdbvxriff.jpg,,,<,Face,,,,,1,,,,,,,x
57,15,Presentation,1,00136931230fb_sunaanptmsknhirrzed.jpg,00133931230fa_sunaanlwnpqndclffxt.jpg,00136931230fb.jpg,sunaanptmsknhirrzed.jpg,00133931230fa.jpg,sunaanlwnpqndclffxt.jpg,,,<,Face,,,,,1,,,,,,,x
58,15,Presentation,1,00676941121fa_sunadpnqovzckyikrjo.jpg,00876960620fa_sunajwqkfsykceonyig.jpg,00676941121fa.jpg,sunadpnqovzckyikrjo.jpg,00876960620fa.jpg,sunajwqkfsykceonyig.jpg,,,<,Face,,,,,1,,,,,,,o
59,15,Presentation,1,00063931230fa_sunaaelyvurpntclgau.jpg,00796941205fa_sunaguchqqnrtodtezq.jpg,00063931230fa.jpg,sunaaelyvurpntclgau.jpg,00796941205fa.jpg,sunaguchqqnrtodtezq.jpg,,,<,Face,,,,,1,,,,,,,o
60,15,Memory,1,,,,,,,sunavhxgmgrqsaptynb.jpg,,,,,,,,,,,,,,,
61,15,Memory,1,,,,,,,sunaampvucecsfbdafn.jpg,,,,,,,,,,,,,,,
62,15,Memory,1,,,,,,,00795941205fa.jpg,,,,,,,,,,,,,,,
63,15,Memory,1,,,,,,,00265940128fb.jpg,,,,,,,,,,,,,,,
64,15,Memory,1,,,,,,,sunagtjwilqjvxohypn.jpg,,,,,,,,,,,,,,,
65,15,Memory,1,,,,,,,sunabkngeblodihjvbk.jpg,,,,,,,,,,,,,,,
66,15,Memory,1,,,,,,,00987960627fa.jpg,,,,,,,,,,,,,,,
67,15,Memory,1,,,,,,,sunavspxmxubqaeidjt.jpg,,,,,,,,,,,,,,,
68,15,Memory,1,,,,,,,00751960620fa.jpg,,,,,,,,,,,,,,,
69,15,Memory,1,,,,,,,00889960530fa.jpg,,,,,,,,,,,,,,,
70,15,Memory,1,,,,,,,sunabcfpwlpolnutyju.jpg,,,,,,,,,,,,,,,
71,15,Memory,1,,,,,,,sunalqmfgeadpqsyzpd.jpg,,,,,,,,,,,,,,,
72,15,Memory,1,,,,,,,00957960627fa.jpg,,,,,,,,,,,,,,,
73,15,Memory,1,,,,,,,sunabcuurugvxwparpk.jpg,,,,,,,,,,,,,,,
74,15,Memory,1,,,,,,,00796941205fa.jpg,,,,,,,,,,,,,,,
75,15,Memory,1,,,,,,,sunbloeoiozwjjsiamp.jpg,,,,,,,,,,,,,,,
76,15,Memory,1,,,,,,,00958960627fa.jpg,,,,,,,,,,,,,,,
77,15,Memory,1,,,,,,,00242940128fa.jpg,,,,,,,,,,,,,,,
78,15,Memory,1,,,,,,,sunacacflqoyxhsqzhe.jpg,,,,,,,,,,,,,,,
79,15,Memory,1,,,,,,,00266940128fb.jpg,,,,,,,,,,,,,,,
80,15,Memory,1,,,,,,,00127931230fa.jpg,,,,,,,,,,,,,,,
81,15,Memory,1,,,,,,,00507940519fa.jpg,,,,,,,,,,,,,,,
82,15,Memory,1,,,,,,,sunadpnqovzckyikrjo.jpg,,,,,,,,,,,,,,,
83,15,Memory,1,,,,,,,00568940928fa.jpg,,,,,,,,,,,,,,,
84,15,Memory,1,,,,,,,00894960620fa.jpg,,,,,,,,,,,,,,,
85,15,Memory,1,,,,,,,sunacsdhbbsybcyxnel.jpg,,,,,,,,,,,,,,,
86,15,Memory,1,,,,,,,sunadvithllcgmfxsrn.jpg,,,,,,,,,,,,,,,
87,15,Memory,1,,,,,,,sunaqyylsngywqzwfmx.jpg,,,,,,,,,,,,,,,
88,15,Memory,1,,,,,,,sunabkmdplkdbvxriff.jpg,,,,,,,,,,,,,,,
89,15,Memory,1,,,,,,,sunaavjinpnkappuonm.jpg,,,,,,,,,,,,,,,
90,15,Memory,1,,,,,,,00221940128fa.jpg,,,,,,,,,,,,,,,
91,15,Memory,1,,,,,,,00162931230fb.jpg,,,,,,,,,,,,,,,
92,15,Memory,1,,,,,,,00938960627fa.jpg,,,,,,,,,,,,,,,
93,15,Memory,1,,,,,,,00793941205fa.jpg,,,,,,,,,,,,,,,
94,15,Memory,1,,,,,,,00719941201fa.jpg,,,,,,,,,,,,,,,
95,15,Memory,1,,,,,,,sunaguchqqnrtodtezq.jpg,,,,,,,,,,,,,,,
96,15,Memory,1,,,,,,,sunaezuszgtxnmsxdbk.jpg,,,,,,,,,,,,,,,
97,15,Memory,1,,,,,,,00676941121fa.jpg,,,,,,,,,,,,,,,
98,15,Memory,1,,,,,,,sunagtumacdlmciqamz.jpg,,,,,,,,,,,,,,,
99,15,Memory,1,,,,,,,sunaletopenvvozhpxc.jpg,,,,,,,,,,,,,,,
100,15,Presentation,2,00145931230fb_sunaatjesvdupctftmn.jpg,00663941121fa_sunadnjjzohjhbohlwq.jpg,00145931230fb.jpg,sunaatjesvdupctftmn.jpg,00663941121fa.jpg,sunadnjjzohjhbohlwq.jpg,,,>,Place,,,,,1,,,,,,,o
101,15,Presentation,2,00803941205fa_sunagvxkjokqimstxpe.jpg,00937960627fa_sunaqsolmfydodnakub.jpg,00803941205fa.jpg,sunagvxkjokqimstxpe.jpg,00937960627fa.jpg,sunaqsolmfydodnakub.jpg,,,>,Place,,,,,1,,,,,,,o
102,15,Presentation,2,00095931230fa_sunaahzooisqkwlxwoz.jpg,00882960530fa_sunaknlirqjqiwbbeeg.jpg,00095931230fa.jpg,sunaahzooisqkwlxwoz.jpg,00882960530fa.jpg,sunaknlirqjqiwbbeeg.jpg,,,>,Place,,,,,0,,,,,,,o
103,15,Presentation,2,00771941205fa_sunafowswglhxcsufpo.jpg,00061931230fb_sunaaekxzjzrfgtkwjf.jpg,00771941205fa.jpg,sunafowswglhxcsufpo.jpg,00061931230fb.jpg,sunaaekxzjzrfgtkwjf.jpg,,,>,Place,,,,,1,,,,,,,x
104,15,Presentation,2,00090931230fa_sunaahedjlmtqekgyvj.jpg,00262940128fa_sunabizydfotqddlnjp.jpg,00090931230fa.jpg,sunaahedjlmtqekgyvj.jpg,00262940128fa.jpg,sunabizydfotqddlnjp.jpg,,,>,Place,,,,,1,,,,,,,x
105,15,Presentation,2,00305940422fa_sunabtrnbvpppgczjim.jpg,00081941031fa_sunaaftlyfudyzuhqzf.jpg,00305940422fa.jpg,sunabtrnbvpppgczjim.jpg,00081941031fa.jpg,sunaaftlyfudyzuhqzf.jpg,,,>,Place,,,,,1,,,,,,,o
106,15,Presentation,2,00276940422fa_sunabmytpyhsgigllxu.jpg,00140931230fb_sunaapllqyqlykszopd.jpg,00276940422fa.jpg,sunabmytpyhsgigllxu.jpg,00140931230fb.jpg,sunaapllqyqlykszopd.jpg,,,>,Place,,,,,1,,,,,,,o
107,15,Presentation,2,00211940128fa_sunabasphceswhwwqvv.jpg,00913960530fa_sunaooffzffbhcpirmm.jpg,00211940128fa.jpg,sunabasphceswhwwqvv.jpg,00913960530fa.jpg,sunaooffzffbhcpirmm.jpg,,,>,Place,,,,,1,,,,,,,o
108,15,Presentation,2,00915960620fa_sunapileznnbbmrwoei.jpg,00227940128fa_sunabckqabszusgcykj.jpg,00915960620fa.jpg,sunapileznnbbmrwoei.jpg,00227940128fa.jpg,sunabckqabszusgcykj.jpg,,,>,Place,,,,,1,,,,,,,x
109,15,Presentation,2,00149931230fa_sunaauglwmctnkxyird.jpg,00925960627fa_sunapqwnqzxlsfvgsjm.jpg,00149931230fa.jpg,sunaauglwmctnkxyird.jpg,00925960627fa.jpg,sunapqwnqzxlsfvgsjm.jpg,,,>,Place,,,,,0,,,,,,,o
110,15,Memory,2,,,,,,,sunaaftlyfudyzuhqzf.jpg,,,,,,,,,,,,,,,
111,15,Memory,2,,,,,,,sunaatjesvdupctftmn.jpg,,,,,,,,,,,,,,,
112,15,Memory,2,,,,,,,00145931230fb.jpg,,,,,,,,,,,,,,,
113,15,Memory,2,,,,,,,sunafowswglhxcsufpo.jpg,,,,,,,,,,,,,,,
114,15,Memory,2,,,,,,,00868960307fa.jpg,,,,,,,,,,,,,,,
115,15,Memory,2,,,,,,,00061931230fb.jpg,,,,,,,,,,,,,,,
116,15,Memory,2,,,,,,,00937960627fa.jpg,,,,,,,,,,,,,,,
117,15,Memory,2,,,,,,,sunasbbntuiheekqyaq.jpg,,,,,,,,,,,,,,,
118,15,Memory,2,,,,,,,sunapileznnbbmrwoei.jpg,,,,,,,,,,,,,,,
119,15,Memory,2,,,,,,,sunabllobxadqcyttej.jpg,,,,,,,,,,,,,,,
120,15,Memory,2,,,,,,,sunabasphceswhwwqvv.jpg,,,,,,,,,,,,,,,
121,15,Memory,2,,,,,,,00081941031fa.jpg,,,,,,,,,,,,,,,
122,15,Memory,2,,,,,,,sunbbxkanhzjgbwyxqs.jpg,,,,,,,,,,,,,,,
123,15,Memory,2,,,,,,,sunaaekxzjzrfgtkwjf.jpg,,,,,,,,,,,,,,,
124,15,Memory,2,,,,,,,00292940422fb.jpg,,,,,,,,,,,,,,,
125,15,Memory,2,,,,,,,00270940422fb.jpg,,,,,,,,,,,,,,,
126,15,Memory,2,,,,,,,01002960627fb.jpg,,,,,,,,,,,,,,,
127,15,Memory,2,,,,,,,00276940422fa.jpg,,,,,,,,,,,,,,,
128,15,Memory,2,,,,,,,sunaazezcsunmhttzxz.jpg,,,,,,,,,,,,,,,
129,15,Memory,2,,,,,,,00227940128fa.jpg,,,,,,,,,,,,,,,
130,15,Memory,2,,,,,,,sunabckqabszusgcykj.jpg,,,,,,,,,,,,,,,
131,15,Memory,2,,,,,,,00944960627fa.jpg,,,,,,,,,,,,,,,
132,15,Memory,2,,,,,,,sunaaeowapdkwzqpgqr.jpg,,,,,,,,,,,,,,,
133,15,Memory,2,,,,,,,00915960620fa.jpg,,,,,,,,,,,,,,,
134,15,Memory,2,,,,,,,00874940307fa.jpg,,,,,,,,,,,,,,,
135,15,Memory,2,,,,,,,00771941205fa.jpg,,,,,,,,,,,,,,,
136,15,Memory,2,,,,,,,00198940128fb.jpg,,,,,,,,,,,,,,,
137,15,Memory,2,,,,,,,sunbwaafjdebjzttuvq.jpg,,,,,,,,,,,,,,,
138,15,Memory,2,,,,,,,00943960627fa.jpg,,,,,,,,,,,,,,,
139,15,Memory,2,,,,,,,00663941121fa.jpg,,,,,,,,,,,,,,,
140,15,Memory,2,,,,,,,sunaqsolmfydodnakub.jpg,,,,,,,,,,,,,,,
141,15,Memory,2,,,,,,,00069931230fb.jpg,,,,,,,,,,,,,,,
142,15,Memory,2,,,,,,,sunadnjjzohjhbohlwq.jpg,,,,,,,,,,,,,,,
143,15,Memory,2,,,,,,,00977960627fa.jpg,,,,,,,,,,,,,,,
144,15,Memory,2,,,,,,,sunarpsxqkduedrrzyi.jpg,,,,,,,,,,,,,,,
145,15,Memory,2,,,,,,,00211940128fa.jpg,,,,,,,,,,,,,,,
146,15,Memory,2,,,,,,,sunajjxttslobudoqbv.jpg,,,,,,,,,,,,,,,
147,15,Memory,2,,,,,,,sunabrjdpmoedcdjbpo.jpg,,,,,,,,,,,,,,,
148,15,Memory,2,,,,,,,sunajtrfunvzdfticna.jpg,,,,,,,,,,,,,,,
149,15,Memory,2,,,,,,,sunabmytpyhsgigllxu.jpg,,,,,,,,,,,,,,,
150,15,Presentation,3,00728941205fa_sunaejnvnpltdmhbcsi.jpg,00294940422fb_sunabrlndkruqokhury.jpg,00728941205fa.jpg,sunaejnvnpltdmhbcsi.jpg,00294940422fb.jpg,sunabrlndkruqokhury.jpg,,,<,Place,,,,,1,,,,,,,x
151,15,Presentation,3,00983960627fa_sunbfyvfqiimvdaxlqn.jpg,00862940307fa_sunaizgnnplsvajzhkc.jpg,00983960627fa.jpg,sunbfyvfqiimvdaxlqn.jpg,00862940307fa.jpg,sunaizgnnplsvajzhkc.jpg,,,<,Place,,,,,1,,,,,,,o
152,15,Presentation,3,00822940307fa_sunahqrxievfeusiqlt.jpg,00631940928fa_sunadbdqzigzwipuipr.jpg,00822940307fa.jpg,sunahqrxievfeusiqlt.jpg,00631940928fa.jpg,sunadbdqzigzwipuipr.jpg,,,<,Place,,,,,1,,,,,,,o
153,15,Presentation,3,00115931230fa_sunaakmxzhuceuiryah.jpg,00097931230fa_sunaajayojuslbbnneg.jpg,00115931230fa.jpg,sunaakmxzhuceuiryah.jpg,00097931230fa.jpg,sunaajayojuslbbnneg.jpg,,,<,Place,,,,,1,,,,,,,x
154,15,Presentation,3,00576941031fa_sunacvjlsylseoghjup.jpg,01009960627fa_sunbxzweleltykebgan.jpg,00576941031fa.jpg,sunacvjlsylseoghjup.jpg,01009960627fa.jpg,sunbxzweleltykebgan.jpg,,,<,Place,,,,,0,,,,,,,o
155,15,Presentation,3,00752960620fa_sunafbwnojpqeyzssoe.jpg,00209940128fb_sunabaergayifsgacxt.jpg,00752960620fa.jpg,sunafbwnojpqeyzssoe.jpg,00209940128fb.jpg,sunabaergayifsgacxt.jpg,,,<,Place,,,,,1,,,,,,,x
156,15,Presentation,3,00313940422fa_sunabwjvmoaddlyxfjr.jpg,00288940422fa_sunabppokiyglaxpcha.jpg,00313940422fa.jpg,sunabwjvmoaddlyxfjr.jpg,00288940422fa.jpg,sunabppokiyglaxpcha.jpg,,,<,Place,,,,,1,,,,,,,x
157,15,Presentation,3,00787960620fa_sunagoufulkpsxrmklt.jpg,00851940307fa_sunaivflshbyfrfzhqb.jpg,00787960620fa.jpg,sunagoufulkpsxrmklt.jpg,00851940307fa.jpg,sunaivflshbyfrfzhqb.jpg,,,<,Place,,,,,1,,,,,,,x
158,15,Presentation,3,00884960530fa_sunakodkcslgqhqlgwl.jpg,00910960530fa_sunaofikylqtxphvdem.jpg,00884960530fa.jpg,sunakodkcslgqhqlgwl.jpg,00910960530fa.jpg,sunaofikylqtxphvdem.jpg,,,<,Place,,,,,1,,,,,,,x
159,15,Presentation,3,00505960627fa_sunabzuqsrgcsonqlkz.jpg,00239940128fa_sunabctlikybqabezjv.jpg,00505960627fa.jpg,sunabzuqsrgcsonqlkz.jpg,00239940128fa.jpg,sunabctlikybqabezjv.jpg,,,<,Place,,,,,1,,,,,,,x
160,15,Memory,3,,,,,,,00847940307fa.jpg,,,,,,,,,,,,,,,
161,15,Memory,3,,,,,,,00884960530fa.jpg,,,,,,,,,,,,,,,
162,15,Memory,3,,,,,,,sunaajayojuslbbnneg.jpg,,,,,,,,,,,,,,,
163,15,Memory,3,,,,,,,00314940422fa.jpg,,,,,,,,,,,,,,,
164,15,Memory,3,,,,,,,00313940422fa.jpg,,,,,,,,,,,,,,,
165,15,Memory,3,,,,,,,sunadrmfzmstgdjdcod.jpg,,,,,,,,,,,,,,,
166,15,Memory,3,,,,,,,sunadbdqzigzwipuipr.jpg,,,,,,,,,,,,,,,
167,15,Memory,3,,,,,,,sunafbwnojpqeyzssoe.jpg,,,,,,,,,,,,,,,
168,15,Memory,3,,,,,,,sunaisiwfgppimtnmxl.jpg,,,,,,,,,,,,,,,
169,15,Memory,3,,,,,,,00810941205fa.jpg,,,,,,,,,,,,,,,
170,15,Memory,3,,,,,,,00122931230fa.jpg,,,,,,,,,,,,,,,
171,15,Memory,3,,,,,,,00631940928fa.jpg,,,,,,,,,,,,,,,
172,15,Memory,3,,,,,,,00851940307fa.jpg,,,,,,,,,,,,,,,
173,15,Memory,3,,,,,,,00783941205fa.jpg,,,,,,,,,,,,,,,
174,15,Memory,3,,,,,,,00728941205fa.jpg,,,,,,,,,,,,,,,
175,15,Memory,3,,,,,,,00086931230fa.jpg,,,,,,,,,,,,,,,
176,15,Memory,3,,,,,,,sunaeisnjeetzmkbuad.jpg,,,,,,,,,,,,,,,
177,15,Memory,3,,,,,,,sunabctlikybqabezjv.jpg,,,,,,,,,,,,,,,
178,15,Memory,3,,,,,,,sunaiwduelojtwaqeyh.jpg,,,,,,,,,,,,,,,
179,15,Memory,3,,,,,,,00910960530fa.jpg,,,,,,,,,,,,,,,
180,15,Memory,3,,,,,,,00841940307fa.jpg,,,,,,,,,,,,,,,
181,15,Memory,3,,,,,,,00854940307fa.jpg,,,,,,,,,,,,,,,
182,15,Memory,3,,,,,,,sunaafynehyrzpsoaml.jpg,,,,,,,,,,,,,,,
183,15,Memory,3,,,,,,,00787960620fa.jpg,,,,,,,,,,,,,,,
184,15,Memory,3,,,,,,,00097931230fa.jpg,,,,,,,,,,,,,,,
185,15,Memory,3,,,,,,,sunaivdjruhkrfywfed.jpg,,,,,,,,,,,,,,,
186,15,Memory,3,,,,,,,sunaivflshbyfrfzhqb.jpg,,,,,,,,,,,,,,,
187,15,Memory,3,,,,,,,sunaejnvnpltdmhbcsi.jpg,,,,,,,,,,,,,,,
188,15,Memory,3,,,,,,,00694941121fa.jpg,,,,,,,,,,,,,,,
189,15,Memory,3,,,,,,,00752960620fa.jpg,,,,,,,,,,,,,,,
190,15,Memory,3,,,,,,,00727941205fa.jpg,,,,,,,,,,,,,,,
191,15,Memory,3,,,,,,,sunakodkcslgqhqlgwl.jpg,,,,,,,,,,,,,,,
192,15,Memory,3,,,,,,,sunagjeesomrwjsfqie.jpg,,,,,,,,,,,,,,,
193,15,Memory,3,,,,,,,sunaofikylqtxphvdem.jpg,,,,,,,,,,,,,,,
194,15,Memory,3,,,,,,,sunahctntqrunhdxhtb.jpg,,,,,,,,,,,,,,,
195,15,Memory,3,,,,,,,sunabwmcbaxwioksdgw.jpg,,,,,,,,,,,,,,,
196,15,Memory,3,,,,,,,sunaakxjfbrrequcjmx.jpg,,,,,,,,,,,,,,,
197,15,Memory,3,,,,,,,sunabwjvmoaddlyxfjr.jpg,,,,,,,,,,,,,,,
198,15,Memory,3,,,,,,,00239940128fa.jpg,,,,,,,,,,,,,,,
199,15,Memory,3,,,,,,,sunagoufulkpsxrmklt.jpg,,,,,,,,,,,,,,,
200,15,Presentation,4,00993960627fa_sunbprywzqxjcezkbch.jpg,00929960627fa_sunaprnrbmgkomdbchr.jpg,00993960627fa.jpg,sunbprywzqxjcezkbch.jpg,00929960627fa.jpg,sunaprnrbmgkomdbchr.jpg,,,<,Face,,,,,0,,,,,,,x
201,15,Presentation,4,00636941031fa_sunaddtdkycxbqlpfqa.jpg,00790941205fa_sunagpjzsbltchlwvou.jpg,00636941031fa.jpg,sunaddtdkycxbqlpfqa.jpg,00790941205fa.jpg,sunagpjzsbltchlwvou.jpg,,,<,Face,,,,,1,,,,,,,x
202,15,Presentation,4,00296940422fa_sunabrwnslxalcohfre.jpg,00705960530fa_sunaduslxfzlbxlllnz.jpg,00296940422fa.jpg,sunabrwnslxalcohfre.jpg,00705960530fa.jpg,sunaduslxfzlbxlllnz.jpg,,,<,Face,,,,,1,,,,,,,o
203,15,Presentation,4,00965960627fa_sunaydywdmvlfddbxbk.jpg,00144931230fb_sunaathajvxrgptwhoj.jpg,00965960627fa.jpg,sunaydywdmvlfddbxbk.jpg,00144931230fb.jpg,sunaathajvxrgptwhoj.jpg,,,<,Face,,,,,1,,,,,,,x
204,15,Presentation,4,00834940307fa_sunaibnpvhkdpdnzcnz.jpg,00963960627fa_sunayaepykrqvenaqqy.jpg,00834940307fa.jpg,sunaibnpvhkdpdnzcnz.jpg,00963960627fa.jpg,sunayaepykrqvenaqqy.jpg,,,<,Face,,,,,1,,,,,,,o
205,15,Presentation,4,00571940928fa_sunacuatpqpqhyjhjqk.jpg,00950960627fa_sunasrjlmglmjzbmqxb.jpg,00571940928fa.jpg,sunacuatpqpqhyjhjqk.jpg,00950960627fa.jpg,sunasrjlmglmjzbmqxb.jpg,,,<,Face,,,,,1,,,,,,,o
206,15,Presentation,4,00741941201fa_sunaemcowdozyphwknd.jpg,00562941031fa_sunacjnahdmqfnjfwqx.jpg,00741941201fa.jpg,sunaemcowdozyphwknd.jpg,00562941031fa.jpg,sunacjnahdmqfnjfwqx.jpg,,,<,Face,,,,,1,,,,,,,x
207,15,Presentation,4,00955960627fb_sunauburywlkjszngcq.jpg,00194940128fb_sunaayehfdqcyxggsej.jpg,00955960627fb.jpg,sunauburywlkjszngcq.jpg,00194940128fb.jpg,sunaayehfdqcyxggsej.jpg,,,<,Face,,,,,1,,,,,,,o
208,15,Presentation,4,00825940307fa_sunahrltmuwbiehihpe.jpg,00071940128fa_sunaaexpnawiehinlpy.jpg,00825940307fa.jpg,sunahrltmuwbiehihpe.jpg,00071940128fa.jpg,sunaaexpnawiehinlpy.jpg,,,<,Face,,,,,1,,,,,,,x
209,15,Presentation,4,00076931230fa_sunaafewhewbxmjiurz.jpg,00096931230fa_sunaaiqiqcggrskoqgy.jpg,00076931230fa.jpg,sunaafewhewbxmjiurz.jpg,00096931230fa.jpg,sunaaiqiqcggrskoqgy.jpg,,,<,Face,,,,,1,,,,,,,o
210,15,Memory,4,,,,,,,sunaalltyvjhbzhkmvg.jpg,,,,,,,,,,,,,,,
211,15,Memory,4,,,,,,,00790941205fa.jpg,,,,,,,,,,,,,,,
212,15,Memory,4,,,,,,,sunaaiqiqcggrskoqgy.jpg,,,,,,,,,,,,,,,
213,15,Memory,4,,,,,,,00062931230fb.jpg,,,,,,,,,,,,,,,
214,15,Memory,4,,,,,,,00636941031fa.jpg,,,,,,,,,,,,,,,
215,15,Memory,4,,,,,,,00125931230fa.jpg,,,,,,,,,,,,,,,
216,15,Memory,4,,,,,,,00877960530fa.jpg,,,,,,,,,,,,,,,
217,15,Memory,4,,,,,,,sunasrjlmglmjzbmqxb.jpg,,,,,,,,,,,,,,,
218,15,Memory,4,,,,,,,00761960627fa.jpg,,,,,,,,,,,,,,,
219,15,Memory,4,,,,,,,sunagwswhkvnsmuszlz.jpg,,,,,,,,,,,,,,,
220,15,Memory,4,,,,,,,00705960530fa.jpg,,,,,,,,,,,,,,,
221,15,Memory,4,,,,,,,00804960530fa.jpg,,,,,,,,,,,,,,,
222,15,Memory,4,,,,,,,sunaafewhewbxmjiurz.jpg,,,,,,,,,,,,,,,
223,15,Memory,4,,,,,,,sunaaelotvjgibjtjhs.jpg,,,,,,,,,,,,,,,
224,15,Memory,4,,,,,,,00071940128fa.jpg,,,,,,,,,,,,,,,
225,15,Memory,4,,,,,,,sunagpjzsbltchlwvou.jpg,,,,,,,,,,,,,,,
226,15,Memory,4,,,,,,,00965960627fa.jpg,,,,,,,,,,,,,,,
227,15,Memory,4,,,,,,,sunaemcowdozyphwknd.jpg,,,,,,,,,,,,,,,
228,15,Memory,4,,,,,,,sunagvjurcwdbixvnyi.jpg,,,,,,,,,,,,,,,
229,15,Memory,4,,,,,,,sunabrwnslxalcohfre.jpg,,,,,,,,,,,,,,,
230,15,Memory,4,,,,,,,sunajawzbrlrwafowen.jpg,,,,,,,,,,,,,,,
231,15,Memory,4,,,,,,,00968960627fa.jpg,,,,,,,,,,,,,,,
232,15,Memory,4,,,,,,,01011960627fa.jpg,,,,,,,,,,,,,,,
233,15,Memory,4,,,,,,,00950960627fa.jpg,,,,,,,,,,,,,,,
234,15,Memory,4,,,,,,,00800941205fb.jpg,,,,,,,,,,,,,,,
235,15,Memory,4,,,,,,,sunaddtdkycxbqlpfqa.jpg,,,,,,,,,,,,,,,
236,15,Memory,4,,,,,,,00864940307fa.jpg,,,,,,,,,,,,,,,
237,15,Memory,4,,,,,,,00076931230fa.jpg,,,,,,,,,,,,,,,
238,15,Memory,4,,,,,,,sunaaexpnawiehinlpy.jpg,,,,,,,,,,,,,,,
239,15,Memory,4,,,,,,,sunaduslxfzlbxlllnz.jpg,,,,,,,,,,,,,,,
240,15,Memory,4,,,,,,,sunajxpkuhbizeveguy.jpg,,,,,,,,,,,,,,,
241,15,Memory,4,,,,,,,sunaygrtwrwfezqjizr.jpg,,,,,,,,,,,,,,,
242,15,Memory,4,,,,,,,00741941201fa.jpg,,,,,,,,,,,,,,,
243,15,Memory,4,,,,,,,sunaydywdmvlfddbxbk.jpg,,,,,,,,,,,,,,,
244,15,Memory,4,,,,,,,sunafgdqbclkwfocdhg.jpg,,,,,,,,,,,,,,,
245,15,Memory,4,,,,,,,sunbagfpovqwbuexqdn.jpg,,,,,,,,,,,,,,,
246,15,Memory,4,,,,,,,00096931230fa.jpg,,,,,,,,,,,,,,,
247,15,Memory,4,,,,,,,sundahdxwmcdluscvot.jpg,,,,,,,,,,,,,,,
248,15,Memory,4,,,,,,,00296940422fa.jpg,,,,,,,,,,,,,,,
249,15,Memory,4,,,,,,,00966960627fa.jpg,,,,,,,,,,,,,,,
250,15,Presentation,5,00210940128fb_sunabanoxjtqxamkucc.jpg,00985960627fa_sunbgklxeqjhdbyfhhy.jpg,00210940128fb.jpg,sunabanoxjtqxamkucc.jpg,00985960627fa.jpg,sunbgklxeqjhdbyfhhy.jpg,,,<,Place,,,,,1,,,,,,,o
251,15,Presentation,5,00119931230fb_sunaakvmbftkrgqhjun.jpg,00633940928fa_sunadbhmrgrrpyzglxs.jpg,00119931230fb.jpg,sunaakvmbftkrgqhjun.jpg,00633940928fa.jpg,sunadbhmrgrrpyzglxs.jpg,,,<,Place,,,,,1,,,,,,,x
252,15,Presentation,5,00971960627fa_sunbbegcweqnetpdlrh.jpg,01003960627fb_sunbwdrdvsweerwsdrj.jpg,00971960627fa.jpg,sunbbegcweqnetpdlrh.jpg,01003960627fb.jpg,sunbwdrdvsweerwsdrj.jpg,,,<,Place,,,,,1,,,,,,,x
253,15,Presentation,5,00720960620fa_sunaecpkgfewqqreqwe.jpg,00290940422fa_sunabqowuarvqqcnipn.jpg,00720960620fa.jpg,sunaecpkgfewqqreqwe.jpg,00290940422fa.jpg,sunabqowuarvqqcnipn.jpg,,,<,Place,,,,,1,,,,,,,o
254,15,Presentation,5,00116931230fa_sunaakqepfoeqomfgxf.jpg,00773960620fa_sunafvsxtzaizojicxx.jpg,00116931230fa.jpg,sunaakqepfoeqomfgxf.jpg,00773960620fa.jpg,sunafvsxtzaizojicxx.jpg,,,<,Place,,,,,1,,,,,,,x
255,15,Presentation,5,00891960530fa_sunalkiibhqpxfamlll.jpg,00070940307fa_sunaaeplwsfslcbtojr.jpg,00891960530fa.jpg,sunalkiibhqpxfamlll.jpg,00070940307fa.jpg,sunaaeplwsfslcbtojr.jpg,,,<,Place,,,,,1,,,,,,,o
256,15,Presentation,5,00986960627fa_sunbgzjryivyczuvkvm.jpg,00770941201fa_sunaflojskatpeqyzqp.jpg,00986960627fa.jpg,sunbgzjryivyczuvkvm.jpg,00770941201fa.jpg,sunaflojskatpeqyzqp.jpg,,,<,Place,,,,,1,,,,,,,x
257,15,Presentation,5,00787941205fa_sunagmwxxwymwojbvgi.jpg,00681941121fa_sunadqmjrhfjyuzyvdd.jpg,00787941205fa.jpg,sunagmwxxwymwojbvgi.jpg,00681941121fa.jpg,sunadqmjrhfjyuzyvdd.jpg,,,<,Place,,,,,1,,,,,,,o
258,15,Presentation,5,00778941205fa_sunagcthdfirrcawoic.jpg,00630941031fa_sunadakkdovnuzlycvp.jpg,00778941205fa.jpg,sunagcthdfirrcawoic.jpg,00630941031fa.jpg,sunadakkdovnuzlycvp.jpg,,,<,Place,,,,,1,,,,,,,o
259,15,Presentation,5,00479940519fa_sunabxsbfwjccqxxzxq.jpg,00108960530fa_sunaajtnvzzpsjdzres.jpg,00479940519fa.jpg,sunabxsbfwjccqxxzxq.jpg,00108960530fa.jpg,sunaajtnvzzpsjdzres.jpg,,,<,Place,,,,,1,,,,,,,x
260,15,Memory,5,,,,,,,00792941205fa.jpg,,,,,,,,,,,,,,,
261,15,Memory,5,,,,,,,sunafkmnlytenlsywia.jpg,,,,,,,,,,,,,,,
262,15,Memory,5,,,,,,,00787941205fa.jpg,,,,,,,,,,,,,,,
263,15,Memory,5,,,,,,,00116931230fa.jpg,,,,,,,,,,,,,,,
264,15,Memory,5,,,,,,,00978960627fa.jpg,,,,,,,,,,,,,,,
265,15,Memory,5,,,,,,,sunacfdkbsrughwqwtt.jpg,,,,,,,,,,,,,,,
266,15,Memory,5,,,,,,,sunaaeplwsfslcbtojr.jpg,,,,,,,,,,,,,,,
267,15,Memory,5,,,,,,,sunaalhlvzmjmitybdn.jpg,,,,,,,,,,,,,,,
268,15,Memory,5,,,,,,,sunaiozxhxgtfrmoagh.jpg,,,,,,,,,,,,,,,
269,15,Memory,5,,,,,,,00479940519fa.jpg,,,,,,,,,,,,,,,
270,15,Memory,5,,,,,,,sunagmwxxwymwojbvgi.jpg,,,,,,,,,,,,,,,
271,15,Memory,5,,,,,,,sunaenwuebvlpdmntju.jpg,,,,,,,,,,,,,,,
272,15,Memory,5,,,,,,,sunabxsbfwjccqxxzxq.jpg,,,,,,,,,,,,,,,
273,15,Memory,5,,,,,,,00290940422fa.jpg,,,,,,,,,,,,,,,
274,15,Memory,5,,,,,,,00768941205fa.jpg,,,,,,,,,,,,,,,
275,15,Memory,5,,,,,,,sunaakqepfoeqomfgxf.jpg,,,,,,,,,,,,,,,
276,15,Memory,5,,,,,,,sunadakkdovnuzlycvp.jpg,,,,,,,,,,,,,,,
277,15,Memory,5,,,,,,,00108960530fa.jpg,,,,,,,,,,,,,,,
278,15,Memory,5,,,,,,,00719960620fa.jpg,,,,,,,,,,,,,,,
279,15,Memory,5,,,,,,,00089931230fa.jpg,,,,,,,,,,,,,,,
280,15,Memory,5,,,,,,,00773960620fa.jpg,,,,,,,,,,,,,,,
281,15,Memory,5,,,,,,,00554940519fa.jpg,,,,,,,,,,,,,,,
282,15,Memory,5,,,,,,,sunbddbivbptlrlauhy.jpg,,,,,,,,,,,,,,,
283,15,Memory,5,,,,,,,00838940307fa.jpg,,,,,,,,,,,,,,,
284,15,Memory,5,,,,,,,00589940928fa.jpg,,,,,,,,,,,,,,,
285,15,Memory,5,,,,,,,00124931230fa.jpg,,,,,,,,,,,,,,,
286,15,Memory,5,,,,,,,sunbbegcweqnetpdlrh.jpg,,,,,,,,,,,,,,,
287,15,Memory,5,,,,,,,00971960627fa.jpg,,,,,,,,,,,,,,,
288,15,Memory,5,,,,,,,sunagsiwrmuixqgdimb.jpg,,,,,,,,,,,,,,,
289,15,Memory,5,,,,,,,sunafvsxtzaizojicxx.jpg,,,,,,,,,,,,,,,
290,15,Memory,5,,,,,,,00070940307fa.jpg,,,,,,,,,,,,,,,
291,15,Memory,5,,,,,,,sunaajtnvzzpsjdzres.jpg,,,,,,,,,,,,,,,
292,15,Memory,5,,,,,,,sunadzuvtmtmgupotmf.jpg,,,,,,,,,,,,,,,
293,15,Memory,5,,,,,,,sunacwggadqsfpovdjv.jpg,,,,,,,,,,,,,,,
294,15,Memory,5,,,,,,,00742941201fa.jpg,,,,,,,,,,,,,,,
295,15,Memory,5,,,,,,,sunalkiibhqpxfamlll.jpg,,,,,,,,,,,,,,,
296,15,Memory,5,,,,,,,sunabqowuarvqqcnipn.jpg,,,,,,,,,,,,,,,
297,15,Memory,5,,,,,,,00630941031fa.jpg,,,,,,,,,,,,,,,
298,15,Memory,5,,,,,,,sunaagcpoejbuzyvddd.jpg,,,,,,,,,,,,,,,
299,15,Memory,5,,,,,,,00891960530fa.jpg,,,,,,,,,,,,,,,
300,15,Presentation,6,00819940307fa_sunahqldjibofgsfdgb.jpg,00972960627fa_sunbbfqwjpdxniyhies.jpg,00819940307fa.jpg,sunahqldjibofgsfdgb.jpg,00972960627fa.jpg,sunbbfqwjpdxniyhies.jpg,,,>,Place,,,,,1,,,,,,,x
301,15,Presentation,6,01000960627fa_sunbvzmgrdvaakxusbu.jpg,00960960627fa_sunawksfbacycuhbrsc.jpg,01000960627fa.jpg,sunbvzmgrdvaakxusbu.jpg,00960960627fa.jpg,sunawksfbacycuhbrsc.jpg,,,>,Place,,,,,1,,,,,,,x
302,15,Presentation,6,00543940519fa_sunacepzfrmtkiqonpy.jpg,00214940128fa_sunabbafjowbzcvbucc.jpg,00543940519fa.jpg,sunacepzfrmtkiqonpy.jpg,00214940128fa.jpg,sunabbafjowbzcvbucc.jpg,,,>,Place,,,,,1,,,,,,,x
303,15,Presentation,6,00801941205fa_sunagvprlbprarvgdvj.jpg,00990960627fa_sunbpflsdaxnddnwcqi.jpg,00801941205fa.jpg,sunagvprlbprarvgdvj.jpg,00990960627fa.jpg,sunbpflsdaxnddnwcqi.jpg,,,>,Place,,,,,1,,,,,,,x
304,15,Presentation,6,00914960620fa_sunaozisvwfbmlkfhzv.jpg,00705941205fa_sunadtlxenqqxsyjvix.jpg,00914960620fa.jpg,sunaozisvwfbmlkfhzv.jpg,00705941205fa.jpg,sunadtlxenqqxsyjvix.jpg,,,>,Place,,,,,1,,,,,,,x
305,15,Presentation,6,00895960530fa_sunamczizlzavhzhpay.jpg,00949960627fb_sunasnqkkyhilqkxiqm.jpg,00895960530fa.jpg,sunamczizlzavhzhpay.jpg,00949960627fb.jpg,sunasnqkkyhilqkxiqm.jpg,,,>,Place,,,,,1,,,,,,,o
306,15,Presentation,6,00092931230fa_sunaaheqzstzxuadglu.jpg,00482940519fa_sunabyfxcxhdebvdyfd.jpg,00092931230fa.jpg,sunaaheqzstzxuadglu.jpg,00482940519fa.jpg,sunabyfxcxhdebvdyfd.jpg,,,>,Place,,,,,1,,,,,,,o
307,15,Presentation,6,00080931230fb_sunaafjszryxyavjzln.jpg,00982960627fa_sunbesrwkdsffeogeqq.jpg,00080931230fb.jpg,sunaafjszryxyavjzln.jpg,00982960627fa.jpg,sunbesrwkdsffeogeqq.jpg,,,>,Place,,,,,1,,,,,,,o
308,15,Presentation,6,00746941201fa_sunaetydippjxikifsb.jpg,00893960530Fa_sunaloffvbvysigxent.jpg,00746941201fa.jpg,sunaetydippjxikifsb.jpg,00893960530Fa.jpg,sunaloffvbvysigxent.jpg,,,>,Place,,,,,1,,,,,,,x
309,15,Presentation,6,00559940519fa_sunacjkmnpawfzbyvae.jpg,00306940422fa_sunabueyoajufbkraki.jpg,00559940519fa.jpg,sunacjkmnpawfzbyvae.jpg,00306940422fa.jpg,sunabueyoajufbkraki.jpg,,,>,Place,,,,,1,,,,,,,o
310,15,Memory,6,,,,,,,00819940307fa.jpg,,,,,,,,,,,,,,,
311,15,Memory,6,,,,,,,sunapwjkcxdaeqehfql.jpg,,,,,,,,,,,,,,,
312,15,Memory,6,,,,,,,sunacjkmnpawfzbyvae.jpg,,,,,,,,,,,,,,,
313,15,Memory,6,,,,,,,sunawksfbacycuhbrsc.jpg,,,,,,,,,,,,,,,
314,15,Memory,6,,,,,,,sunbbfqwjpdxniyhies.jpg,,,,,,,,,,,,,,,
315,15,Memory,6,,,,,,,00723941201fa.jpg,,,,,,,,,,,,,,,
316,15,Memory,6,,,,,,,sunbpvgllfdejxcpjqp.jpg,,,,,,,,,,,,,,,
317,15,Memory,6,,,,,,,sunbvzmgrdvaakxusbu.jpg,,,,,,,,,,,,,,,
318,15,Memory,6,,,,,,,01000960627fa.jpg,,,,,,,,,,,,,,,
319,15,Memory,6,,,,,,,sunaloffvbvysigxent.jpg,,,,,,,,,,,,,,,
320,15,Memory,6,,,,,,,00960960627fa.jpg,,,,,,,,,,,,,,,
321,15,Memory,6,,,,,,,sunaetydippjxikifsb.jpg,,,,,,,,,,,,,,,
322,15,Memory,6,,,,,,,00498960627fa.jpg,,,,,,,,,,,,,,,
323,15,Memory,6,,,,,,,00559940519fa.jpg,,,,,,,,,,,,,,,
324,15,Memory,6,,,,,,,sunbesrwkdsffeogeqq.jpg,,,,,,,,,,,,,,,
325,15,Memory,6,,,,,,,sunaedtgwjvvziytspa.jpg,,,,,,,,,,,,,,,
326,15,Memory,6,,,,,,,00112931230fa.jpg,,,,,,,,,,,,,,,
327,15,Memory,6,,,,,,,00193940928fa.jpg,,,,,,,,,,,,,,,
328,15,Memory,6,,,,,,,00306940422fa.jpg,,,,,,,,,,,,,,,
329,15,Memory,6,,,,,,,00972960627fa.jpg,,,,,,,,,,,,,,,
330,15,Memory,6,,,,,,,sunabzjxlmkwnwzimua.jpg,,,,,,,,,,,,,,,
331,15,Memory,6,,,,,,,00746941201fa.jpg,,,,,,,,,,,,,,,
332,15,Memory,6,,,,,,,sunamczizlzavhzhpay.jpg,,,,,,,,,,,,,,,
333,15,Memory,6,,,,,,,sunaakgekhjklxmvulj.jpg,,,,,,,,,,,,,,,
334,15,Memory,6,,,,,,,sunaakjaacuzulqckgl.jpg,,,,,,,,,,,,,,,
335,15,Memory,6,,,,,,,00308940422fb.jpg,,,,,,,,,,,,,,,
336,15,Memory,6,,,,,,,sunagdzlvkqtpnfxfcg.jpg,,,,,,,,,,,,,,,
337,15,Memory,6,,,,,,,00982960627fa.jpg,,,,,,,,,,,,,,,
338,15,Memory,6,,,,,,,00895960530fa.jpg,,,,,,,,,,,,,,,
339,15,Memory,6,,,,,,,sunabwfvcqqidycwypa.jpg,,,,,,,,,,,,,,,
340,15,Memory,6,,,,,,,sunahqldjibofgsfdgb.jpg,,,,,,,,,,,,,,,
341,15,Memory,6,,,,,,,sunaaxjpzcnxligjtjq.jpg,,,,,,,,,,,,,,,
342,15,Memory,6,,,,,,,sunabueyoajufbkraki.jpg,,,,,,,,,,,,,,,
343,15,Memory,6,,,,,,,00933960627fa.jpg,,,,,,,,,,,,,,,
344,15,Memory,6,,,,,,,00893960530Fa.jpg,,,,,,,,,,,,,,,
345,15,Memory,6,,,,,,,00959960627fa.jpg,,,,,,,,,,,,,,,
346,15,Memory,6,,,,,,,00779941205fa.jpg,,,,,,,,,,,,,,,
347,15,Memory,6,,,,,,,sunavxokzybtomhbmvm.jpg,,,,,,,,,,,,,,,
348,15,Memory,6,,,,,,,00996960627fa.jpg,,,,,,,,,,,,,,,
349,15,Memory,6,,,,,,,00111931230fb.jpg,,,,,,,,,,,,,,,
350,15,Presentation,7,00564941031fa_sunacsaovnjezqwbykf.jpg,00548940519fa_sunacerqowiaeoqkmsq.jpg,00564941031fa.jpg,sunacsaovnjezqwbykf.jpg,00548940519fa.jpg,sunacerqowiaeoqkmsq.jpg,,,>,Face,,,,,1,,,,,,,o
351,15,Presentation,7,00142931230fb_sunaapxkpvrhpjplsok.jpg,00065931230fb_sunaaemixhfquhnxxlm.jpg,00142931230fb.jpg,sunaapxkpvrhpjplsok.jpg,00065931230fb.jpg,sunaaemixhfquhnxxlm.jpg,,,>,Face,,,,,1,,,,,,,o
352,15,Presentation,7,00153931230fa_sunaauhozyxzeeqstxi.jpg,00093931230fa_sunaahwnmtqsrhocysw.jpg,00153931230fa.jpg,sunaauhozyxzeeqstxi.jpg,00093931230fa.jpg,sunaahwnmtqsrhocysw.jpg,,,>,Face,,,,,1,,,,,,,o
353,15,Presentation,7,00952960627fa_sunathzzbcwjykldrem.jpg,00906960530fa_sunantryfbloeaomfta.jpg,00952960627fa.jpg,sunathzzbcwjykldrem.jpg,00906960530fa.jpg,sunantryfbloeaomfta.jpg,,,>,Face,,,,,1,,,,,,,o
354,15,Presentation,7,00942960627fa_sunarfdklgdnjgeqfjg.jpg,00887960530_sunalcrtwiycqobgelp.jpg,00942960627fa.jpg,sunarfdklgdnjgeqfjg.jpg,00887960530.jpg,sunalcrtwiycqobgelp.jpg,,,>,Face,,,,,1,,,,,,,x
355,15,Presentation,7,00280940422fb_sunabohxbskznglnrhv.jpg,00780960530fa_sunagetqixeypsysbpn.jpg,00280940422fb.jpg,sunabohxbskznglnrhv.jpg,00780960530fa.jpg,sunagetqixeypsysbpn.jpg,,,>,Face,,,,,1,,,,,,,o
356,15,Presentation,7,00926960627Fa_sunapqwoeotxshkukbh.jpg,00675941121fa_sunadoxcchtmsxewsau.jpg,00926960627Fa.jpg,sunapqwoeotxshkukbh.jpg,00675941121fa.jpg,sunadoxcchtmsxewsau.jpg,,,>,Face,,,,,0,,,,,,,x
357,15,Presentation,7,00922960627fa_sunapqkyghktgtosuuk.jpg,00098931230fa_sunaajpqmulidejvjsr.jpg,00922960627fa.jpg,sunapqkyghktgtosuuk.jpg,00098931230fa.jpg,sunaajpqmulidejvjsr.jpg,,,>,Face,,,,,1,,,,,,,x
358,15,Presentation,7,00908960530fa_sunanwjjyqqwzqrqagd.jpg,00892960530fa_sunalntxqqadigcletd.jpg,00908960530fa.jpg,sunanwjjyqqwzqrqagd.jpg,00892960530fa.jpg,sunalntxqqadigcletd.jpg,,,>,Face,,,,,0,,,,,,,o
359,15,Presentation,7,00635941031fa_sunaddsaeicthrfbkhe.jpg,00947960627fa_sunasmmcxdddtmtazwx.jpg,00635941031fa.jpg,sunaddsaeicthrfbkhe.jpg,00947960627fa.jpg,sunasmmcxdddtmtazwx.jpg,,,>,Face,,,,,1,,,,,,,x
360,15,Memory,7,,,,,,,00794960620fa.jpg,,,,,,,,,,,,,,,
361,15,Memory,7,,,,,,,00898960530fa.jpg,,,,,,,,,,,,,,,
362,15,Memory,7,,,,,,,00098931230fa.jpg,,,,,,,,,,,,,,,
363,15,Memory,7,,,,,,,sunaixpqndlwhwjtjek.jpg,,,,,,,,,,,,,,,
364,15,Memory,7,,,,,,,00142931230fb.jpg,,,,,,,,,,,,,,,
365,15,Memory,7,,,,,,,00184940128fa.jpg,,,,,,,,,,,,,,,
366,15,Memory,7,,,,,,,sunagtqhhwxjeuxdebe.jpg,,,,,,,,,,,,,,,
367,15,Memory,7,,,,,,,00564941031fa.jpg,,,,,,,,,,,,,,,
368,15,Memory,7,,,,,,,sunapqkyghktgtosuuk.jpg,,,,,,,,,,,,,,,
369,15,Memory,7,,,,,,,sunapqwoeotxshkukbh.jpg,,,,,,,,,,,,,,,
370,15,Memory,7,,,,,,,00892960530fa.jpg,,,,,,,,,,,,,,,
371,15,Memory,7,,,,,,,00791941205fa.jpg,,,,,,,,,,,,,,,
372,15,Memory,7,,,,,,,00077931230fb.jpg,,,,,,,,,,,,,,,
373,15,Memory,7,,,,,,,01010960627fa.jpg,,,,,,,,,,,,,,,
374,15,Memory,7,,,,,,,sunacsaovnjezqwbykf.jpg,,,,,,,,,,,,,,,
375,15,Memory,7,,,,,,,00908960530fa.jpg,,,,,,,,,,,,,,,
376,15,Memory,7,,,,,,,00130931230fa.jpg,,,,,,,,,,,,,,,
377,15,Memory,7,,,,,,,suncnkvbhypnivcohyx.jpg,,,,,,,,,,,,,,,
378,15,Memory,7,,,,,,,sunanwjjyqqwzqrqagd.jpg,,,,,,,,,,,,,,,
379,15,Memory,7,,,,,,,sunaafgqutfaishsxyu.jpg,,,,,,,,,,,,,,,
380,15,Memory,7,,,,,,,00906960530fa.jpg,,,,,,,,,,,,,,,
381,15,Memory,7,,,,,,,sunalntxqqadigcletd.jpg,,,,,,,,,,,,,,,
382,15,Memory,7,,,,,,,sunaavtbadenwnzeutj.jpg,,,,,,,,,,,,,,,
383,15,Memory,7,,,,,,,sunagrmyoovzukhxmlo.jpg,,,,,,,,,,,,,,,
384,15,Memory,7,,,,,,,00926960627Fa.jpg,,,,,,,,,,,,,,,
385,15,Memory,7,,,,,,,00858940307fa.jpg,,,,,,,,,,,,,,,
386,15,Memory,7,,,,,,,00922960627fa.jpg,,,,,,,,,,,,,,,
387,15,Memory,7,,,,,,,sunantryfbloeaomfta.jpg,,,,,,,,,,,,,,,
388,15,Memory,7,,,,,,,sunaamvxnvouicstkjb.jpg,,,,,,,,,,,,,,,
389,15,Memory,7,,,,,,,sunasmmcxdddtmtazwx.jpg,,,,,,,,,,,,,,,
390,15,Memory,7,,,,,,,00947960627fa.jpg,,,,,,,,,,,,,,,
391,15,Memory,7,,,,,,,00263940128fb.jpg,,,,,,,,,,,,,,,
392,15,Memory,7,,,,,,,sunaatpeezlljqaxlhj.jpg,,,,,,,,,,,,,,,
393,15,Memory,7,,,,,,,sunabjuovqvyfuzvqwt.jpg,,,,,,,,,,,,,,,
394,15,Memory,7,,,,,,,00146960620fb.jpg,,,,,,,,,,,,,,,
395,15,Memory,7,,,,,,,sunalcrtwiycqobgelp.jpg,,,,,,,,,,,,,,,
396,15,Memory,7,,,,,,,sunaajpqmulidejvjsr.jpg,,,,,,,,,,,,,,,
397,15,Memory,7,,,,,,,00887960530.jpg,,,,,,,,,,,,,,,
398,15,Memory,7,,,,,,,sunamkmeblgteyggink.jpg,,,,,,,,,,,,,,,
399,15,Memory,7,,,,,,,sunaapxkpvrhpjplsok.jpg,,,,,,,,,,,,,,,
