,Subject,Trial Type,Run,Cued Composite,Uncued Composite,Cued Face,Cued Place,Uncued Face,Uncued Place,Memory Image,Category,Cued Side,Cued Category,Attention Reaction Time (s),Familiarity Reaction Time (s),Familiarity Rating,Attention Level,Cue Validity,Post Invalid Cue,Pre Invalid Cue,Attention Button,Rating History,Stimulus Onset,Stimulus End,Attention Probe
210,7,Memory,4,,,,,,,sunahctntqrunhdxhtb.jpg,,,,,1.471,1.0,,,,,,,1538573686.851458,1538573689.235635,
211,7,Memory,4,,,,,,,sunalntxqqadigcletd.jpg,,,,,1.538,3.0,,,,,,,1538573690.586756,1538573693.088029,
212,7,Memory,4,,,,,,,00926960627Fa.jpg,,,,,1.187,2.0,,,,,,,1538573694.521225,1538573696.83699,
213,7,Memory,4,,,,,,,00700941121fa.jpg,,,,,1.034,1.0,,,,,,,1538573698.272158,1538573700.672105,
214,7,Memory,4,,,,,,,00663941121fa.jpg,,,,,0.753,1.0,,,,,,,1538573702.089248,1538573704.541487,
215,7,Memory,4,,,,,,,sunbwtlihsuptkrckid.jpg,,,,,1.387,4.0,,,,,,,1538573706.041401,1538573708.558832,
216,7,Memory,4,,,,,,,00296940422fa.jpg,,,,,0.921,2.0,,,,,,,1538573709.959043,1538573712.276466,
217,7,Memory,4,,,,,,,sunagtjwilqjvxohypn.jpg,,,,,1.0,1.0,,,,,,,1538573713.677908,1538573715.961011,
218,7,Memory,4,,,,,,,sunagdzlvkqtpnfxfcg.jpg,,,,,1.221,1.0,,,,,,,1538573717.395654,1538573719.795828,
219,7,Memory,4,,,,,,,00810941205fa.jpg,,,,,1.136,1.0,,,,,,,1538573721.196056,1538573723.546751,
220,7,Memory,4,,,,,,,sunbpflsdaxnddnwcqi.jpg,,,,,1.086,1.0,,,,,,,1538573725.047714,1538573727.481475,
221,7,Memory,4,,,,,,,00153931230fa.jpg,,,,,1.204,2.0,,,,,,,1538573728.865009,1538573731.33267,
222,7,Memory,4,,,,,,,00892960530fa.jpg,,,,,0.82,1.0,,,,,,,1538573732.69954,1538573735.233441,
223,7,Memory,4,,,,,,,sunbbxkanhzjgbwyxqs.jpg,,,,,1.636,3.0,,,,,,,1538573736.650309,1538573739.035764,
224,7,Memory,4,,,,,,,00133931230fa.jpg,,,,,0.884,1.0,,,,,,,1538573740.485382,1538573743.036547,
225,7,Memory,4,,,,,,,sunadbhmrgrrpyzglxs.jpg,,,,,1.2,1.0,,,,,,,1538573744.403838,1538573746.820914,
226,7,Memory,4,,,,,,,sunaezuszgtxnmsxdbk.jpg,,,,,1.02,2.0,,,,,,,1538573748.189045,1538573750.537577,
227,7,Memory,4,,,,,,,00779941205fa.jpg,,,,,0.769,1.0,,,,,,,1538573751.937804,1538573754.290399,
228,7,Memory,4,,,,,,,00990960627fa.jpg,,,,,0.687,2.0,,,,,,,1538573755.807076,1538573758.174547,
229,7,Memory,4,,,,,,,sunabrwnslxalcohfre.jpg,,,,,0.786,1.0,,,,,,,1538573759.625289,1538573762.041831,
230,7,Memory,4,,,,,,,sunapqwoeotxshkukbh.jpg,,,,,0.788,4.0,,,,,,,1538573763.410336,1538573765.994512,
231,7,Memory,4,,,,,,,sunabwjvmoaddlyxfjr.jpg,,,,,0.855,4.0,,,,,,,1538573767.478246,1538573769.845494,
232,7,Memory,4,,,,,,,00564941031fa.jpg,,,,,0.902,2.0,,,,,,,1538573771.279303,1538573773.84712,
233,7,Memory,4,,,,,,,01004960627fa.jpg,,,,,1.52,3.0,,,,,,,1538573775.296316,1538573777.815456,
234,7,Memory,4,,,,,,,sunadnjjzohjhbohlwq.jpg,,,,,1.185,3.0,,,,,,,1538573779.23145,1538573781.698737,
235,7,Memory,4,,,,,,,sunapqkpqdfvxlbqwyo.jpg,,,,,1.719,2.0,,,,,,,1538573783.0659,1538573785.500531,
236,7,Memory,4,,,,,,,sunadsgmtznewzyasnk.jpg,,,,,1.018,1.0,,,,,,,1538573786.900038,1538573789.285204,
237,7,Memory,4,,,,,,,sunaauhozyxzeeqstxi.jpg,,,,,0.903,1.0,,,,,,,1538573790.717849,1538573793.035507,
238,7,Memory,4,,,,,,,00747941201fa.jpg,,,,,0.753,2.0,,,,,,,1538573794.403363,1538573796.786828,
239,7,Memory,4,,,,,,,00921960627fa.jpg,,,,,0.753,1.0,,,,,,,1538573798.220889,1538573800.605403,
240,7,Memory,4,,,,,,,00633940928fa.jpg,,,,,1.256,1.0,,,,,,,1538573801.988892,1538573804.322744,
241,7,Memory,4,,,,,,,sunaanlwnpqndclffxt.jpg,,,,,0.851,1.0,,,,,,,1538573805.722847,1538573808.240482,
242,7,Memory,4,,,,,,,sunapileznnbbmrwoei.jpg,,,,,0.736,1.0,,,,,,,1538573809.658237,1538573811.940724,
243,7,Memory,4,,,,,,,00751960620fa.jpg,,,,,0.736,1.0,,,,,,,1538573813.342622,1538573815.860206,
244,7,Memory,4,,,,,,,sunacsaovnjezqwbykf.jpg,,,,,0.871,1.0,,,,,,,1538573817.309201,1538573819.810375,
245,7,Memory,4,,,,,,,00915960620fa.jpg,,,,,0.0,,,,,,,,1538573821.277931,1538573823.712714,
246,7,Memory,4,,,,,,,sunaeutbrtswvsozxyk.jpg,,,,,1.319,3.0,,,,,,,1538573825.112994,1538573827.663776,
247,7,Memory,4,,,,,,,00977960627fa.jpg,,,,,1.069,1.0,,,,,,,1538573829.063567,1538573831.430626,
248,7,Memory,4,,,,,,,00313940422fa.jpg,,,,,0.804,2.0,,,,,,,1538573832.881459,1538573835.1656,
249,7,Memory,4,,,,,,,00793941205fa.jpg,,,,,0.886,1.0,,,,,,,1538573836.549404,1538573839.034591,
