,Subject,Trial Type,Run,Cued Composite,Uncued Composite,Cued Face,Cued Place,Uncued Face,Uncued Place,Memory Image,Category,Cued Side,Cued Category,Attention Response Time (s),Familiarity Reaction Time (s),Familiarity Rating,Attention Level,Cue Validity,Post Invalid Cue,Pre Invalid Cue,Attention Button,Rating History,Stimulus Onset,Stimulus End,Attention Probe
0,14,Presentation,0,00893960530Fa_sunaloffvbvysigxent.jpg,00747941201fa_sunaeutbrtswvsozxyk.jpg,,,,,,,>,Face,,,,,1,,,,,,,x
1,14,Presentation,0,00218940128fa_sunabbwggenhfbftyvi.jpg,00760960620fa_sunaffstbkappprzxnv.jpg,,,,,,,>,Place,,,,,0,,,,,,,x
2,14,Presentation,0,00060931230fa_sunaaehaikpckyjsety.jpg,00096931230fa_sunaaiqiqcggrskoqgy.jpg,,,,,,,<,Face,,,,,1,,,,,,,x
3,14,Presentation,0,00768941205fa_sunafkmnlytenlsywia.jpg,00854940307fa_sunaiwduelojtwaqeyh.jpg,,,,,,,>,Face,,,,,1,,,,,,,o
4,14,Presentation,0,00741941201fa_sunaemcowdozyphwknd.jpg,00780960530fa_sunagetqixeypsysbpn.jpg,,,,,,,<,Place,,,,,1,,,,,,,x
5,14,Presentation,0,00146960620fb_sunaatpeezlljqaxlhj.jpg,00778941205fa_sunagcthdfirrcawoic.jpg,,,,,,,>,Face,,,,,1,,,,,,,o
6,14,Presentation,0,00903960620fa_sunanainkqdvktzoxyl.jpg,00871940307_sunajrujcsdxmfbssmc.jpg,,,,,,,<,Place,,,,,1,,,,,,,o
7,14,Presentation,0,00598940928fa_sunacxeheuiigkcgquf.jpg,00479940519fa_sunabxsbfwjccqxxzxq.jpg,,,,,,,>,Place,,,,,1,,,,,,,o
8,14,Presentation,0,00857940307fa_sunaiwfobocrruqznsv.jpg,00922960627fa_sunapqkyghktgtosuuk.jpg,,,,,,,<,Place,,,,,1,,,,,,,x
9,14,Presentation,0,00839940307fa_sunaipyohrqlwngaqif.jpg,00779941205fa_sunagdzlvkqtpnfxfcg.jpg,,,,,,,<,Face,,,,,1,,,,,,,x
10,14,Memory,0,,,,,,,00263940128fb.jpg,,,,,,,,,,,,,,,
11,14,Memory,0,,,,,,,sunaofikylqtxphvdem.jpg,,,,,,,,,,,,,,,
12,14,Memory,0,,,,,,,00871940307.jpg,,,,,,,,,,,,,,,
13,14,Memory,0,,,,,,,00598940928fa.jpg,,,,,,,,,,,,,,,
14,14,Memory,0,,,,,,,sunapqkyghktgtosuuk.jpg,,,,,,,,,,,,,,,
15,14,Memory,0,,,,,,,00093931230fa.jpg,,,,,,,,,,,,,,,
16,14,Memory,0,,,,,,,sunabxsbfwjccqxxzxq.jpg,,,,,,,,,,,,,,,
17,14,Memory,0,,,,,,,00096931230fa.jpg,,,,,,,,,,,,,,,
18,14,Memory,0,,,,,,,sunaivdylrawbmhryfp.jpg,,,,,,,,,,,,,,,
19,14,Memory,0,,,,,,,sunacxeheuiigkcgquf.jpg,,,,,,,,,,,,,,,
20,14,Memory,0,,,,,,,00911960530fa.jpg,,,,,,,,,,,,,,,
21,14,Memory,0,,,,,,,sunaapllqyqlykszopd.jpg,,,,,,,,,,,,,,,
22,14,Memory,0,,,,,,,00482940519fa.jpg,,,,,,,,,,,,,,,
23,14,Memory,0,,,,,,,00574940928fa.jpg,,,,,,,,,,,,,,,
24,14,Memory,0,,,,,,,sunafkmnlytenlsywia.jpg,,,,,,,,,,,,,,,
25,14,Memory,0,,,,,,,sunbpvgllfdejxcpjqp.jpg,,,,,,,,,,,,,,,
26,14,Memory,0,,,,,,,sunajrujcsdxmfbssmc.jpg,,,,,,,,,,,,,,,
27,14,Memory,0,,,,,,,00893960530Fa.jpg,,,,,,,,,,,,,,,
28,14,Memory,0,,,,,,,sunaloffvbvysigxent.jpg,,,,,,,,,,,,,,,
29,14,Memory,0,,,,,,,sunanainkqdvktzoxyl.jpg,,,,,,,,,,,,,,,
30,14,Memory,0,,,,,,,00922960627fa.jpg,,,,,,,,,,,,,,,
31,14,Memory,0,,,,,,,sunaiwfobocrruqznsv.jpg,,,,,,,,,,,,,,,
32,14,Memory,0,,,,,,,00479940519fa.jpg,,,,,,,,,,,,,,,
33,14,Memory,0,,,,,,,sunabyfxcxhdebvdyfd.jpg,,,,,,,,,,,,,,,
34,14,Memory,0,,,,,,,00857940307fa.jpg,,,,,,,,,,,,,,,
35,14,Memory,0,,,,,,,sunabjuovqvyfuzvqwt.jpg,,,,,,,,,,,,,,,
36,14,Memory,0,,,,,,,00848940307fa.jpg,,,,,,,,,,,,,,,
37,14,Memory,0,,,,,,,00140931230fb.jpg,,,,,,,,,,,,,,,
38,14,Memory,0,,,,,,,sunaaiqiqcggrskoqgy.jpg,,,,,,,,,,,,,,,
39,14,Memory,0,,,,,,,sunacvbrcejzwmcgnoq.jpg,,,,,,,,,,,,,,,
40,14,Memory,0,,,,,,,00778941205fa.jpg,,,,,,,,,,,,,,,
41,14,Memory,0,,,,,,,00910960530fa.jpg,,,,,,,,,,,,,,,
42,14,Memory,0,,,,,,,sunaooaqzputrowwbsw.jpg,,,,,,,,,,,,,,,
43,14,Memory,0,,,,,,,00996960627fa.jpg,,,,,,,,,,,,,,,
44,14,Memory,0,,,,,,,00903960620fa.jpg,,,,,,,,,,,,,,,
45,14,Memory,0,,,,,,,sunaahwnmtqsrhocysw.jpg,,,,,,,,,,,,,,,
46,14,Memory,0,,,,,,,00768941205fa.jpg,,,,,,,,,,,,,,,
47,14,Memory,0,,,,,,,00260940128fa.jpg,,,,,,,,,,,,,,,
48,14,Memory,0,,,,,,,sunagcthdfirrcawoic.jpg,,,,,,,,,,,,,,,
49,14,Memory,0,,,,,,,sunabgfhvifeijihhjw.jpg,,,,,,,,,,,,,,,
50,14,Presentation,1,00966960627fa_sunaygrtwrwfezqjizr.jpg,00809960620fa_sunahbvlpavurqoxdeq.jpg,,,,,,,>,Place,,,,,1,,,,,,,o
51,14,Presentation,1,00235940128fb_sunabclssnoeuigtawp.jpg,00529940519fa_sunacbeefkxpymwevpk.jpg,,,,,,,<,Face,,,,,1,,,,,,,o
52,14,Presentation,1,00943960627fa_sunarpsxqkduedrrzyi.jpg,00705941205fa_sunadtlxenqqxsyjvix.jpg,,,,,,,>,Place,,,,,1,,,,,,,o
53,14,Presentation,1,00562941031fa_sunacjnahdmqfnjfwqx.jpg,00801941205fa_sunagvprlbprarvgdvj.jpg,,,,,,,<,Place,,,,,1,,,,,,,x
54,14,Presentation,1,00957960627fa_sunavhxgmgrqsaptynb.jpg,00638941031fa_sunadfktsqjthoglcsm.jpg,,,,,,,>,Place,,,,,1,,,,,,,x
55,14,Presentation,1,00812941205fa_sunahgtbwgsmtqeodwh.jpg,00937960627fa_sunaqsolmfydodnakub.jpg,,,,,,,<,Face,,,,,1,,,,,,,o
56,14,Presentation,1,00101931230fb_sunaajqmsaavkmgbsth.jpg,00909960530_sunaobtizabegtwfwul.jpg,,,,,,,>,Face,,,,,1,,,,,,,o
57,14,Presentation,1,00245940128fa_sunabeyhmxodahoieyk.jpg,00214940128fa_sunabbafjowbzcvbucc.jpg,,,,,,,<,Face,,,,,0,,,,,,,x
58,14,Presentation,1,00993960627fa_sunbprywzqxjcezkbch.jpg,00090931230fa_sunaahedjlmtqekgyvj.jpg,,,,,,,<,Place,,,,,1,,,,,,,x
59,14,Presentation,1,00198940128fb_sunaazezcsunmhttzxz.jpg,00866940307fa_sunajbwkywmsqkldfml.jpg,,,,,,,>,Face,,,,,1,,,,,,,o
60,14,Memory,1,,,,,,,sunbwdrdvsweerwsdrj.jpg,,,,,,,,,,,,,,,
61,14,Memory,1,,,,,,,00292940422fb.jpg,,,,,,,,,,,,,,,
62,14,Memory,1,,,,,,,sunabrjdpmoedcdjbpo.jpg,,,,,,,,,,,,,,,
63,14,Memory,1,,,,,,,sunabkmdplkdbvxriff.jpg,,,,,,,,,,,,,,,
64,14,Memory,1,,,,,,,sunaaeowapdkwzqpgqr.jpg,,,,,,,,,,,,,,,
65,14,Memory,1,,,,,,,00866940307fa.jpg,,,,,,,,,,,,,,,
66,14,Memory,1,,,,,,,sunadtlxenqqxsyjvix.jpg,,,,,,,,,,,,,,,
67,14,Memory,1,,,,,,,00080931230fb.jpg,,,,,,,,,,,,,,,
68,14,Memory,1,,,,,,,sunacbeefkxpymwevpk.jpg,,,,,,,,,,,,,,,
69,14,Memory,1,,,,,,,sunaazezcsunmhttzxz.jpg,,,,,,,,,,,,,,,
70,14,Memory,1,,,,,,,sunaqsolmfydodnakub.jpg,,,,,,,,,,,,,,,
71,14,Memory,1,,,,,,,00529940519fa.jpg,,,,,,,,,,,,,,,
72,14,Memory,1,,,,,,,sunarpsxqkduedrrzyi.jpg,,,,,,,,,,,,,,,
73,14,Memory,1,,,,,,,sunafbwnojpqeyzssoe.jpg,,,,,,,,,,,,,,,
74,14,Memory,1,,,,,,,00562941031fa.jpg,,,,,,,,,,,,,,,
75,14,Memory,1,,,,,,,00809960620fa.jpg,,,,,,,,,,,,,,,
76,14,Memory,1,,,,,,,00069931230fb.jpg,,,,,,,,,,,,,,,
77,14,Memory,1,,,,,,,sunaajuzribjrizdshh.jpg,,,,,,,,,,,,,,,
78,14,Memory,1,,,,,,,00132931230fb.jpg,,,,,,,,,,,,,,,
79,14,Memory,1,,,,,,,sunaflojskatpeqyzqp.jpg,,,,,,,,,,,,,,,
80,14,Memory,1,,,,,,,01003960627fb.jpg,,,,,,,,,,,,,,,
81,14,Memory,1,,,,,,,sunahbvlpavurqoxdeq.jpg,,,,,,,,,,,,,,,
82,14,Memory,1,,,,,,,00812941205fa.jpg,,,,,,,,,,,,,,,
83,14,Memory,1,,,,,,,00235940128fb.jpg,,,,,,,,,,,,,,,
84,14,Memory,1,,,,,,,sunabclssnoeuigtawp.jpg,,,,,,,,,,,,,,,
85,14,Memory,1,,,,,,,sunacjnahdmqfnjfwqx.jpg,,,,,,,,,,,,,,,
86,14,Memory,1,,,,,,,00943960627fa.jpg,,,,,,,,,,,,,,,
87,14,Memory,1,,,,,,,00937960627fa.jpg,,,,,,,,,,,,,,,
88,14,Memory,1,,,,,,,00770941201fa.jpg,,,,,,,,,,,,,,,
89,14,Memory,1,,,,,,,00109931230fa.jpg,,,,,,,,,,,,,,,
90,14,Memory,1,,,,,,,sunahgtbwgsmtqeodwh.jpg,,,,,,,,,,,,,,,
91,14,Memory,1,,,,,,,sunaafjszryxyavjzln.jpg,,,,,,,,,,,,,,,
92,14,Memory,1,,,,,,,00265940128fb.jpg,,,,,,,,,,,,,,,
93,14,Memory,1,,,,,,,sunajbwkywmsqkldfml.jpg,,,,,,,,,,,,,,,
94,14,Memory,1,,,,,,,00198940128fb.jpg,,,,,,,,,,,,,,,
95,14,Memory,1,,,,,,,00752960620fa.jpg,,,,,,,,,,,,,,,
96,14,Memory,1,,,,,,,00705941205fa.jpg,,,,,,,,,,,,,,,
97,14,Memory,1,,,,,,,00772941201fa.jpg,,,,,,,,,,,,,,,
98,14,Memory,1,,,,,,,sunaanjcbzdvtvblsdy.jpg,,,,,,,,,,,,,,,
99,14,Memory,1,,,,,,,sunafpfpiiujzoesnqg.jpg,,,,,,,,,,,,,,,
100,14,Presentation,2,00914960620fa_sunaozisvwfbmlkfhzv.jpg,00761960627fa_sunafgdqbclkwfocdhg.jpg,,,,,,,>,Face,,,,,1,,,,,,,x
101,14,Presentation,2,00305940422fa_sunabtrnbvpppgczjim.jpg,00805941205fa_sunagwzdbtlixdhgolm.jpg,,,,,,,<,Face,,,,,1,,,,,,,x
102,14,Presentation,2,00648941031fa_sunadfndyrtqqiasoig.jpg,00076931230fa_sunaafewhewbxmjiurz.jpg,,,,,,,<,Place,,,,,1,,,,,,,o
103,14,Presentation,2,00800941205fb_sunagvjurcwdbixvnyi.jpg,00947960627fa_sunasmmcxdddtmtazwx.jpg,,,,,,,>,Face,,,,,1,,,,,,,o
104,14,Presentation,2,00969960627fa_sunbaoizrfijvhpnnjn.jpg,00145931230fb_sunaatjesvdupctftmn.jpg,,,,,,,>,Place,,,,,1,,,,,,,x
105,14,Presentation,2,00742941201fa_sunaenwuebvlpdmntju.jpg,00749941201fa_sunaeuvjbmdpknaqqaj.jpg,,,,,,,<,Face,,,,,0,,,,,,,o
106,14,Presentation,2,00559940519fa_sunacjkmnpawfzbyvae.jpg,00111931230fb_sunaakgekhjklxmvulj.jpg,,,,,,,>,Place,,,,,1,,,,,,,x
107,14,Presentation,2,00294940422fb_sunabrlndkruqokhury.jpg,00766960620fa_sunafijbgncijwykrnl.jpg,,,,,,,<,Face,,,,,1,,,,,,,x
108,14,Presentation,2,00810941205fa_sunahctntqrunhdxhtb.jpg,00895960530fa_sunamczizlzavhzhpay.jpg,,,,,,,<,Place,,,,,1,,,,,,,x
109,14,Presentation,2,00719941201fa_sunadvithllcgmfxsrn.jpg,00270940422fb_sunabllobxadqcyttej.jpg,,,,,,,>,Place,,,,,1,,,,,,,o
110,14,Memory,2,,,,,,,00162931230fb.jpg,,,,,,,,,,,,,,,
111,14,Memory,2,,,,,,,00800941205fb.jpg,,,,,,,,,,,,,,,
112,14,Memory,2,,,,,,,sunagtjwilqjvxohypn.jpg,,,,,,,,,,,,,,,
113,14,Memory,2,,,,,,,sunabrlndkruqokhury.jpg,,,,,,,,,,,,,,,
114,14,Memory,2,,,,,,,00076931230fa.jpg,,,,,,,,,,,,,,,
115,14,Memory,2,,,,,,,sunagwzdbtlixdhgolm.jpg,,,,,,,,,,,,,,,
116,14,Memory,2,,,,,,,sunagvjurcwdbixvnyi.jpg,,,,,,,,,,,,,,,
117,14,Memory,2,,,,,,,sunaetydippjxikifsb.jpg,,,,,,,,,,,,,,,
118,14,Memory,2,,,,,,,00746941201fa.jpg,,,,,,,,,,,,,,,
119,14,Memory,2,,,,,,,00559940519fa.jpg,,,,,,,,,,,,,,,
120,14,Memory,2,,,,,,,00901960530fa.jpg,,,,,,,,,,,,,,,
121,14,Memory,2,,,,,,,00749941201fa.jpg,,,,,,,,,,,,,,,
122,14,Memory,2,,,,,,,sunammbnoambmhdxdwd.jpg,,,,,,,,,,,,,,,
123,14,Memory,2,,,,,,,00931960627fa.jpg,,,,,,,,,,,,,,,
124,14,Memory,2,,,,,,,00149931230fa.jpg,,,,,,,,,,,,,,,
125,14,Memory,2,,,,,,,00124931230fa.jpg,,,,,,,,,,,,,,,
126,14,Memory,2,,,,,,,00648941031fa.jpg,,,,,,,,,,,,,,,
127,14,Memory,2,,,,,,,sunaavjinpnkappuonm.jpg,,,,,,,,,,,,,,,
128,14,Memory,2,,,,,,,00136931230fb.jpg,,,,,,,,,,,,,,,
129,14,Memory,2,,,,,,,00294940422fb.jpg,,,,,,,,,,,,,,,
130,14,Memory,2,,,,,,,00270940422fb.jpg,,,,,,,,,,,,,,,
131,14,Memory,2,,,,,,,sunaalhlvzmjmitybdn.jpg,,,,,,,,,,,,,,,
132,14,Memory,2,,,,,,,sunaozisvwfbmlkfhzv.jpg,,,,,,,,,,,,,,,
133,14,Memory,2,,,,,,,sunacycdoztxoluxjyk.jpg,,,,,,,,,,,,,,,
134,14,Memory,2,,,,,,,00914960620fa.jpg,,,,,,,,,,,,,,,
135,14,Memory,2,,,,,,,00895960530fa.jpg,,,,,,,,,,,,,,,
136,14,Memory,2,,,,,,,sunacjkmnpawfzbyvae.jpg,,,,,,,,,,,,,,,
137,14,Memory,2,,,,,,,sunaptrqvaooxfvktvw.jpg,,,,,,,,,,,,,,,
138,14,Memory,2,,,,,,,sunadfndyrtqqiasoig.jpg,,,,,,,,,,,,,,,
139,14,Memory,2,,,,,,,sunaeuvjbmdpknaqqaj.jpg,,,,,,,,,,,,,,,
140,14,Memory,2,,,,,,,sunaanptmsknhirrzed.jpg,,,,,,,,,,,,,,,
141,14,Memory,2,,,,,,,sunaafewhewbxmjiurz.jpg,,,,,,,,,,,,,,,
142,14,Memory,2,,,,,,,00793941205fa.jpg,,,,,,,,,,,,,,,
143,14,Memory,2,,,,,,,00805941205fa.jpg,,,,,,,,,,,,,,,
144,14,Memory,2,,,,,,,sunamczizlzavhzhpay.jpg,,,,,,,,,,,,,,,
145,14,Memory,2,,,,,,,00116931230fa.jpg,,,,,,,,,,,,,,,
146,14,Memory,2,,,,,,,sunabllobxadqcyttej.jpg,,,,,,,,,,,,,,,
147,14,Memory,2,,,,,,,sunaauglwmctnkxyird.jpg,,,,,,,,,,,,,,,
148,14,Memory,2,,,,,,,00609940928fa.jpg,,,,,,,,,,,,,,,
149,14,Memory,2,,,,,,,sunaakqepfoeqomfgxf.jpg,,,,,,,,,,,,,,,
150,14,Presentation,3,00858940307fa_sunaixpqndlwhwjtjek.jpg,00999960627fa_sunbvbrvgbpanfrawft.jpg,,,,,,,>,Face,,,,,1,,,,,,,x
151,14,Presentation,3,01011960627fa_sundahdxwmcdluscvot.jpg,00788941205fa_sunagountlxpzkytsmp.jpg,,,,,,,<,Face,,,,,1,,,,,,,x
152,14,Presentation,3,00634940928fa_sunadcphrizvfpljiqt.jpg,00681941121fa_sunadqmjrhfjyuzyvdd.jpg,,,,,,,<,Place,,,,,0,,,,,,,x
153,14,Presentation,3,00819940307fa_sunahqldjibofgsfdgb.jpg,00571940928fa_sunacuatpqpqhyjhjqk.jpg,,,,,,,>,Place,,,,,1,,,,,,,o
154,14,Presentation,3,00744941201fa_sunaeomlfaabhpswasy.jpg,00794960620fa_sunagtqhhwxjeuxdebe.jpg,,,,,,,<,Place,,,,,1,,,,,,,x
155,14,Presentation,3,00705960530fa_sunaduslxfzlbxlllnz.jpg,00870940307fa_sunajrgtewnualfcerj.jpg,,,,,,,<,Face,,,,,1,,,,,,,x
156,14,Presentation,3,00675941121fa_sunadoxcchtmsxewsau.jpg,00773960620fa_sunafvsxtzaizojicxx.jpg,,,,,,,>,Place,,,,,1,,,,,,,o
157,14,Presentation,3,00977960627fa_sunbbxkanhzjgbwyxqs.jpg,00227940128fa_sunabckqabszusgcykj.jpg,,,,,,,<,Face,,,,,1,,,,,,,x
158,14,Presentation,3,01005960627fa_sunbwyuesflwdpqtgoy.jpg,00119931230fb_sunaakvmbftkrgqhjun.jpg,,,,,,,>,Face,,,,,1,,,,,,,x
159,14,Presentation,3,00753941201fa_sunafcofuuzebuadceo.jpg,00827940307fa_sunahtfxgsrmkiulnwk.jpg,,,,,,,>,Place,,,,,1,,,,,,,x
160,14,Memory,3,,,,,,,00986960627fa.jpg,,,,,,,,,,,,,,,
161,14,Memory,3,,,,,,,00753941201fa.jpg,,,,,,,,,,,,,,,
162,14,Memory,3,,,,,,,00819940307fa.jpg,,,,,,,,,,,,,,,
163,14,Memory,3,,,,,,,00647941031fa.jpg,,,,,,,,,,,,,,,
164,14,Memory,3,,,,,,,00142931230fb.jpg,,,,,,,,,,,,,,,
165,14,Memory,3,,,,,,,sunbgzjryivyczuvkvm.jpg,,,,,,,,,,,,,,,
166,14,Memory,3,,,,,,,sunafvsxtzaizojicxx.jpg,,,,,,,,,,,,,,,
167,14,Memory,3,,,,,,,sunaduslxfzlbxlllnz.jpg,,,,,,,,,,,,,,,
168,14,Memory,3,,,,,,,sunavspxmxubqaeidjt.jpg,,,,,,,,,,,,,,,
169,14,Memory,3,,,,,,,00262940128fa.jpg,,,,,,,,,,,,,,,
170,14,Memory,3,,,,,,,00221940128fa.jpg,,,,,,,,,,,,,,,
171,14,Memory,3,,,,,,,sunbbegcweqnetpdlrh.jpg,,,,,,,,,,,,,,,
172,14,Memory,3,,,,,,,sunabcfpwlpolnutyju.jpg,,,,,,,,,,,,,,,
173,14,Memory,3,,,,,,,sunbvbrvgbpanfrawft.jpg,,,,,,,,,,,,,,,
174,14,Memory,3,,,,,,,00838940307fa.jpg,,,,,,,,,,,,,,,
175,14,Memory,3,,,,,,,00744941201fa.jpg,,,,,,,,,,,,,,,
176,14,Memory,3,,,,,,,sunaafynehyrzpsoaml.jpg,,,,,,,,,,,,,,,
177,14,Memory,3,,,,,,,sunaapxkpvrhpjplsok.jpg,,,,,,,,,,,,,,,
178,14,Memory,3,,,,,,,00999960627fa.jpg,,,,,,,,,,,,,,,
179,14,Memory,3,,,,,,,sunadflbrkckmepztql.jpg,,,,,,,,,,,,,,,
180,14,Memory,3,,,,,,,00870940307fa.jpg,,,,,,,,,,,,,,,
181,14,Memory,3,,,,,,,00086931230fa.jpg,,,,,,,,,,,,,,,
182,14,Memory,3,,,,,,,00773960620fa.jpg,,,,,,,,,,,,,,,
183,14,Memory,3,,,,,,,01005960627fa.jpg,,,,,,,,,,,,,,,
184,14,Memory,3,,,,,,,00971960627fa.jpg,,,,,,,,,,,,,,,
185,14,Memory,3,,,,,,,sunaakvmbftkrgqhjun.jpg,,,,,,,,,,,,,,,
186,14,Memory,3,,,,,,,sunagtqhhwxjeuxdebe.jpg,,,,,,,,,,,,,,,
187,14,Memory,3,,,,,,,00598941031fa.jpg,,,,,,,,,,,,,,,
188,14,Memory,3,,,,,,,sunajrgtewnualfcerj.jpg,,,,,,,,,,,,,,,
189,14,Memory,3,,,,,,,sunaiozxhxgtfrmoagh.jpg,,,,,,,,,,,,,,,
190,14,Memory,3,,,,,,,sunaeomlfaabhpswasy.jpg,,,,,,,,,,,,,,,
191,14,Memory,3,,,,,,,sunabizydfotqddlnjp.jpg,,,,,,,,,,,,,,,
192,14,Memory,3,,,,,,,00958960627fa.jpg,,,,,,,,,,,,,,,
193,14,Memory,3,,,,,,,sunahqldjibofgsfdgb.jpg,,,,,,,,,,,,,,,
194,14,Memory,3,,,,,,,00119931230fb.jpg,,,,,,,,,,,,,,,
195,14,Memory,3,,,,,,,00705960530fa.jpg,,,,,,,,,,,,,,,
196,14,Memory,3,,,,,,,sunbwyuesflwdpqtgoy.jpg,,,,,,,,,,,,,,,
197,14,Memory,3,,,,,,,00794960620fa.jpg,,,,,,,,,,,,,,,
198,14,Memory,3,,,,,,,sunafcofuuzebuadceo.jpg,,,,,,,,,,,,,,,
199,14,Memory,3,,,,,,,sunacxtcahkymosigud.jpg,,,,,,,,,,,,,,,
200,14,Presentation,4,00978960627fa_sunbddbivbptlrlauhy.jpg,00795941205fa_sunagtumacdlmciqamz.jpg,,,,,,,>,Face,,,,,0,,,,,,,x
201,14,Presentation,4,00532960627fa_sunaccdtpgenvcbcbcf.jpg,00989960627fa_sunbondbduabvijnmch.jpg,,,,,,,<,Face,,,,,1,,,,,,,o
202,14,Presentation,4,00811960530fa_sunahedfrhtcwpneund.jpg,00976960627fa_sunbbhqyyzmsxhsbjmp.jpg,,,,,,,>,Face,,,,,1,,,,,,,o
203,14,Presentation,4,00862940307fa_sunaizgnnplsvajzhkc.jpg,00133931230fa_sunaanlwnpqndclffxt.jpg,,,,,,,>,Place,,,,,1,,,,,,,x
204,14,Presentation,4,00662941121fa_sunadkazmlajmohnwfl.jpg,00063931230fa_sunaaelyvurpntclgau.jpg,,,,,,,<,Face,,,,,1,,,,,,,o
205,14,Presentation,4,00773941201fa_sunafvcflzhlqloapyo.jpg,00130931230fa_sunaamvxnvouicstkjb.jpg,,,,,,,>,Place,,,,,1,,,,,,,o
206,14,Presentation,4,00864940307fa_sunajawzbrlrwafowen.jpg,00894960620fa_sunalqmfgeadpqsyzpd.jpg,,,,,,,<,Place,,,,,0,,,,,,,x
207,14,Presentation,4,00905960530fa_sunanmoqeyprjjjfxjt.jpg,00790941205fa_sunagpjzsbltchlwvou.jpg,,,,,,,<,Face,,,,,1,,,,,,,o
208,14,Presentation,4,00771941205fa_sunafowswglhxcsufpo.jpg,00835940307fa_sunaijsqpvodplbwxkf.jpg,,,,,,,<,Place,,,,,1,,,,,,,o
209,14,Presentation,4,00723941201fa_sunaedtgwjvvziytspa.jpg,01009960627fa_sunbxzweleltykebgan.jpg,,,,,,,>,Place,,,,,1,,,,,,,x
210,14,Memory,4,,,,,,,sunawksfbacycuhbrsc.jpg,,,,,,,,,,,,,,,
211,14,Memory,4,,,,,,,sunaaelyvurpntclgau.jpg,,,,,,,,,,,,,,,
212,14,Memory,4,,,,,,,sunabueyoajufbkraki.jpg,,,,,,,,,,,,,,,
213,14,Memory,4,,,,,,,sunagpjzsbltchlwvou.jpg,,,,,,,,,,,,,,,
214,14,Memory,4,,,,,,,00976960627fa.jpg,,,,,,,,,,,,,,,
215,14,Memory,4,,,,,,,sunaafvitpexrpvumsa.jpg,,,,,,,,,,,,,,,
216,14,Memory,4,,,,,,,00727941205fa.jpg,,,,,,,,,,,,,,,
217,14,Memory,4,,,,,,,sunahpblecxtmuzkmxb.jpg,,,,,,,,,,,,,,,
218,14,Memory,4,,,,,,,00795941205fa.jpg,,,,,,,,,,,,,,,
219,14,Memory,4,,,,,,,sunaedtgwjvvziytspa.jpg,,,,,,,,,,,,,,,
220,14,Memory,4,,,,,,,sunbbhqyyzmsxhsbjmp.jpg,,,,,,,,,,,,,,,
221,14,Memory,4,,,,,,,00070940307fa.jpg,,,,,,,,,,,,,,,
222,14,Memory,4,,,,,,,00532960627fa.jpg,,,,,,,,,,,,,,,
223,14,Memory,4,,,,,,,00306940422fa.jpg,,,,,,,,,,,,,,,
224,14,Memory,4,,,,,,,00576941031fa.jpg,,,,,,,,,,,,,,,
225,14,Memory,4,,,,,,,00184940128fa.jpg,,,,,,,,,,,,,,,
226,14,Memory,4,,,,,,,sunaccdtpgenvcbcbcf.jpg,,,,,,,,,,,,,,,
227,14,Memory,4,,,,,,,sunaaeplwsfslcbtojr.jpg,,,,,,,,,,,,,,,
228,14,Memory,4,,,,,,,sunabkngeblodihjvbk.jpg,,,,,,,,,,,,,,,
229,14,Memory,4,,,,,,,00818940307fa.jpg,,,,,,,,,,,,,,,
230,14,Memory,4,,,,,,,sunaeisnjeetzmkbuad.jpg,,,,,,,,,,,,,,,
231,14,Memory,4,,,,,,,sunacvjlsylseoghjup.jpg,,,,,,,,,,,,,,,
232,14,Memory,4,,,,,,,sunalqmfgeadpqsyzpd.jpg,,,,,,,,,,,,,,,
233,14,Memory,4,,,,,,,sunaavtbadenwnzeutj.jpg,,,,,,,,,,,,,,,
234,14,Memory,4,,,,,,,00894960620fa.jpg,,,,,,,,,,,,,,,
235,14,Memory,4,,,,,,,sunaqgjuuwvdcyiccjt.jpg,,,,,,,,,,,,,,,
236,14,Memory,4,,,,,,,sunanmoqeyprjjjfxjt.jpg,,,,,,,,,,,,,,,
237,14,Memory,4,,,,,,,00266940128fb.jpg,,,,,,,,,,,,,,,
238,14,Memory,4,,,,,,,00771941205fa.jpg,,,,,,,,,,,,,,,
239,14,Memory,4,,,,,,,00082931230fa.jpg,,,,,,,,,,,,,,,
240,14,Memory,4,,,,,,,00960960627fa.jpg,,,,,,,,,,,,,,,
241,14,Memory,4,,,,,,,sunafowswglhxcsufpo.jpg,,,,,,,,,,,,,,,
242,14,Memory,4,,,,,,,00723941201fa.jpg,,,,,,,,,,,,,,,
243,14,Memory,4,,,,,,,00773941201fa.jpg,,,,,,,,,,,,,,,
244,14,Memory,4,,,,,,,00936960627fa.jpg,,,,,,,,,,,,,,,
245,14,Memory,4,,,,,,,00905960530fa.jpg,,,,,,,,,,,,,,,
246,14,Memory,4,,,,,,,00790941205fa.jpg,,,,,,,,,,,,,,,
247,14,Memory,4,,,,,,,00063931230fa.jpg,,,,,,,,,,,,,,,
248,14,Memory,4,,,,,,,sunagtumacdlmciqamz.jpg,,,,,,,,,,,,,,,
249,14,Memory,4,,,,,,,sunafvcflzhlqloapyo.jpg,,,,,,,,,,,,,,,
250,14,Presentation,5,00127931230fa_sunaampvucecsfbdafn.jpg,00548940519fa_sunacerqowiaeoqkmsq.jpg,,,,,,,<,Place,,,,,1,,,,,,,o
251,14,Presentation,5,00131931230fb_sunaangbuylfvckqqoo.jpg,00777941205fa_sunagcinxkccdtrjmlv.jpg,,,,,,,<,Face,,,,,1,,,,,,,o
252,14,Presentation,5,00316940422fa_sunabxmguapjekttvwm.jpg,00885960530fa_sunakwlvxjpddialozd.jpg,,,,,,,>,Face,,,,,1,,,,,,,o
253,14,Presentation,5,00973960627fa_sunbbgtoeuzierkkajt.jpg,00754941201fa_sunaffgsyyvoqdlkmnk.jpg,,,,,,,<,Place,,,,,1,,,,,,,x
254,14,Presentation,5,00144931230fb_sunaathajvxrgptwhoj.jpg,00906960530fa_sunantryfbloeaomfta.jpg,,,,,,,>,Place,,,,,1,,,,,,,o
255,14,Presentation,5,00787960620fa_sunagoufulkpsxrmklt.jpg,00908960530fa_sunanwjjyqqwzqrqagd.jpg,,,,,,,<,Place,,,,,1,,,,,,,o
256,14,Presentation,5,00745941205fa_sunaeouogqolxvggaoq.jpg,00792941205fa_sunagsiwrmuixqgdimb.jpg,,,,,,,>,Face,,,,,1,,,,,,,o
257,14,Presentation,5,00242940128fa_sunabcuurugvxwparpk.jpg,00775941205fa_sunafvwfsmqkjrutjta.jpg,,,,,,,<,Face,,,,,1,,,,,,,o
258,14,Presentation,5,00288940422fa_sunabppokiyglaxpcha.jpg,00786941205fa_sunagmhildamktmqjss.jpg,,,,,,,>,Place,,,,,1,,,,,,,o
259,14,Presentation,5,00799941205fa_sunagutjvdvnhxejerz.jpg,00983960627fa_sunbfyvfqiimvdaxlqn.jpg,,,,,,,>,Face,,,,,1,,,,,,,o
260,14,Memory,5,,,,,,,00860940307fa.jpg,,,,,,,,,,,,,,,
261,14,Memory,5,,,,,,,00882960530fa.jpg,,,,,,,,,,,,,,,
262,14,Memory,5,,,,,,,00906960530fa.jpg,,,,,,,,,,,,,,,
263,14,Memory,5,,,,,,,sunaalcrrdbjgdztbiz.jpg,,,,,,,,,,,,,,,
264,14,Memory,5,,,,,,,sunaaylzyqlqrsmfwif.jpg,,,,,,,,,,,,,,,
265,14,Memory,5,,,,,,,00288940422fa.jpg,,,,,,,,,,,,,,,
266,14,Memory,5,,,,,,,00239940128fa.jpg,,,,,,,,,,,,,,,
267,14,Memory,5,,,,,,,00973960627fa.jpg,,,,,,,,,,,,,,,
268,14,Memory,5,,,,,,,sunbwaafjdebjzttuvq.jpg,,,,,,,,,,,,,,,
269,14,Memory,5,,,,,,,sunabppokiyglaxpcha.jpg,,,,,,,,,,,,,,,
270,14,Memory,5,,,,,,,sunanwjjyqqwzqrqagd.jpg,,,,,,,,,,,,,,,
271,14,Memory,5,,,,,,,sunaampvucecsfbdafn.jpg,,,,,,,,,,,,,,,
272,14,Memory,5,,,,,,,00123931230fb.jpg,,,,,,,,,,,,,,,
273,14,Memory,5,,,,,,,00885960530fa.jpg,,,,,,,,,,,,,,,
274,14,Memory,5,,,,,,,00211940128fa.jpg,,,,,,,,,,,,,,,
275,14,Memory,5,,,,,,,sunabcuurugvxwparpk.jpg,,,,,,,,,,,,,,,
276,14,Memory,5,,,,,,,sunahqrxievfeusiqlt.jpg,,,,,,,,,,,,,,,
277,14,Memory,5,,,,,,,sunaizeyhvjzknwjudw.jpg,,,,,,,,,,,,,,,
278,14,Memory,5,,,,,,,00630941031fa.jpg,,,,,,,,,,,,,,,
279,14,Memory,5,,,,,,,00908960530fa.jpg,,,,,,,,,,,,,,,
280,14,Memory,5,,,,,,,sunaffgsyyvoqdlkmnk.jpg,,,,,,,,,,,,,,,
281,14,Memory,5,,,,,,,sunagoufulkpsxrmklt.jpg,,,,,,,,,,,,,,,
282,14,Memory,5,,,,,,,sunabasphceswhwwqvv.jpg,,,,,,,,,,,,,,,
283,14,Memory,5,,,,,,,00786941205fa.jpg,,,,,,,,,,,,,,,
284,14,Memory,5,,,,,,,00754941201fa.jpg,,,,,,,,,,,,,,,
285,14,Memory,5,,,,,,,sunarceibpcyacbmfga.jpg,,,,,,,,,,,,,,,
286,14,Memory,5,,,,,,,00197940128fa.jpg,,,,,,,,,,,,,,,
287,14,Memory,5,,,,,,,sunakwlvxjpddialozd.jpg,,,,,,,,,,,,,,,
288,14,Memory,5,,,,,,,sunadakkdovnuzlycvp.jpg,,,,,,,,,,,,,,,
289,14,Memory,5,,,,,,,sunaknlirqjqiwbbeeg.jpg,,,,,,,,,,,,,,,
290,14,Memory,5,,,,,,,sunagmhildamktmqjss.jpg,,,,,,,,,,,,,,,
291,14,Memory,5,,,,,,,00127931230fa.jpg,,,,,,,,,,,,,,,
292,14,Memory,5,,,,,,,00787960620fa.jpg,,,,,,,,,,,,,,,
293,14,Memory,5,,,,,,,sunantryfbloeaomfta.jpg,,,,,,,,,,,,,,,
294,14,Memory,5,,,,,,,00242940128fa.jpg,,,,,,,,,,,,,,,
295,14,Memory,5,,,,,,,sunabctlikybqabezjv.jpg,,,,,,,,,,,,,,,
296,14,Memory,5,,,,,,,00822940307fa.jpg,,,,,,,,,,,,,,,
297,14,Memory,5,,,,,,,01002960627fb.jpg,,,,,,,,,,,,,,,
298,14,Memory,5,,,,,,,sunbbgtoeuzierkkajt.jpg,,,,,,,,,,,,,,,
299,14,Memory,5,,,,,,,00939960627fa.jpg,,,,,,,,,,,,,,,
300,14,Presentation,6,00887960530_sunalcrtwiycqobgelp.jpg,00952960627fa_sunathzzbcwjykldrem.jpg,,,,,,,>,Face,,,,,1,,,,,,,x
301,14,Presentation,6,01000960627fa_sunbvzmgrdvaakxusbu.jpg,00743941201fa_sunaeoghzrjarigmwua.jpg,,,,,,,>,Place,,,,,1,,,,,,,x
302,14,Presentation,6,00095931230fa_sunaahzooisqkwlxwoz.jpg,00633940928fa_sunadbhmrgrrpyzglxs.jpg,,,,,,,>,Face,,,,,0,,,,,,,o
303,14,Presentation,6,00959960627fa_sunavxokzybtomhbmvm.jpg,00925960627fa_sunapqwnqzxlsfvgsjm.jpg,,,,,,,<,Place,,,,,1,,,,,,,o
304,14,Presentation,6,00942960627fa_sunarfdklgdnjgeqfjg.jpg,00900960530fa_sunamlotskmmsjeogby.jpg,,,,,,,<,Face,,,,,1,,,,,,,o
305,14,Presentation,6,00997960627fa_sunbtpilbhhbmhmeuzq.jpg,00791941205fa_sunagrmyoovzukhxmlo.jpg,,,,,,,<,Place,,,,,1,,,,,,,x
306,14,Presentation,6,00276940422fa_sunabmytpyhsgigllxu.jpg,00564941031fa_sunacsaovnjezqwbykf.jpg,,,,,,,>,Place,,,,,1,,,,,,,x
307,14,Presentation,6,00933960627fa_sunapwjkcxdaeqehfql.jpg,00061931230fb_sunaaekxzjzrfgtkwjf.jpg,,,,,,,>,Face,,,,,0,,,,,,,x
308,14,Presentation,6,00302940422fa_sunabtlfmiwtljmoues.jpg,00828940307fa_sunahuynahneraqftyz.jpg,,,,,,,<,Place,,,,,1,,,,,,,o
309,14,Presentation,6,00147931230fb_sunaatpkocdkocwxpkb.jpg,00129931230fb_sunaamsdyakblkfoydx.jpg,,,,,,,<,Face,,,,,1,,,,,,,o
310,14,Memory,6,,,,,,,sunahuynahneraqftyz.jpg,,,,,,,,,,,,,,,
311,14,Memory,6,,,,,,,sunaeoghzrjarigmwua.jpg,,,,,,,,,,,,,,,
312,14,Memory,6,,,,,,,00147931230fb.jpg,,,,,,,,,,,,,,,
313,14,Memory,6,,,,,,,00264940128fb.jpg,,,,,,,,,,,,,,,
314,14,Memory,6,,,,,,,00129931230fb.jpg,,,,,,,,,,,,,,,
315,14,Memory,6,,,,,,,00884960530fa.jpg,,,,,,,,,,,,,,,
316,14,Memory,6,,,,,,,00988960627fa.jpg,,,,,,,,,,,,,,,
317,14,Memory,6,,,,,,,sunaaekxzjzrfgtkwjf.jpg,,,,,,,,,,,,,,,
318,14,Memory,6,,,,,,,00965960627fa.jpg,,,,,,,,,,,,,,,
319,14,Memory,6,,,,,,,00942960627fa.jpg,,,,,,,,,,,,,,,
320,14,Memory,6,,,,,,,00985960627fa.jpg,,,,,,,,,,,,,,,
321,14,Memory,6,,,,,,,sunarfdklgdnjgeqfjg.jpg,,,,,,,,,,,,,,,
322,14,Memory,6,,,,,,,sunbgklxeqjhdbyfhhy.jpg,,,,,,,,,,,,,,,
323,14,Memory,6,,,,,,,sunacsdhbbsybcyxnel.jpg,,,,,,,,,,,,,,,
324,14,Memory,6,,,,,,,sunbvzmgrdvaakxusbu.jpg,,,,,,,,,,,,,,,
325,14,Memory,6,,,,,,,00955960627fb.jpg,,,,,,,,,,,,,,,
326,14,Memory,6,,,,,,,sunathzzbcwjykldrem.jpg,,,,,,,,,,,,,,,
327,14,Memory,6,,,,,,,sunbmaiocftdtvnzgap.jpg,,,,,,,,,,,,,,,
328,14,Memory,6,,,,,,,00267940128fb.jpg,,,,,,,,,,,,,,,
329,14,Memory,6,,,,,,,sunabjzyxcjnmztdonj.jpg,,,,,,,,,,,,,,,
330,14,Memory,6,,,,,,,sunauburywlkjszngcq.jpg,,,,,,,,,,,,,,,
331,14,Memory,6,,,,,,,sunavxokzybtomhbmvm.jpg,,,,,,,,,,,,,,,
332,14,Memory,6,,,,,,,sunakodkcslgqhqlgwl.jpg,,,,,,,,,,,,,,,
333,14,Memory,6,,,,,,,00887960530.jpg,,,,,,,,,,,,,,,
334,14,Memory,6,,,,,,,sunablfqiwfqomjarht.jpg,,,,,,,,,,,,,,,
335,14,Memory,6,,,,,,,sunaydywdmvlfddbxbk.jpg,,,,,,,,,,,,,,,
336,14,Memory,6,,,,,,,00154931230fa.jpg,,,,,,,,,,,,,,,
337,14,Memory,6,,,,,,,00568940928fa.jpg,,,,,,,,,,,,,,,
338,14,Memory,6,,,,,,,sunaauueuhhvklldjik.jpg,,,,,,,,,,,,,,,
339,14,Memory,6,,,,,,,sunaatpkocdkocwxpkb.jpg,,,,,,,,,,,,,,,
340,14,Memory,6,,,,,,,00828940307fa.jpg,,,,,,,,,,,,,,,
341,14,Memory,6,,,,,,,00959960627fa.jpg,,,,,,,,,,,,,,,
342,14,Memory,6,,,,,,,sunaamsdyakblkfoydx.jpg,,,,,,,,,,,,,,,
343,14,Memory,6,,,,,,,00952960627fa.jpg,,,,,,,,,,,,,,,
344,14,Memory,6,,,,,,,01000960627fa.jpg,,,,,,,,,,,,,,,
345,14,Memory,6,,,,,,,00296940422fa.jpg,,,,,,,,,,,,,,,
346,14,Memory,6,,,,,,,00743941201fa.jpg,,,,,,,,,,,,,,,
347,14,Memory,6,,,,,,,sunabrwnslxalcohfre.jpg,,,,,,,,,,,,,,,
348,14,Memory,6,,,,,,,00061931230fb.jpg,,,,,,,,,,,,,,,
349,14,Memory,6,,,,,,,sunalcrtwiycqobgelp.jpg,,,,,,,,,,,,,,,
350,14,Presentation,7,00815941205fa_sunahiphsekjihkafsl.jpg,00163931230fb_sunaavodbcpygkggnfp.jpg,,,,,,,>,Face,,,,,1,,,,,,,o
351,14,Presentation,7,00803941205fa_sunagvxkjokqimstxpe.jpg,00841940307fa_sunaisiwfgppimtnmxl.jpg,,,,,,,>,Place,,,,,1,,,,,,,o
352,14,Presentation,7,00719960620fa_sunadzuvtmtmgupotmf.jpg,00785941205fa_sunaglqunwuycxydmyu.jpg,,,,,,,<,Place,,,,,1,,,,,,,x
353,14,Presentation,7,00868960307fa_sunajjxttslobudoqbv.jpg,00138931230fa_sunaapfaivxqoynnwwp.jpg,,,,,,,<,Face,,,,,1,,,,,,,x
354,14,Presentation,7,00185940422fb_sunaawqdbpihmlbwyyn.jpg,00877960530fa_sunajxpkuhbizeveguy.jpg,,,,,,,>,Face,,,,,1,,,,,,,x
355,14,Presentation,7,00092931230fa_sunaaheqzstzxuadglu.jpg,00874940307fa_sunajtrfunvzdfticna.jpg,,,,,,,<,Place,,,,,1,,,,,,,o
356,14,Presentation,7,00935960627fa_sunaqbmgkgqucajzrkp.jpg,00851940307fa_sunaivflshbyfrfzhqb.jpg,,,,,,,>,Face,,,,,1,,,,,,,x
357,14,Presentation,7,00774941201fa_sunafvtpfczkzopbgue.jpg,00836940307fa_sunainqelldeebvxtcz.jpg,,,,,,,>,Place,,,,,1,,,,,,,o
358,14,Presentation,7,00564940928fa_sunacmpqqfbsvlzinzl.jpg,00290940422fa_sunabqowuarvqqcnipn.jpg,,,,,,,<,Face,,,,,1,,,,,,,x
359,14,Presentation,7,00898960530fa_sunamkmeblgteyggink.jpg,00108960530fa_sunaajtnvzzpsjdzres.jpg,,,,,,,<,Place,,,,,1,,,,,,,x
360,14,Memory,7,,,,,,,00785941205fa.jpg,,,,,,,,,,,,,,,
361,14,Memory,7,,,,,,,00308940422fb.jpg,,,,,,,,,,,,,,,
362,14,Memory,7,,,,,,,00891960530fa.jpg,,,,,,,,,,,,,,,
363,14,Memory,7,,,,,,,sunaalltyvjhbzhkmvg.jpg,,,,,,,,,,,,,,,
364,14,Memory,7,,,,,,,00762941201fa.jpg,,,,,,,,,,,,,,,
365,14,Memory,7,,,,,,,sunajjxttslobudoqbv.jpg,,,,,,,,,,,,,,,
366,14,Memory,7,,,,,,,sunaivdjruhkrfywfed.jpg,,,,,,,,,,,,,,,
367,14,Memory,7,,,,,,,00191940128fb.jpg,,,,,,,,,,,,,,,
368,14,Memory,7,,,,,,,sunaglqunwuycxydmyu.jpg,,,,,,,,,,,,,,,
369,14,Memory,7,,,,,,,00796941205fa.jpg,,,,,,,,,,,,,,,
370,14,Memory,7,,,,,,,00847940307fa.jpg,,,,,,,,,,,,,,,
371,14,Memory,7,,,,,,,00564940928fa.jpg,,,,,,,,,,,,,,,
372,14,Memory,7,,,,,,,00877960530fa.jpg,,,,,,,,,,,,,,,
373,14,Memory,7,,,,,,,sunaqbmgkgqucajzrkp.jpg,,,,,,,,,,,,,,,
374,14,Memory,7,,,,,,,00868960307fa.jpg,,,,,,,,,,,,,,,
375,14,Memory,7,,,,,,,sunacmpqqfbsvlzinzl.jpg,,,,,,,,,,,,,,,
376,14,Memory,7,,,,,,,00803941205fa.jpg,,,,,,,,,,,,,,,
377,14,Memory,7,,,,,,,sunalkiibhqpxfamlll.jpg,,,,,,,,,,,,,,,
378,14,Memory,7,,,,,,,sunaamdjwemxpmmtypi.jpg,,,,,,,,,,,,,,,
379,14,Memory,7,,,,,,,sunaisiwfgppimtnmxl.jpg,,,,,,,,,,,,,,,
380,14,Memory,7,,,,,,,sunagvxkjokqimstxpe.jpg,,,,,,,,,,,,,,,
381,14,Memory,7,,,,,,,00816941205fa.jpg,,,,,,,,,,,,,,,
382,14,Memory,7,,,,,,,sunaguchqqnrtodtezq.jpg,,,,,,,,,,,,,,,
383,14,Memory,7,,,,,,,sunajxpkuhbizeveguy.jpg,,,,,,,,,,,,,,,
384,14,Memory,7,,,,,,,00126931230fb.jpg,,,,,,,,,,,,,,,
385,14,Memory,7,,,,,,,00163931230fb.jpg,,,,,,,,,,,,,,,
386,14,Memory,7,,,,,,,sunahiphsekjihkafsl.jpg,,,,,,,,,,,,,,,
387,14,Memory,7,,,,,,,00836940307fa.jpg,,,,,,,,,,,,,,,
388,14,Memory,7,,,,,,,sunaafgqutfaishsxyu.jpg,,,,,,,,,,,,,,,
389,14,Memory,7,,,,,,,sunabwfvcqqidycwypa.jpg,,,,,,,,,,,,,,,
390,14,Memory,7,,,,,,,sunainqelldeebvxtcz.jpg,,,,,,,,,,,,,,,
391,14,Memory,7,,,,,,,sunaavodbcpygkggnfp.jpg,,,,,,,,,,,,,,,
392,14,Memory,7,,,,,,,00077931230fb.jpg,,,,,,,,,,,,,,,
393,14,Memory,7,,,,,,,sunafgzgbisbopcyslr.jpg,,,,,,,,,,,,,,,
394,14,Memory,7,,,,,,,00935960627fa.jpg,,,,,,,,,,,,,,,
395,14,Memory,7,,,,,,,00815941205fa.jpg,,,,,,,,,,,,,,,
396,14,Memory,7,,,,,,,00125931230fa.jpg,,,,,,,,,,,,,,,
397,14,Memory,7,,,,,,,00841940307fa.jpg,,,,,,,,,,,,,,,
398,14,Memory,7,,,,,,,sunahmhrncocyhsjpxk.jpg,,,,,,,,,,,,,,,
399,14,Memory,7,,,,,,,sunaawsdjisukbbginm.jpg,,,,,,,,,,,,,,,
