,Subject,Trial Type,Run,Cued Composite,Uncued Composite,Cued Face,Cued Place,Uncued Face,Uncued Place,Memory Image,Category,Cued Side,Cued Category,Attention Reaction Time (s),Familiarity Reaction Time (s),Familiarity Rating,Attention Level,Cue Validity,Post Invalid Cue,Pre Invalid Cue,Attention Button,Rating History,Stimulus Onset,Stimulus End,Attention Probe
0,22,Presentation,0,00877960530fa_sunajxpkuhbizeveguy.jpg,00910960530fa_sunaofikylqtxphvdem.jpg,00877960530fa.jpg,sunajxpkuhbizeveguy.jpg,00910960530fa.jpg,sunaofikylqtxphvdem.jpg,,,>,Face,,,,,1,,,,,,,x
1,22,Presentation,0,00836940307fa_sunainqelldeebvxtcz.jpg,00906960530fa_sunantryfbloeaomfta.jpg,00836940307fa.jpg,sunainqelldeebvxtcz.jpg,00906960530fa.jpg,sunantryfbloeaomfta.jpg,,,<,Face,,,,,1,,,,,,,o
2,22,Presentation,0,00316940422fa_sunabxmguapjekttvwm.jpg,00719941201fa_sunadvithllcgmfxsrn.jpg,00316940422fa.jpg,sunabxmguapjekttvwm.jpg,00719941201fa.jpg,sunadvithllcgmfxsrn.jpg,,,>,Place,,,,,1,,,,,,,x
3,22,Presentation,0,00811960530fa_sunahedfrhtcwpneund.jpg,00650941031fa_sunadikxpvqeabxrvvc.jpg,00811960530fa.jpg,sunahedfrhtcwpneund.jpg,00650941031fa.jpg,sunadikxpvqeabxrvvc.jpg,,,<,Face,,,,,1,,,,,,,x
4,22,Presentation,0,00705941205fa_sunadtlxenqqxsyjvix.jpg,00194940128fb_sunaayehfdqcyxggsej.jpg,00705941205fa.jpg,sunadtlxenqqxsyjvix.jpg,00194940128fb.jpg,sunaayehfdqcyxggsej.jpg,,,<,Place,,,,,1,,,,,,,o
5,22,Presentation,0,00571940928fa_sunacuatpqpqhyjhjqk.jpg,00793941205fa_sunagtjwilqjvxohypn.jpg,00571940928fa.jpg,sunacuatpqpqhyjhjqk.jpg,00793941205fa.jpg,sunagtjwilqjvxohypn.jpg,,,>,Face,,,,,1,,,,,,,x
6,22,Presentation,0,00576941031fa_sunacvjlsylseoghjup.jpg,00574940928fa_sunacvbrcejzwmcgnoq.jpg,00576941031fa.jpg,sunacvjlsylseoghjup.jpg,00574940928fa.jpg,sunacvbrcejzwmcgnoq.jpg,,,>,Place,,,,,1,,,,,,,o
7,22,Presentation,0,00630941031fa_sunadakkdovnuzlycvp.jpg,00773960620fa_sunafvsxtzaizojicxx.jpg,00630941031fa.jpg,sunadakkdovnuzlycvp.jpg,00773960620fa.jpg,sunafvsxtzaizojicxx.jpg,,,>,Place,,,,,1,,,,,,,x
8,22,Presentation,0,00796941205fa_sunaguchqqnrtodtezq.jpg,00071940128fa_sunaaexpnawiehinlpy.jpg,00796941205fa.jpg,sunaguchqqnrtodtezq.jpg,00071940128fa.jpg,sunaaexpnawiehinlpy.jpg,,,<,Face,,,,,1,,,,,,,o
9,22,Presentation,0,00102931230fa_sunaajspcoepticvplv.jpg,01011960627fa_sundahdxwmcdluscvot.jpg,00102931230fa.jpg,sunaajspcoepticvplv.jpg,01011960627fa.jpg,sundahdxwmcdluscvot.jpg,,,<,Place,,,,,1,,,,,,,o
10,22,Memory,0,,,,,,,00719960620fa.jpg,,,,,,,,,,,,,,,
11,22,Memory,0,,,,,,,sunaaexqbtdswxrqjvz.jpg,,,,,,,,,,,,,,,
12,22,Memory,0,,,,,,,00564940928fa.jpg,,,,,,,,,,,,,,,
13,22,Memory,0,,,,,,,00129931230fb.jpg,,,,,,,,,,,,,,,
14,22,Memory,0,,,,,,,00810941205fa.jpg,,,,,,,,,,,,,,,
15,22,Memory,0,,,,,,,sunabxmguapjekttvwm.jpg,,,,,,,,,,,,,,,
16,22,Memory,0,,,,,,,00719941201fa.jpg,,,,,,,,,,,,,,,
17,22,Memory,0,,,,,,,sunafowswglhxcsufpo.jpg,,,,,,,,,,,,,,,
18,22,Memory,0,,,,,,,00316940422fa.jpg,,,,,,,,,,,,,,,
19,22,Memory,0,,,,,,,sunahedfrhtcwpneund.jpg,,,,,,,,,,,,,,,
20,22,Memory,0,,,,,,,sunantryfbloeaomfta.jpg,,,,,,,,,,,,,,,
21,22,Memory,0,,,,,,,sunarfdklgdnjgeqfjg.jpg,,,,,,,,,,,,,,,
22,22,Memory,0,,,,,,,sunajxpkuhbizeveguy.jpg,,,,,,,,,,,,,,,
23,22,Memory,0,,,,,,,sunahctntqrunhdxhtb.jpg,,,,,,,,,,,,,,,
24,22,Memory,0,,,,,,,00783941205fa.jpg,,,,,,,,,,,,,,,
25,22,Memory,0,,,,,,,00906960530fa.jpg,,,,,,,,,,,,,,,
26,22,Memory,0,,,,,,,00910960530fa.jpg,,,,,,,,,,,,,,,
27,22,Memory,0,,,,,,,00540940519fa.jpg,,,,,,,,,,,,,,,
28,22,Memory,0,,,,,,,sunacdnquypmsshhsbk.jpg,,,,,,,,,,,,,,,
29,22,Memory,0,,,,,,,00630941031fa.jpg,,,,,,,,,,,,,,,
30,22,Memory,0,,,,,,,sunaamsdyakblkfoydx.jpg,,,,,,,,,,,,,,,
31,22,Memory,0,,,,,,,00571940928fa.jpg,,,,,,,,,,,,,,,
32,22,Memory,0,,,,,,,00650941031fa.jpg,,,,,,,,,,,,,,,
33,22,Memory,0,,,,,,,sunadikxpvqeabxrvvc.jpg,,,,,,,,,,,,,,,
34,22,Memory,0,,,,,,,sunadzuvtmtmgupotmf.jpg,,,,,,,,,,,,,,,
35,22,Memory,0,,,,,,,sunacuatpqpqhyjhjqk.jpg,,,,,,,,,,,,,,,
36,22,Memory,0,,,,,,,sunagjeesomrwjsfqie.jpg,,,,,,,,,,,,,,,
37,22,Memory,0,,,,,,,00877960530fa.jpg,,,,,,,,,,,,,,,
38,22,Memory,0,,,,,,,sunadvithllcgmfxsrn.jpg,,,,,,,,,,,,,,,
39,22,Memory,0,,,,,,,01011960627fa.jpg,,,,,,,,,,,,,,,
40,22,Memory,0,,,,,,,00811960530fa.jpg,,,,,,,,,,,,,,,
41,22,Memory,0,,,,,,,sundahdxwmcdluscvot.jpg,,,,,,,,,,,,,,,
42,22,Memory,0,,,,,,,sunaakxjfbrrequcjmx.jpg,,,,,,,,,,,,,,,
43,22,Memory,0,,,,,,,00071941031fa.jpg,,,,,,,,,,,,,,,
44,22,Memory,0,,,,,,,sunadakkdovnuzlycvp.jpg,,,,,,,,,,,,,,,
45,22,Memory,0,,,,,,,sunaofikylqtxphvdem.jpg,,,,,,,,,,,,,,,
46,22,Memory,0,,,,,,,sunacmpqqfbsvlzinzl.jpg,,,,,,,,,,,,,,,
47,22,Memory,0,,,,,,,00771941205fa.jpg,,,,,,,,,,,,,,,
48,22,Memory,0,,,,,,,00942960627fa.jpg,,,,,,,,,,,,,,,
49,22,Memory,0,,,,,,,00122931230fa.jpg,,,,,,,,,,,,,,,
50,22,Presentation,1,00557940519fa_sunachtuarilwyqnvjx.jpg,00153931230fa_sunaauhozyxzeeqstxi.jpg,00557940519fa.jpg,sunachtuarilwyqnvjx.jpg,00153931230fa.jpg,sunaauhozyxzeeqstxi.jpg,,,>,Place,,,,,1,,,,,,,o
51,22,Presentation,1,00864940307fa_sunajawzbrlrwafowen.jpg,00221940128fa_sunabcfpwlpolnutyju.jpg,00864940307fa.jpg,sunajawzbrlrwafowen.jpg,00221940128fa.jpg,sunabcfpwlpolnutyju.jpg,,,<,Place,,,,,1,,,,,,,o
52,22,Presentation,1,00913960530fa_sunaooffzffbhcpirmm.jpg,00598941031fa_sunacxtcahkymosigud.jpg,00913960530fa.jpg,sunaooffzffbhcpirmm.jpg,00598941031fa.jpg,sunacxtcahkymosigud.jpg,,,<,Place,,,,,1,,,,,,,o
53,22,Presentation,1,00809960620fa_sunahbvlpavurqoxdeq.jpg,00874940307fa_sunajtrfunvzdfticna.jpg,00809960620fa.jpg,sunahbvlpavurqoxdeq.jpg,00874940307fa.jpg,sunajtrfunvzdfticna.jpg,,,<,Face,,,,,1,,,,,,,x
54,22,Presentation,1,00061931230fb_sunaaekxzjzrfgtkwjf.jpg,00730960620fa_sunaekgzpfilgjxpeyq.jpg,00061931230fb.jpg,sunaaekxzjzrfgtkwjf.jpg,00730960620fa.jpg,sunaekgzpfilgjxpeyq.jpg,,,>,Face,,,,,1,,,,,,,o
55,22,Presentation,1,00949960627fb_sunasnqkkyhilqkxiqm.jpg,00921960627fa_sunapqkpqdfvxlbqwyo.jpg,00949960627fb.jpg,sunasnqkkyhilqkxiqm.jpg,00921960627fa.jpg,sunapqkpqdfvxlbqwyo.jpg,,,<,Face,,,,,0,,,,,,,x
56,22,Presentation,1,00805941205fa_sunagwzdbtlixdhgolm.jpg,00792941205fa_sunagsiwrmuixqgdimb.jpg,00805941205fa.jpg,sunagwzdbtlixdhgolm.jpg,00792941205fa.jpg,sunagsiwrmuixqgdimb.jpg,,,>,Face,,,,,0,,,,,,,x
57,22,Presentation,1,00112931230fa_sunaakjaacuzulqckgl.jpg,00290940422fa_sunabqowuarvqqcnipn.jpg,00112931230fa.jpg,sunaakjaacuzulqckgl.jpg,00290940422fa.jpg,sunabqowuarvqqcnipn.jpg,,,>,Face,,,,,1,,,,,,,x
58,22,Presentation,1,00914960620fa_sunaozisvwfbmlkfhzv.jpg,00799941205fa_sunagutjvdvnhxejerz.jpg,00914960620fa.jpg,sunaozisvwfbmlkfhzv.jpg,00799941205fa.jpg,sunagutjvdvnhxejerz.jpg,,,>,Place,,,,,1,,,,,,,o
59,22,Presentation,1,00965960627fa_sunaydywdmvlfddbxbk.jpg,00111931230fb_sunaakgekhjklxmvulj.jpg,00965960627fa.jpg,sunaydywdmvlfddbxbk.jpg,00111931230fb.jpg,sunaakgekhjklxmvulj.jpg,,,<,Place,,,,,1,,,,,,,o
60,22,Memory,1,,,,,,,00294940422fb.jpg,,,,,,,,,,,,,,,
61,22,Memory,1,,,,,,,00208940128fa.jpg,,,,,,,,,,,,,,,
62,22,Memory,1,,,,,,,00694941121fa.jpg,,,,,,,,,,,,,,,
63,22,Memory,1,,,,,,,sunagutjvdvnhxejerz.jpg,,,,,,,,,,,,,,,
64,22,Memory,1,,,,,,,00290940422fa.jpg,,,,,,,,,,,,,,,
65,22,Memory,1,,,,,,,00825940307fa.jpg,,,,,,,,,,,,,,,
66,22,Memory,1,,,,,,,sunabyfxcxhdebvdyfd.jpg,,,,,,,,,,,,,,,
67,22,Memory,1,,,,,,,sunacjkmnpawfzbyvae.jpg,,,,,,,,,,,,,,,
68,22,Memory,1,,,,,,,00559940519fa.jpg,,,,,,,,,,,,,,,
69,22,Memory,1,,,,,,,sunaozisvwfbmlkfhzv.jpg,,,,,,,,,,,,,,,
70,22,Memory,1,,,,,,,sunajawzbrlrwafowen.jpg,,,,,,,,,,,,,,,
71,22,Memory,1,,,,,,,sunaazzyhbvqjpmazjq.jpg,,,,,,,,,,,,,,,
72,22,Memory,1,,,,,,,00482940519fa.jpg,,,,,,,,,,,,,,,
73,22,Memory,1,,,,,,,00884960530fa.jpg,,,,,,,,,,,,,,,
74,22,Memory,1,,,,,,,sunahrltmuwbiehihpe.jpg,,,,,,,,,,,,,,,
75,22,Memory,1,,,,,,,sunabqowuarvqqcnipn.jpg,,,,,,,,,,,,,,,
76,22,Memory,1,,,,,,,sunaakgekhjklxmvulj.jpg,,,,,,,,,,,,,,,
77,22,Memory,1,,,,,,,00864940307fa.jpg,,,,,,,,,,,,,,,
78,22,Memory,1,,,,,,,00893960530Fa.jpg,,,,,,,,,,,,,,,
79,22,Memory,1,,,,,,,00809960620fa.jpg,,,,,,,,,,,,,,,
80,22,Memory,1,,,,,,,sunaakjaacuzulqckgl.jpg,,,,,,,,,,,,,,,
81,22,Memory,1,,,,,,,00111931230fb.jpg,,,,,,,,,,,,,,,
82,22,Memory,1,,,,,,,00227940128fa.jpg,,,,,,,,,,,,,,,
83,22,Memory,1,,,,,,,sunadrmfzmstgdjdcod.jpg,,,,,,,,,,,,,,,
84,22,Memory,1,,,,,,,00112931230fa.jpg,,,,,,,,,,,,,,,
85,22,Memory,1,,,,,,,sunakodkcslgqhqlgwl.jpg,,,,,,,,,,,,,,,
86,22,Memory,1,,,,,,,sunahbvlpavurqoxdeq.jpg,,,,,,,,,,,,,,,
87,22,Memory,1,,,,,,,sunawksfbacycuhbrsc.jpg,,,,,,,,,,,,,,,
88,22,Memory,1,,,,,,,00914960620fa.jpg,,,,,,,,,,,,,,,
89,22,Memory,1,,,,,,,00799941205fa.jpg,,,,,,,,,,,,,,,
90,22,Memory,1,,,,,,,sunaauhozyxzeeqstxi.jpg,,,,,,,,,,,,,,,
91,22,Memory,1,,,,,,,sunaloffvbvysigxent.jpg,,,,,,,,,,,,,,,
92,22,Memory,1,,,,,,,sunabckqabszusgcykj.jpg,,,,,,,,,,,,,,,
93,22,Memory,1,,,,,,,sunachtuarilwyqnvjx.jpg,,,,,,,,,,,,,,,
94,22,Memory,1,,,,,,,00557940519fa.jpg,,,,,,,,,,,,,,,
95,22,Memory,1,,,,,,,00874940307fa.jpg,,,,,,,,,,,,,,,
96,22,Memory,1,,,,,,,00960960627fa.jpg,,,,,,,,,,,,,,,
97,22,Memory,1,,,,,,,sunabrlndkruqokhury.jpg,,,,,,,,,,,,,,,
98,22,Memory,1,,,,,,,sunajtrfunvzdfticna.jpg,,,,,,,,,,,,,,,
99,22,Memory,1,,,,,,,00153931230fa.jpg,,,,,,,,,,,,,,,
100,22,Presentation,2,00126931230fb_sunaamdjwemxpmmtypi.jpg,00483940519fa_sunabyvpwkgsjtijdwj.jpg,00126931230fb.jpg,sunaamdjwemxpmmtypi.jpg,00483940519fa.jpg,sunabyvpwkgsjtijdwj.jpg,,,>,Place,,,,,1,,,,,,,o
101,22,Presentation,2,00306940422fa_sunabueyoajufbkraki.jpg,00214940128fa_sunabbafjowbzcvbucc.jpg,00306940422fa.jpg,sunabueyoajufbkraki.jpg,00214940128fa.jpg,sunabbafjowbzcvbucc.jpg,,,<,Place,,,,,1,,,,,,,x
102,22,Presentation,2,00839940307fa_sunaipyohrqlwngaqif.jpg,01000960627fa_sunbvzmgrdvaakxusbu.jpg,00839940307fa.jpg,sunaipyohrqlwngaqif.jpg,01000960627fa.jpg,sunbvzmgrdvaakxusbu.jpg,,,<,Face,,,,,1,,,,,,,o
103,22,Presentation,2,00564941031fa_sunacsaovnjezqwbykf.jpg,00959960627fa_sunavxokzybtomhbmvm.jpg,00564941031fa.jpg,sunacsaovnjezqwbykf.jpg,00959960627fa.jpg,sunavxokzybtomhbmvm.jpg,,,<,Face,,,,,1,,,,,,,x
104,22,Presentation,2,00909960530_sunaobtizabegtwfwul.jpg,00782941205fa_sunagfvluwixdsozaql.jpg,00909960530.jpg,sunaobtizabegtwfwul.jpg,00782941205fa.jpg,sunagfvluwixdsozaql.jpg,,,>,Place,,,,,1,,,,,,,o
105,22,Presentation,2,00958960627fa_sunavspxmxubqaeidjt.jpg,00936960627fa_sunaqgjuuwvdcyiccjt.jpg,00958960627fa.jpg,sunavspxmxubqaeidjt.jpg,00936960627fa.jpg,sunaqgjuuwvdcyiccjt.jpg,,,>,Place,,,,,1,,,,,,,x
106,22,Presentation,2,00902960530fa_sunanaacmmosxrfwmvl.jpg,00787941205fa_sunagmwxxwymwojbvgi.jpg,00902960530fa.jpg,sunanaacmmosxrfwmvl.jpg,00787941205fa.jpg,sunagmwxxwymwojbvgi.jpg,,,>,Face,,,,,1,,,,,,,x
107,22,Presentation,2,00662941121fa_sunadkazmlajmohnwfl.jpg,00790941205fa_sunagpjzsbltchlwvou.jpg,00662941121fa.jpg,sunadkazmlajmohnwfl.jpg,00790941205fa.jpg,sunagpjzsbltchlwvou.jpg,,,>,Face,,,,,1,,,,,,,x
108,22,Presentation,2,00955960627fb_sunauburywlkjszngcq.jpg,00630940928fa_sunaczwgyukesaajxnx.jpg,00955960627fb.jpg,sunauburywlkjszngcq.jpg,00630940928fa.jpg,sunaczwgyukesaajxnx.jpg,,,<,Face,,,,,1,,,,,,,x
109,22,Presentation,2,00944960627fa_sunasbbntuiheekqyaq.jpg,00900960530fa_sunamlotskmmsjeogby.jpg,00944960627fa.jpg,sunasbbntuiheekqyaq.jpg,00900960530fa.jpg,sunamlotskmmsjeogby.jpg,,,<,Place,,,,,1,,,,,,,x
110,22,Memory,2,,,,,,,00782941205fa.jpg,,,,,,,,,,,,,,,
111,22,Memory,2,,,,,,,sunaqgjuuwvdcyiccjt.jpg,,,,,,,,,,,,,,,
112,22,Memory,2,,,,,,,00662941121fa.jpg,,,,,,,,,,,,,,,
113,22,Memory,2,,,,,,,00306940422fa.jpg,,,,,,,,,,,,,,,
114,22,Memory,2,,,,,,,sunafhmnhsdurlvddpw.jpg,,,,,,,,,,,,,,,
115,22,Memory,2,,,,,,,00598940928fa.jpg,,,,,,,,,,,,,,,
116,22,Memory,2,,,,,,,sunaaemixhfquhnxxlm.jpg,,,,,,,,,,,,,,,
117,22,Memory,2,,,,,,,sunacxeheuiigkcgquf.jpg,,,,,,,,,,,,,,,
118,22,Memory,2,,,,,,,sunbxzweleltykebgan.jpg,,,,,,,,,,,,,,,
119,22,Memory,2,,,,,,,sunaafvitpexrpvumsa.jpg,,,,,,,,,,,,,,,
120,22,Memory,2,,,,,,,00265940128fb.jpg,,,,,,,,,,,,,,,
121,22,Memory,2,,,,,,,00959960627fa.jpg,,,,,,,,,,,,,,,
122,22,Memory,2,,,,,,,sunaiozxhxgtfrmoagh.jpg,,,,,,,,,,,,,,,
123,22,Memory,2,,,,,,,00763941205fa.jpg,,,,,,,,,,,,,,,
124,22,Memory,2,,,,,,,00082931230fa.jpg,,,,,,,,,,,,,,,
125,22,Memory,2,,,,,,,sunaanlwnpqndclffxt.jpg,,,,,,,,,,,,,,,
126,22,Memory,2,,,,,,,00133931230fa.jpg,,,,,,,,,,,,,,,
127,22,Memory,2,,,,,,,sunagmwxxwymwojbvgi.jpg,,,,,,,,,,,,,,,
128,22,Memory,2,,,,,,,sunavxokzybtomhbmvm.jpg,,,,,,,,,,,,,,,
129,22,Memory,2,,,,,,,sunanaacmmosxrfwmvl.jpg,,,,,,,,,,,,,,,
130,22,Memory,2,,,,,,,00065931230fb.jpg,,,,,,,,,,,,,,,
131,22,Memory,2,,,,,,,sunafvcflzhlqloapyo.jpg,,,,,,,,,,,,,,,
132,22,Memory,2,,,,,,,00564941031fa.jpg,,,,,,,,,,,,,,,
133,22,Memory,2,,,,,,,sunagfvluwixdsozaql.jpg,,,,,,,,,,,,,,,
134,22,Memory,2,,,,,,,sunacsaovnjezqwbykf.jpg,,,,,,,,,,,,,,,
135,22,Memory,2,,,,,,,00984960627fa.jpg,,,,,,,,,,,,,,,
136,22,Memory,2,,,,,,,00838940307fa.jpg,,,,,,,,,,,,,,,
137,22,Memory,2,,,,,,,00936960627fa.jpg,,,,,,,,,,,,,,,
138,22,Memory,2,,,,,,,00787941205fa.jpg,,,,,,,,,,,,,,,
139,22,Memory,2,,,,,,,sunasbbntuiheekqyaq.jpg,,,,,,,,,,,,,,,
140,22,Memory,2,,,,,,,00944960627fa.jpg,,,,,,,,,,,,,,,
141,22,Memory,2,,,,,,,sunagpjzsbltchlwvou.jpg,,,,,,,,,,,,,,,
142,22,Memory,2,,,,,,,sunabueyoajufbkraki.jpg,,,,,,,,,,,,,,,
143,22,Memory,2,,,,,,,00773941201fa.jpg,,,,,,,,,,,,,,,
144,22,Memory,2,,,,,,,01009960627fa.jpg,,,,,,,,,,,,,,,
145,22,Memory,2,,,,,,,00902960530fa.jpg,,,,,,,,,,,,,,,
146,22,Memory,2,,,,,,,sunbfzchmomnvzhbxdg.jpg,,,,,,,,,,,,,,,
147,22,Memory,2,,,,,,,sunadkazmlajmohnwfl.jpg,,,,,,,,,,,,,,,
148,22,Memory,2,,,,,,,00790941205fa.jpg,,,,,,,,,,,,,,,
149,22,Memory,2,,,,,,,sunabkmdplkdbvxriff.jpg,,,,,,,,,,,,,,,
150,22,Presentation,3,00970960627fa_sunbasypfgzjtomktmu.jpg,00859940307fa_sunaiycurtqsfkvcaso.jpg,00970960627fa.jpg,sunbasypfgzjtomktmu.jpg,00859940307fa.jpg,sunaiycurtqsfkvcaso.jpg,,,<,Face,,,,,1,,,,,,,o
151,22,Presentation,3,00144931230fb_sunaathajvxrgptwhoj.jpg,00609940928fa_sunacycdoztxoluxjyk.jpg,00144931230fb.jpg,sunaathajvxrgptwhoj.jpg,00609940928fa.jpg,sunacycdoztxoluxjyk.jpg,,,<,Face,,,,,1,,,,,,,o
152,22,Presentation,3,00788941205fa_sunagountlxpzkytsmp.jpg,00136931230fb_sunaanptmsknhirrzed.jpg,00788941205fa.jpg,sunagountlxpzkytsmp.jpg,00136931230fb.jpg,sunaanptmsknhirrzed.jpg,,,>,Place,,,,,1,,,,,,,o
153,22,Presentation,3,00727941205fa_sunaeisnjeetzmkbuad.jpg,00961960627fa_sunawotxrevnqvamsfp.jpg,00727941205fa.jpg,sunaeisnjeetzmkbuad.jpg,00961960627fa.jpg,sunawotxrevnqvamsfp.jpg,,,>,Face,,,,,1,,,,,,,o
154,22,Presentation,3,00741941201fa_sunaemcowdozyphwknd.jpg,00762941201fa_sunafgzgbisbopcyslr.jpg,00741941201fa.jpg,sunaemcowdozyphwknd.jpg,00762941201fa.jpg,sunafgzgbisbopcyslr.jpg,,,<,Face,,,,,1,,,,,,,x
155,22,Presentation,3,00123931230fb_sunaalcrrdbjgdztbiz.jpg,00634940928fa_sunadcphrizvfpljiqt.jpg,00123931230fb.jpg,sunaalcrrdbjgdztbiz.jpg,00634940928fa.jpg,sunadcphrizvfpljiqt.jpg,,,<,Place,,,,,1,,,,,,,x
156,22,Presentation,3,00761960627fa_sunafgdqbclkwfocdhg.jpg,00305940422fa_sunabtrnbvpppgczjim.jpg,00761960627fa.jpg,sunafgdqbclkwfocdhg.jpg,00305940422fa.jpg,sunabtrnbvpppgczjim.jpg,,,<,Place,,,,,1,,,,,,,o
157,22,Presentation,3,00705960530fa_sunaduslxfzlbxlllnz.jpg,00507940519fa_sunacacflqoyxhsqzhe.jpg,00705960530fa.jpg,sunaduslxfzlbxlllnz.jpg,00507940519fa.jpg,sunacacflqoyxhsqzhe.jpg,,,>,Face,,,,,1,,,,,,,x
158,22,Presentation,3,00239940128fa_sunabctlikybqabezjv.jpg,00081941031fa_sunaaftlyfudyzuhqzf.jpg,00239940128fa.jpg,sunabctlikybqabezjv.jpg,00081941031fa.jpg,sunaaftlyfudyzuhqzf.jpg,,,>,Place,,,,,0,,,,,,,x
159,22,Presentation,3,00267940128fb_sunablfqiwfqomjarht.jpg,00827940307fa_sunahtfxgsrmkiulnwk.jpg,00267940128fb.jpg,sunablfqiwfqomjarht.jpg,00827940307fa.jpg,sunahtfxgsrmkiulnwk.jpg,,,>,Place,,,,,1,,,,,,,x
160,22,Memory,3,,,,,,,sunbddbivbptlrlauhy.jpg,,,,,,,,,,,,,,,
161,22,Memory,3,,,,,,,00663941121fa.jpg,,,,,,,,,,,,,,,
162,22,Memory,3,,,,,,,00144931230fb.jpg,,,,,,,,,,,,,,,
163,22,Memory,3,,,,,,,sunavhxgmgrqsaptynb.jpg,,,,,,,,,,,,,,,
164,22,Memory,3,,,,,,,00077931230fb.jpg,,,,,,,,,,,,,,,
165,22,Memory,3,,,,,,,sunaccdtpgenvcbcbcf.jpg,,,,,,,,,,,,,,,
166,22,Memory,3,,,,,,,sunaiycurtqsfkvcaso.jpg,,,,,,,,,,,,,,,
167,22,Memory,3,,,,,,,sunagufzbeteqdjxais.jpg,,,,,,,,,,,,,,,
168,22,Memory,3,,,,,,,00970960627fa.jpg,,,,,,,,,,,,,,,
169,22,Memory,3,,,,,,,sunaaftlyfudyzuhqzf.jpg,,,,,,,,,,,,,,,
170,22,Memory,3,,,,,,,00235940128fb.jpg,,,,,,,,,,,,,,,
171,22,Memory,3,,,,,,,sunaakvmbftkrgqhjun.jpg,,,,,,,,,,,,,,,
172,22,Memory,3,,,,,,,sunaathajvxrgptwhoj.jpg,,,,,,,,,,,,,,,
173,22,Memory,3,,,,,,,00978960627fa.jpg,,,,,,,,,,,,,,,
174,22,Memory,3,,,,,,,sunaafgqutfaishsxyu.jpg,,,,,,,,,,,,,,,
175,22,Memory,3,,,,,,,sunaanptmsknhirrzed.jpg,,,,,,,,,,,,,,,
176,22,Memory,3,,,,,,,00081941031fa.jpg,,,,,,,,,,,,,,,
177,22,Memory,3,,,,,,,sunaalcrrdbjgdztbiz.jpg,,,,,,,,,,,,,,,
178,22,Memory,3,,,,,,,00507940519fa.jpg,,,,,,,,,,,,,,,
179,22,Memory,3,,,,,,,sunabclssnoeuigtawp.jpg,,,,,,,,,,,,,,,
180,22,Memory,3,,,,,,,00136931230fb.jpg,,,,,,,,,,,,,,,
181,22,Memory,3,,,,,,,sunafgdqbclkwfocdhg.jpg,,,,,,,,,,,,,,,
182,22,Memory,3,,,,,,,00741941201fa.jpg,,,,,,,,,,,,,,,
183,22,Memory,3,,,,,,,00305940422fa.jpg,,,,,,,,,,,,,,,
184,22,Memory,3,,,,,,,sunaeoghzrjarigmwua.jpg,,,,,,,,,,,,,,,
185,22,Memory,3,,,,,,,sunacacflqoyxhsqzhe.jpg,,,,,,,,,,,,,,,
186,22,Memory,3,,,,,,,00797960620fa.jpg,,,,,,,,,,,,,,,
187,22,Memory,3,,,,,,,00743941201fa.jpg,,,,,,,,,,,,,,,
188,22,Memory,3,,,,,,,sunadnjjzohjhbohlwq.jpg,,,,,,,,,,,,,,,
189,22,Memory,3,,,,,,,sunabtrnbvpppgczjim.jpg,,,,,,,,,,,,,,,
190,22,Memory,3,,,,,,,00119931230fb.jpg,,,,,,,,,,,,,,,
191,22,Memory,3,,,,,,,00271940422fa.jpg,,,,,,,,,,,,,,,
192,22,Memory,3,,,,,,,00761960627fa.jpg,,,,,,,,,,,,,,,
193,22,Memory,3,,,,,,,00957960627fa.jpg,,,,,,,,,,,,,,,
194,22,Memory,3,,,,,,,sunbasypfgzjtomktmu.jpg,,,,,,,,,,,,,,,
195,22,Memory,3,,,,,,,00859940307fa.jpg,,,,,,,,,,,,,,,
196,22,Memory,3,,,,,,,00532960627fa.jpg,,,,,,,,,,,,,,,
197,22,Memory,3,,,,,,,sunabmbnddafmywtjjj.jpg,,,,,,,,,,,,,,,
198,22,Memory,3,,,,,,,00123931230fb.jpg,,,,,,,,,,,,,,,
199,22,Memory,3,,,,,,,sunaemcowdozyphwknd.jpg,,,,,,,,,,,,,,,
200,22,Presentation,4,00986960627fa_sunbgzjryivyczuvkvm.jpg,00870940307fa_sunajrgtewnualfcerj.jpg,00986960627fa.jpg,sunbgzjryivyczuvkvm.jpg,00870940307fa.jpg,sunajrgtewnualfcerj.jpg,,,>,Face,,,,,1,,,,,,,o
201,22,Presentation,4,00985960627fa_sunbgklxeqjhdbyfhhy.jpg,00568940928fa_sunacsdhbbsybcyxnel.jpg,00985960627fa.jpg,sunbgklxeqjhdbyfhhy.jpg,00568940928fa.jpg,sunacsdhbbsybcyxnel.jpg,,,>,Place,,,,,0,,,,,,,x
202,22,Presentation,4,00794960620fa_sunagtqhhwxjeuxdebe.jpg,00766960620fa_sunafijbgncijwykrnl.jpg,00794960620fa.jpg,sunagtqhhwxjeuxdebe.jpg,00766960620fa.jpg,sunafijbgncijwykrnl.jpg,,,>,Face,,,,,0,,,,,,,x
203,22,Presentation,4,00090931230fa_sunaahedjlmtqekgyvj.jpg,00142931230fb_sunaapxkpvrhpjplsok.jpg,00090931230fa.jpg,sunaahedjlmtqekgyvj.jpg,00142931230fb.jpg,sunaapxkpvrhpjplsok.jpg,,,<,Face,,,,,1,,,,,,,x
204,22,Presentation,4,00263940128fb_sunabjuovqvyfuzvqwt.jpg,00891960530fa_sunalkiibhqpxfamlll.jpg,00263940128fb.jpg,sunabjuovqvyfuzvqwt.jpg,00891960530fa.jpg,sunalkiibhqpxfamlll.jpg,,,<,Place,,,,,1,,,,,,,x
205,22,Presentation,4,00768941205fa_sunafkmnlytenlsywia.jpg,00127931230fa_sunaampvucecsfbdafn.jpg,00768941205fa.jpg,sunafkmnlytenlsywia.jpg,00127931230fa.jpg,sunaampvucecsfbdafn.jpg,,,<,Place,,,,,1,,,,,,,o
206,22,Presentation,4,00963960627fa_sunayaepykrqvenaqqy.jpg,00060931230fa_sunaaehaikpckyjsety.jpg,00963960627fa.jpg,sunayaepykrqvenaqqy.jpg,00060931230fa.jpg,sunaaehaikpckyjsety.jpg,,,>,Face,,,,,1,,,,,,,o
207,22,Presentation,4,00905960530fa_sunanmoqeyprjjjfxjt.jpg,00988960627fa_sunbmaiocftdtvnzgap.jpg,00905960530fa.jpg,sunanmoqeyprjjjfxjt.jpg,00988960627fa.jpg,sunbmaiocftdtvnzgap.jpg,,,<,Place,,,,,1,,,,,,,o
208,22,Presentation,4,00973960627fa_sunbbgtoeuzierkkajt.jpg,00953960627fa_sunatstrpjxhvtbaczf.jpg,00973960627fa.jpg,sunbbgtoeuzierkkajt.jpg,00953960627fa.jpg,sunatstrpjxhvtbaczf.jpg,,,>,Place,,,,,1,,,,,,,o
209,22,Presentation,4,00260940128fa_sunabgfhvifeijihhjw.jpg,00862940307fa_sunaizgnnplsvajzhkc.jpg,00260940128fa.jpg,sunabgfhvifeijihhjw.jpg,00862940307fa.jpg,sunaizgnnplsvajzhkc.jpg,,,<,Face,,,,,1,,,,,,,x
210,22,Memory,4,,,,,,,sunaaehaikpckyjsety.jpg,,,,,,,,,,,,,,,
211,22,Memory,4,,,,,,,sunaafbmtoniaasysgu.jpg,,,,,,,,,,,,,,,
212,22,Memory,4,,,,,,,00073931230fa.jpg,,,,,,,,,,,,,,,
213,22,Memory,4,,,,,,,00568940928fa.jpg,,,,,,,,,,,,,,,
214,22,Memory,4,,,,,,,00131931230fb.jpg,,,,,,,,,,,,,,,
215,22,Memory,4,,,,,,,sunatstrpjxhvtbaczf.jpg,,,,,,,,,,,,,,,
216,22,Memory,4,,,,,,,00794960620fa.jpg,,,,,,,,,,,,,,,
217,22,Memory,4,,,,,,,00260940128fa.jpg,,,,,,,,,,,,,,,
218,22,Memory,4,,,,,,,sunabkngeblodihjvbk.jpg,,,,,,,,,,,,,,,
219,22,Memory,4,,,,,,,sunabgfhvifeijihhjw.jpg,,,,,,,,,,,,,,,
220,22,Memory,4,,,,,,,00986960627fa.jpg,,,,,,,,,,,,,,,
221,22,Memory,4,,,,,,,00973960627fa.jpg,,,,,,,,,,,,,,,
222,22,Memory,4,,,,,,,00933960627fa.jpg,,,,,,,,,,,,,,,
223,22,Memory,4,,,,,,,sunbbgtoeuzierkkajt.jpg,,,,,,,,,,,,,,,
224,22,Memory,4,,,,,,,00109931230fa.jpg,,,,,,,,,,,,,,,
225,22,Memory,4,,,,,,,sunaeuzwggvibufclwf.jpg,,,,,,,,,,,,,,,
226,22,Memory,4,,,,,,,sunbmaiocftdtvnzgap.jpg,,,,,,,,,,,,,,,
227,22,Memory,4,,,,,,,sunaangbuylfvckqqoo.jpg,,,,,,,,,,,,,,,
228,22,Memory,4,,,,,,,sunaajuzribjrizdshh.jpg,,,,,,,,,,,,,,,
229,22,Memory,4,,,,,,,sunabcuurugvxwparpk.jpg,,,,,,,,,,,,,,,
230,22,Memory,4,,,,,,,00060931230fa.jpg,,,,,,,,,,,,,,,
231,22,Memory,4,,,,,,,00750941201fa.jpg,,,,,,,,,,,,,,,
232,22,Memory,4,,,,,,,sunbgzjryivyczuvkvm.jpg,,,,,,,,,,,,,,,
233,22,Memory,4,,,,,,,00242940128fa.jpg,,,,,,,,,,,,,,,
234,22,Memory,4,,,,,,,00266940128fb.jpg,,,,,,,,,,,,,,,
235,22,Memory,4,,,,,,,00953960627fa.jpg,,,,,,,,,,,,,,,
236,22,Memory,4,,,,,,,00211940128fa.jpg,,,,,,,,,,,,,,,
237,22,Memory,4,,,,,,,sunagtqhhwxjeuxdebe.jpg,,,,,,,,,,,,,,,
238,22,Memory,4,,,,,,,sunapwjkcxdaeqehfql.jpg,,,,,,,,,,,,,,,
239,22,Memory,4,,,,,,,sunacsdhbbsybcyxnel.jpg,,,,,,,,,,,,,,,
240,22,Memory,4,,,,,,,sunadbdqzigzwipuipr.jpg,,,,,,,,,,,,,,,
241,22,Memory,4,,,,,,,sunafkmnlytenlsywia.jpg,,,,,,,,,,,,,,,
242,22,Memory,4,,,,,,,sunaygrtwrwfezqjizr.jpg,,,,,,,,,,,,,,,
243,22,Memory,4,,,,,,,00142931230fb.jpg,,,,,,,,,,,,,,,
244,22,Memory,4,,,,,,,00631940928fa.jpg,,,,,,,,,,,,,,,
245,22,Memory,4,,,,,,,sunaapxkpvrhpjplsok.jpg,,,,,,,,,,,,,,,
246,22,Memory,4,,,,,,,00768941205fa.jpg,,,,,,,,,,,,,,,
247,22,Memory,4,,,,,,,00988960627fa.jpg,,,,,,,,,,,,,,,
248,22,Memory,4,,,,,,,sunabasphceswhwwqvv.jpg,,,,,,,,,,,,,,,
249,22,Memory,4,,,,,,,00966960627fa.jpg,,,,,,,,,,,,,,,
250,22,Presentation,5,00770941201fa_sunaflojskatpeqyzqp.jpg,00098931230fa_sunaajpqmulidejvjsr.jpg,00770941201fa.jpg,sunaflojskatpeqyzqp.jpg,00098931230fa.jpg,sunaajpqmulidejvjsr.jpg,,,>,Face,,,,,0,,,,,,,x
251,22,Presentation,5,00925960627fa_sunapqwnqzxlsfvgsjm.jpg,00125931230fa_sunaalltyvjhbzhkmvg.jpg,00925960627fa.jpg,sunapqwnqzxlsfvgsjm.jpg,00125931230fa.jpg,sunaalltyvjhbzhkmvg.jpg,,,<,Place,,,,,0,,,,,,,x
252,22,Presentation,5,00943960627fa_sunarpsxqkduedrrzyi.jpg,00885960530fa_sunakwlvxjpddialozd.jpg,00943960627fa.jpg,sunarpsxqkduedrrzyi.jpg,00885960530fa.jpg,sunakwlvxjpddialozd.jpg,,,>,Face,,,,,1,,,,,,,x
253,22,Presentation,5,00857940307fa_sunaiwfobocrruqznsv.jpg,00987960627fa_sunbloeoiozwjjsiamp.jpg,00857940307fa.jpg,sunaiwfobocrruqznsv.jpg,00987960627fa.jpg,sunbloeoiozwjjsiamp.jpg,,,<,Place,,,,,1,,,,,,,x
254,22,Presentation,5,00197940128fa_sunaaylzyqlqrsmfwif.jpg,00063931230fa_sunaaelyvurpntclgau.jpg,00197940128fa.jpg,sunaaylzyqlqrsmfwif.jpg,00063931230fa.jpg,sunaaelyvurpntclgau.jpg,,,<,Place,,,,,1,,,,,,,x
255,22,Presentation,5,00062931230fb_sunaaelotvjgibjtjhs.jpg,00245940128fa_sunabeyhmxodahoieyk.jpg,00062931230fb.jpg,sunaaelotvjgibjtjhs.jpg,00245940128fa.jpg,sunabeyhmxodahoieyk.jpg,,,>,Place,,,,,1,,,,,,,o
256,22,Presentation,5,00800941205fb_sunagvjurcwdbixvnyi.jpg,00262940128fa_sunabizydfotqddlnjp.jpg,00800941205fb.jpg,sunagvjurcwdbixvnyi.jpg,00262940128fa.jpg,sunabizydfotqddlnjp.jpg,,,<,Face,,,,,1,,,,,,,o
257,22,Presentation,5,00636941031fa_sunaddtdkycxbqlpfqa.jpg,00725941201fa_sunaefgzwiramypjvtd.jpg,00636941031fa.jpg,sunaddtdkycxbqlpfqa.jpg,00725941201fa.jpg,sunaefgzwiramypjvtd.jpg,,,>,Place,,,,,1,,,,,,,o
258,22,Presentation,5,00950960627fa_sunasrjlmglmjzbmqxb.jpg,00999960627fa_sunbvbrvgbpanfrawft.jpg,00950960627fa.jpg,sunasrjlmglmjzbmqxb.jpg,00999960627fa.jpg,sunbvbrvgbpanfrawft.jpg,,,>,Face,,,,,1,,,,,,,x
259,22,Presentation,5,00264940128fb_sunabjzyxcjnmztdonj.jpg,00313940422fa_sunabwjvmoaddlyxfjr.jpg,00264940128fb.jpg,sunabjzyxcjnmztdonj.jpg,00313940422fa.jpg,sunabwjvmoaddlyxfjr.jpg,,,<,Face,,,,,0,,,,,,,x
260,22,Memory,5,,,,,,,00245940128fa.jpg,,,,,,,,,,,,,,,
261,22,Memory,5,,,,,,,00800941205fb.jpg,,,,,,,,,,,,,,,
262,22,Memory,5,,,,,,,sunaknlirqjqiwbbeeg.jpg,,,,,,,,,,,,,,,
263,22,Memory,5,,,,,,,00754941201fa.jpg,,,,,,,,,,,,,,,
264,22,Memory,5,,,,,,,00125931230fa.jpg,,,,,,,,,,,,,,,
265,22,Memory,5,,,,,,,00191940128fb.jpg,,,,,,,,,,,,,,,
266,22,Memory,5,,,,,,,sunaawsdjisukbbginm.jpg,,,,,,,,,,,,,,,
267,22,Memory,5,,,,,,,sunabwmcbaxwioksdgw.jpg,,,,,,,,,,,,,,,
268,22,Memory,5,,,,,,,00779941205fa.jpg,,,,,,,,,,,,,,,
269,22,Memory,5,,,,,,,00554940519fa.jpg,,,,,,,,,,,,,,,
270,22,Memory,5,,,,,,,00314940422fa.jpg,,,,,,,,,,,,,,,
271,22,Memory,5,,,,,,,sunaaelotvjgibjtjhs.jpg,,,,,,,,,,,,,,,
272,22,Memory,5,,,,,,,sunacfdkbsrughwqwtt.jpg,,,,,,,,,,,,,,,
273,22,Memory,5,,,,,,,00943960627fa.jpg,,,,,,,,,,,,,,,
274,22,Memory,5,,,,,,,00987960627fa.jpg,,,,,,,,,,,,,,,
275,22,Memory,5,,,,,,,sunaalltyvjhbzhkmvg.jpg,,,,,,,,,,,,,,,
276,22,Memory,5,,,,,,,00925960627fa.jpg,,,,,,,,,,,,,,,
277,22,Memory,5,,,,,,,sunaffgsyyvoqdlkmnk.jpg,,,,,,,,,,,,,,,
278,22,Memory,5,,,,,,,sunalqmfgeadpqsyzpd.jpg,,,,,,,,,,,,,,,
279,22,Memory,5,,,,,,,00968960627fa.jpg,,,,,,,,,,,,,,,
280,22,Memory,5,,,,,,,00760960620fa.jpg,,,,,,,,,,,,,,,
281,22,Memory,5,,,,,,,sunaefgzwiramypjvtd.jpg,,,,,,,,,,,,,,,
282,22,Memory,5,,,,,,,sunabwjvmoaddlyxfjr.jpg,,,,,,,,,,,,,,,
283,22,Memory,5,,,,,,,sunarpsxqkduedrrzyi.jpg,,,,,,,,,,,,,,,
284,22,Memory,5,,,,,,,sunapqwnqzxlsfvgsjm.jpg,,,,,,,,,,,,,,,
285,22,Memory,5,,,,,,,00062931230fb.jpg,,,,,,,,,,,,,,,
286,22,Memory,5,,,,,,,00882960530fa.jpg,,,,,,,,,,,,,,,
287,22,Memory,5,,,,,,,sunbloeoiozwjjsiamp.jpg,,,,,,,,,,,,,,,
288,22,Memory,5,,,,,,,sunagdzlvkqtpnfxfcg.jpg,,,,,,,,,,,,,,,
289,22,Memory,5,,,,,,,sunaffstbkappprzxnv.jpg,,,,,,,,,,,,,,,
290,22,Memory,5,,,,,,,sunasmmcxdddtmtazwx.jpg,,,,,,,,,,,,,,,
291,22,Memory,5,,,,,,,sunbagfpovqwbuexqdn.jpg,,,,,,,,,,,,,,,
292,22,Memory,5,,,,,,,00313940422fa.jpg,,,,,,,,,,,,,,,
293,22,Memory,5,,,,,,,sunagvjurcwdbixvnyi.jpg,,,,,,,,,,,,,,,
294,22,Memory,5,,,,,,,00894960620fa.jpg,,,,,,,,,,,,,,,
295,22,Memory,5,,,,,,,00947960627fa.jpg,,,,,,,,,,,,,,,
296,22,Memory,5,,,,,,,sunaddtdkycxbqlpfqa.jpg,,,,,,,,,,,,,,,
297,22,Memory,5,,,,,,,sunabeyhmxodahoieyk.jpg,,,,,,,,,,,,,,,
298,22,Memory,5,,,,,,,00725941201fa.jpg,,,,,,,,,,,,,,,
299,22,Memory,5,,,,,,,00636941031fa.jpg,,,,,,,,,,,,,,,
300,22,Presentation,6,00990960627fa_sunbpflsdaxnddnwcqi.jpg,00070940307fa_sunaaeplwsfslcbtojr.jpg,00990960627fa.jpg,sunbpflsdaxnddnwcqi.jpg,00070940307fa.jpg,sunaaeplwsfslcbtojr.jpg,,,>,Place,,,,,1,,,,,,,o
301,22,Presentation,6,00972960627fa_sunbbfqwjpdxniyhies.jpg,00749941201fa_sunaeuvjbmdpknaqqaj.jpg,00972960627fa.jpg,sunbbfqwjpdxniyhies.jpg,00749941201fa.jpg,sunaeuvjbmdpknaqqaj.jpg,,,<,Place,,,,,1,,,,,,,o
302,22,Presentation,6,00095931230fa_sunaahzooisqkwlxwoz.jpg,00753941201fa_sunafcofuuzebuadceo.jpg,00095931230fa.jpg,sunaahzooisqkwlxwoz.jpg,00753941201fa.jpg,sunafcofuuzebuadceo.jpg,,,<,Face,,,,,1,,,,,,,o
303,22,Presentation,6,00997960627fa_sunbtpilbhhbmhmeuzq.jpg,00795941205fa_sunagtumacdlmciqamz.jpg,00997960627fa.jpg,sunbtpilbhhbmhmeuzq.jpg,00795941205fa.jpg,sunagtumacdlmciqamz.jpg,,,<,Face,,,,,1,,,,,,,o
304,22,Presentation,6,00076931230fa_sunaafewhewbxmjiurz.jpg,00775941205fa_sunafvwfsmqkjrutjta.jpg,00076931230fa.jpg,sunaafewhewbxmjiurz.jpg,00775941205fa.jpg,sunafvwfsmqkjrutjta.jpg,,,>,Place,,,,,1,,,,,,,o
305,22,Presentation,6,00979960627fa_sunbdycacjfaujxitbw.jpg,00791941205fa_sunagrmyoovzukhxmlo.jpg,00979960627fa.jpg,sunbdycacjfaujxitbw.jpg,00791941205fa.jpg,sunagrmyoovzukhxmlo.jpg,,,>,Face,,,,,1,,,,,,,o
306,22,Presentation,6,00146960620fb_sunaatpeezlljqaxlhj.jpg,00163931230fb_sunaavodbcpygkggnfp.jpg,00146960620fb.jpg,sunaatpeezlljqaxlhj.jpg,00163931230fb.jpg,sunaavodbcpygkggnfp.jpg,,,>,Face,,,,,1,,,,,,,x
307,22,Presentation,6,00860940307fa_sunaizeyhvjzknwjudw.jpg,00092931230fa_sunaaheqzstzxuadglu.jpg,00860940307fa.jpg,sunaizeyhvjzknwjudw.jpg,00092931230fa.jpg,sunaaheqzstzxuadglu.jpg,,,>,Place,,,,,1,,,,,,,o
308,22,Presentation,6,00828940307fa_sunahuynahneraqftyz.jpg,00977960627fa_sunbbxkanhzjgbwyxqs.jpg,00828940307fa.jpg,sunahuynahneraqftyz.jpg,00977960627fa.jpg,sunbbxkanhzjgbwyxqs.jpg,,,<,Place,,,,,1,,,,,,,x
309,22,Presentation,6,00149931230fa_sunaauglwmctnkxyird.jpg,00915960620fa_sunapileznnbbmrwoei.jpg,00149931230fa.jpg,sunaauglwmctnkxyird.jpg,00915960620fa.jpg,sunapileznnbbmrwoei.jpg,,,<,Face,,,,,1,,,,,,,o
310,22,Memory,6,,,,,,,sunaanjcbzdvtvblsdy.jpg,,,,,,,,,,,,,,,
311,22,Memory,6,,,,,,,sunafcofuuzebuadceo.jpg,,,,,,,,,,,,,,,
312,22,Memory,6,,,,,,,sunbtpilbhhbmhmeuzq.jpg,,,,,,,,,,,,,,,
313,22,Memory,6,,,,,,,00997960627fa.jpg,,,,,,,,,,,,,,,
314,22,Memory,6,,,,,,,00915960620fa.jpg,,,,,,,,,,,,,,,
315,22,Memory,6,,,,,,,00101931230fb.jpg,,,,,,,,,,,,,,,
316,22,Memory,6,,,,,,,00791941205fa.jpg,,,,,,,,,,,,,,,
317,22,Memory,6,,,,,,,sunabwfvcqqidycwypa.jpg,,,,,,,,,,,,,,,
318,22,Memory,6,,,,,,,00996960627fa.jpg,,,,,,,,,,,,,,,
319,22,Memory,6,,,,,,,00308940422fb.jpg,,,,,,,,,,,,,,,
320,22,Memory,6,,,,,,,00775941205fa.jpg,,,,,,,,,,,,,,,
321,22,Memory,6,,,,,,,00720960620fa.jpg,,,,,,,,,,,,,,,
322,22,Memory,6,,,,,,,00871940307.jpg,,,,,,,,,,,,,,,
323,22,Memory,6,,,,,,,sunabxsbfwjccqxxzxq.jpg,,,,,,,,,,,,,,,
324,22,Memory,6,,,,,,,00860940307fa.jpg,,,,,,,,,,,,,,,
325,22,Memory,6,,,,,,,00670941121fa.jpg,,,,,,,,,,,,,,,
326,22,Memory,6,,,,,,,00095931230fa.jpg,,,,,,,,,,,,,,,
327,22,Memory,6,,,,,,,sunaeuvjbmdpknaqqaj.jpg,,,,,,,,,,,,,,,
328,22,Memory,6,,,,,,,00753941201fa.jpg,,,,,,,,,,,,,,,
329,22,Memory,6,,,,,,,sunaizeyhvjzknwjudw.jpg,,,,,,,,,,,,,,,
330,22,Memory,6,,,,,,,sunadochqcucscehsgk.jpg,,,,,,,,,,,,,,,
331,22,Memory,6,,,,,,,sunabbwggenhfbftyvi.jpg,,,,,,,,,,,,,,,
332,22,Memory,6,,,,,,,00749941201fa.jpg,,,,,,,,,,,,,,,
333,22,Memory,6,,,,,,,sunaahzooisqkwlxwoz.jpg,,,,,,,,,,,,,,,
334,22,Memory,6,,,,,,,sunbdycacjfaujxitbw.jpg,,,,,,,,,,,,,,,
335,22,Memory,6,,,,,,,sunafvwfsmqkjrutjta.jpg,,,,,,,,,,,,,,,
336,22,Memory,6,,,,,,,sunaajqmsaavkmgbsth.jpg,,,,,,,,,,,,,,,
337,22,Memory,6,,,,,,,00132931230fb.jpg,,,,,,,,,,,,,,,
338,22,Memory,6,,,,,,,sunapileznnbbmrwoei.jpg,,,,,,,,,,,,,,,
339,22,Memory,6,,,,,,,sunaauglwmctnkxyird.jpg,,,,,,,,,,,,,,,
340,22,Memory,6,,,,,,,sunaecpkgfewqqreqwe.jpg,,,,,,,,,,,,,,,
341,22,Memory,6,,,,,,,sunagrmyoovzukhxmlo.jpg,,,,,,,,,,,,,,,
342,22,Memory,6,,,,,,,sunajrujcsdxmfbssmc.jpg,,,,,,,,,,,,,,,
343,22,Memory,6,,,,,,,00479940519fa.jpg,,,,,,,,,,,,,,,
344,22,Memory,6,,,,,,,sunbpvgllfdejxcpjqp.jpg,,,,,,,,,,,,,,,
345,22,Memory,6,,,,,,,00218940128fa.jpg,,,,,,,,,,,,,,,
346,22,Memory,6,,,,,,,00149931230fa.jpg,,,,,,,,,,,,,,,
347,22,Memory,6,,,,,,,00979960627fa.jpg,,,,,,,,,,,,,,,
348,22,Memory,6,,,,,,,00086931230fa.jpg,,,,,,,,,,,,,,,
349,22,Memory,6,,,,,,,sunaafynehyrzpsoaml.jpg,,,,,,,,,,,,,,,
350,22,Presentation,7,00069931230fb_sunaaeowapdkwzqpgqr.jpg,00108960530fa_sunaajtnvzzpsjdzres.jpg,00069931230fb.jpg,sunaaeowapdkwzqpgqr.jpg,00108960530fa.jpg,sunaajtnvzzpsjdzres.jpg,,,>,Face,,,,,1,,,,,,,o
351,22,Presentation,7,01207940128fa_sundbixjudsgeuuehrn.jpg,00276940422fa_sunabmytpyhsgigllxu.jpg,01207940128fa.jpg,sundbixjudsgeuuehrn.jpg,00276940422fa.jpg,sunabmytpyhsgigllxu.jpg,,,<,Place,,,,,1,,,,,,,x
352,22,Presentation,7,00935960627fa_sunaqbmgkgqucajzrkp.jpg,00162931230fb_sunaavjinpnkappuonm.jpg,00935960627fa.jpg,sunaqbmgkgqucajzrkp.jpg,00162931230fb.jpg,sunaavjinpnkappuonm.jpg,,,<,Face,,,,,1,,,,,,,x
353,22,Presentation,7,00834940307fa_sunaibnpvhkdpdnzcnz.jpg,00120931230fa_sunaakxgygjfqrzpyoz.jpg,00834940307fa.jpg,sunaibnpvhkdpdnzcnz.jpg,00120931230fa.jpg,sunaakxgygjfqrzpyoz.jpg,,,<,Face,,,,,1,,,,,,,o
354,22,Presentation,7,00926960627Fa_sunapqwoeotxshkukbh.jpg,00140931230fb_sunaapllqyqlykszopd.jpg,00926960627Fa.jpg,sunapqwoeotxshkukbh.jpg,00140931230fb.jpg,sunaapllqyqlykszopd.jpg,,,<,Place,,,,,1,,,,,,,o
355,22,Presentation,7,00866940307fa_sunajbwkywmsqkldfml.jpg,00858940307fa_sunaixpqndlwhwjtjek.jpg,00866940307fa.jpg,sunajbwkywmsqkldfml.jpg,00858940307fa.jpg,sunaixpqndlwhwjtjek.jpg,,,>,Face,,,,,1,,,,,,,x
356,22,Presentation,7,00774941201fa_sunafvtpfczkzopbgue.jpg,00876960620fa_sunajwqkfsykceonyig.jpg,00774941201fa.jpg,sunafvtpfczkzopbgue.jpg,00876960620fa.jpg,sunajwqkfsykceonyig.jpg,,,>,Place,,,,,1,,,,,,,o
357,22,Presentation,7,00780960530fa_sunagetqixeypsysbpn.jpg,00633940928fa_sunadbhmrgrrpyzglxs.jpg,00780960530fa.jpg,sunagetqixeypsysbpn.jpg,00633940928fa.jpg,sunadbhmrgrrpyzglxs.jpg,,,>,Place,,,,,1,,,,,,,o
358,22,Presentation,7,00681941121fa_sunadqmjrhfjyuzyvdd.jpg,00919960620fa_sunapmfmzadmosuogaz.jpg,00681941121fa.jpg,sunadqmjrhfjyuzyvdd.jpg,00919960620fa.jpg,sunapmfmzadmosuogaz.jpg,,,>,Face,,,,,1,,,,,,,x
359,22,Presentation,7,00908960530fa_sunanwjjyqqwzqrqagd.jpg,00620940928fa_sunacypmnujalygkunp.jpg,00908960530fa.jpg,sunanwjjyqqwzqrqagd.jpg,00620940928fa.jpg,sunacypmnujalygkunp.jpg,,,<,Place,,,,,1,,,,,,,x
360,22,Memory,7,,,,,,,00938960627fa.jpg,,,,,,,,,,,,,,,
361,22,Memory,7,,,,,,,00276940422fa.jpg,,,,,,,,,,,,,,,
362,22,Memory,7,,,,,,,00620940928fa.jpg,,,,,,,,,,,,,,,
363,22,Memory,7,,,,,,,sunaatjesvdupctftmn.jpg,,,,,,,,,,,,,,,
364,22,Memory,7,,,,,,,sunabaergayifsgacxt.jpg,,,,,,,,,,,,,,,
365,22,Memory,7,,,,,,,00140931230fb.jpg,,,,,,,,,,,,,,,
366,22,Memory,7,,,,,,,00184940128fa.jpg,,,,,,,,,,,,,,,
367,22,Memory,7,,,,,,,sunaibnpvhkdpdnzcnz.jpg,,,,,,,,,,,,,,,
368,22,Memory,7,,,,,,,00145931230fb.jpg,,,,,,,,,,,,,,,
369,22,Memory,7,,,,,,,sunaqyylsngywqzwfmx.jpg,,,,,,,,,,,,,,,
370,22,Memory,7,,,,,,,00834940307fa.jpg,,,,,,,,,,,,,,,
371,22,Memory,7,,,,,,,00780960530fa.jpg,,,,,,,,,,,,,,,
372,22,Memory,7,,,,,,,00681941121fa.jpg,,,,,,,,,,,,,,,
373,22,Memory,7,,,,,,,sunacypmnujalygkunp.jpg,,,,,,,,,,,,,,,
374,22,Memory,7,,,,,,,sunapqkyghktgtosuuk.jpg,,,,,,,,,,,,,,,
375,22,Memory,7,,,,,,,sunaagcpoejbuzyvddd.jpg,,,,,,,,,,,,,,,
376,22,Memory,7,,,,,,,sunaaeowapdkwzqpgqr.jpg,,,,,,,,,,,,,,,
377,22,Memory,7,,,,,,,sunaavtbadenwnzeutj.jpg,,,,,,,,,,,,,,,
378,22,Memory,7,,,,,,,00209940128fb.jpg,,,,,,,,,,,,,,,
379,22,Memory,7,,,,,,,00829940307fa.jpg,,,,,,,,,,,,,,,
380,22,Memory,7,,,,,,,sunadqmjrhfjyuzyvdd.jpg,,,,,,,,,,,,,,,
381,22,Memory,7,,,,,,,00922960627fa.jpg,,,,,,,,,,,,,,,
382,22,Memory,7,,,,,,,sunaijsqpvodplbwxkf.jpg,,,,,,,,,,,,,,,
383,22,Memory,7,,,,,,,sunahwgbqkqcrwprgvh.jpg,,,,,,,,,,,,,,,
384,22,Memory,7,,,,,,,00089931230fa.jpg,,,,,,,,,,,,,,,
385,22,Memory,7,,,,,,,sunapmfmzadmosuogaz.jpg,,,,,,,,,,,,,,,
386,22,Memory,7,,,,,,,00858940307fa.jpg,,,,,,,,,,,,,,,
387,22,Memory,7,,,,,,,00835940307fa.jpg,,,,,,,,,,,,,,,
388,22,Memory,7,,,,,,,00069931230fb.jpg,,,,,,,,,,,,,,,
389,22,Memory,7,,,,,,,sunagetqixeypsysbpn.jpg,,,,,,,,,,,,,,,
390,22,Memory,7,,,,,,,sunaixpqndlwhwjtjek.jpg,,,,,,,,,,,,,,,
391,22,Memory,7,,,,,,,sunabmytpyhsgigllxu.jpg,,,,,,,,,,,,,,,
392,22,Memory,7,,,,,,,00908960530fa.jpg,,,,,,,,,,,,,,,
393,22,Memory,7,,,,,,,00302940422fa.jpg,,,,,,,,,,,,,,,
394,22,Memory,7,,,,,,,sunanwjjyqqwzqrqagd.jpg,,,,,,,,,,,,,,,
395,22,Memory,7,,,,,,,00851940307fa.jpg,,,,,,,,,,,,,,,
396,22,Memory,7,,,,,,,sunaivflshbyfrfzhqb.jpg,,,,,,,,,,,,,,,
397,22,Memory,7,,,,,,,00919960620fa.jpg,,,,,,,,,,,,,,,
398,22,Memory,7,,,,,,,sunabtlfmiwtljmoues.jpg,,,,,,,,,,,,,,,
399,22,Memory,7,,,,,,,sunaapllqyqlykszopd.jpg,,,,,,,,,,,,,,,
