,Subject,Trial Type,Run,Cued Composite,Uncued Composite,Cued Face,Cued Place,Uncued Face,Uncued Place,Memory Image,Category,Cued Side,Cued Category,Attention Reaction Time (s),Familiarity Reaction Time (s),Familiarity Rating,Attention Level,Cue Validity,Post Invalid Cue,Pre Invalid Cue,Attention Button,Rating History,Stimulus Onset,Stimulus End,Attention Probe
310,2,Memory,6,,,,,,,sunadsgmtznewzyasnk.jpg,,,,,1.323,1.0,,,,,,,1550781396.371641,1550781398.422475,
311,2,Memory,6,,,,,,,sunadnjjzohjhbohlwq.jpg,,,,,0.669,4.0,,,,,,,1550781399.705682,1550781401.689819,
312,2,Memory,6,,,,,,,sunaizeyhvjzknwjudw.jpg,,,,,1.271,4.0,,,,,,,1550781402.957682,1550781404.941076,
313,2,Memory,6,,,,,,,sunawksfbacycuhbrsc.jpg,,,,,0.637,1.0,,,,,,,1550781406.291079,1550781408.275327,
314,2,Memory,6,,,,,,,sunaffgsyyvoqdlkmnk.jpg,,,,,0.737,4.0,,,,,,,1550781409.542223,1550781411.5255,
315,2,Memory,6,,,,,,,sunabgfhvifeijihhjw.jpg,,,,,0.97,4.0,,,,,,,1550781412.792513,1550781414.776683,
316,2,Memory,6,,,,,,,sunaavodbcpygkggnfp.jpg,,,,,1.353,1.0,,,,,,,1550781416.076744,1550781418.062535,
317,2,Memory,6,,,,,,,00783941205fa.jpg,,,,,1.252,4.0,,,,,,,1550781419.412706,1550781421.395974,
318,2,Memory,6,,,,,,,00754941201fa.jpg,,,,,0.954,4.0,,,,,,,1550781422.663162,1550781424.646922,
319,2,Memory,6,,,,,,,00882960530fa.jpg,,,,,1.036,4.0,,,,,,,1550781425.930309,1550781427.914296,
320,2,Memory,6,,,,,,,sunathzzbcwjykldrem.jpg,,,,,0.853,1.0,,,,,,,1550781429.182367,1550781431.165518,
321,2,Memory,6,,,,,,,00891960530fa.jpg,,,,,1.554,1.0,,,,,,,1550781432.449383,1550781434.43364,
322,2,Memory,6,,,,,,,sunadpnqovzckyikrjo.jpg,,,,,0.0,,,,,,,,1550781435.700439,1550781437.684608,
323,2,Memory,6,,,,,,,sunaawsdjisukbbginm.jpg,,,,,0.954,4.0,,,,,,,1550781438.968668,1550781440.951923,
324,2,Memory,6,,,,,,,00197940128fa.jpg,,,,,1.154,1.0,,,,,,,1550781442.235913,1550781444.220985,
325,2,Memory,6,,,,,,,00630941031fa.jpg,,,,,0.771,4.0,,,,,,,1550781445.521073,1550781447.504357,
326,2,Memory,6,,,,,,,sunaanjcbzdvtvblsdy.jpg,,,,,1.236,1.0,,,,,,,1550781448.788369,1550781450.771584,
327,2,Memory,6,,,,,,,00676941121fa.jpg,,,,,0.736,4.0,,,,,,,1550781452.039347,1550781454.02344,
328,2,Memory,6,,,,,,,sunagjeesomrwjsfqie.jpg,,,,,0.819,4.0,,,,,,,1550781455.424401,1550781457.407496,
329,2,Memory,6,,,,,,,00700941121fa.jpg,,,,,0.969,1.0,,,,,,,1550781458.691984,1550781460.675853,
330,2,Memory,6,,,,,,,00663941121fa.jpg,,,,,0.702,4.0,,,,,,,1550781461.942219,1550781463.927183,
331,2,Memory,6,,,,,,,00260940128fa.jpg,,,,,1.505,4.0,,,,,,,1550781465.23021,1550781467.232971,
332,2,Memory,6,,,,,,,00132931230fb.jpg,,,,,1.067,1.0,,,,,,,1550781468.532369,1550781470.633902,
333,2,Memory,6,,,,,,,sunabbafjowbzcvbucc.jpg,,,,,0.833,4.0,,,,,,,1550781471.92717,1550781473.935747,
334,2,Memory,6,,,,,,,00910960530fa.jpg,,,,,1.888,1.0,,,,,,,1550781475.283671,1550781477.329128,
335,2,Memory,6,,,,,,,00191940128fb.jpg,,,,,1.433,1.0,,,,,,,1550781478.669651,1550781480.670632,
336,2,Memory,6,,,,,,,sunaaylzyqlqrsmfwif.jpg,,,,,1.189,1.0,,,,,,,1550781481.985027,1550781484.004361,
337,2,Memory,6,,,,,,,sunadakkdovnuzlycvp.jpg,,,,,1.067,4.0,,,,,,,1550781485.304116,1550781487.348941,
338,2,Memory,6,,,,,,,00960960627fa.jpg,,,,,1.541,4.0,,,,,,,1550781488.622638,1550781490.684271,
339,2,Memory,6,,,,,,,sunaaexpnawiehinlpy.jpg,,,,,1.366,4.0,,,,,,,1550781492.005458,1550781494.005127,
340,2,Memory,6,,,,,,,00071940128fa.jpg,,,,,0.999,1.0,,,,,,,1550781495.307074,1550781497.391034,
341,2,Memory,6,,,,,,,sunaknlirqjqiwbbeeg.jpg,,,,,1.284,1.0,,,,,,,1550781498.726032,1550781500.872568,
342,2,Memory,6,,,,,,,00952960627fa.jpg,,,,,0.992,4.0,,,,,,,1550781502.176094,1550781504.189328,
343,2,Memory,6,,,,,,,00163931230fb.jpg,,,,,0.89,4.0,,,,,,,1550781505.577145,1550781507.672898,
344,2,Memory,6,,,,,,,00860940307fa.jpg,,,,,0.899,1.0,,,,,,,1550781508.948623,1550781510.99548,
345,2,Memory,6,,,,,,,00145931230fb.jpg,,,,,1.325,4.0,,,,,,,1550781512.295628,1550781514.342795,
346,2,Memory,6,,,,,,,sunaatjesvdupctftmn.jpg,,,,,0.804,4.0,,,,,,,1550781515.625609,1550781517.609873,
347,2,Memory,6,,,,,,,00214940128fa.jpg,,,,,0.742,1.0,,,,,,,1550781518.914993,1550781520.911536,
348,2,Memory,6,,,,,,,sunalkiibhqpxfamlll.jpg,,,,,1.419,1.0,,,,,,,1550781522.21596,1550781524.214081,
349,2,Memory,6,,,,,,,sunaofikylqtxphvdem.jpg,,,,,1.5,4.0,,,,,,,1550781525.517261,1550781527.567453,
