,Subject,Trial Type,Run,Cued Composite,Uncued Composite,Cued Face,Cued Place,Uncued Face,Uncued Place,Memory Image,Category,Cued Side,Cued Category,Attention Reaction Time (s),Familiarity Reaction Time (s),Familiarity Rating,Attention Level,Cue Validity,Post Invalid Cue,Pre Invalid Cue,Attention Button,Rating History,Stimulus Onset,Stimulus End,Attention Probe
0,4,Presentation,0,00745941205fa_sunaeouogqolxvggaoq.jpg,00529940519fa_sunacbeefkxpymwevpk.jpg,00745941205fa.jpg,sunaeouogqolxvggaoq.jpg,00529940519fa.jpg,sunacbeefkxpymwevpk.jpg,,,<,Face,,,,,1,,,,,,,o
1,4,Presentation,0,00090931230fa_sunaahedjlmtqekgyvj.jpg,00158931230fb_sunaavchcbptaerhcfy.jpg,00090931230fa.jpg,sunaahedjlmtqekgyvj.jpg,00158931230fb.jpg,sunaavchcbptaerhcfy.jpg,,,<,Place,,,,,1,,,,,,,o
2,4,Presentation,0,00194940128fb_sunaayehfdqcyxggsej.jpg,00742941201fa_sunaenwuebvlpdmntju.jpg,00194940128fb.jpg,sunaayehfdqcyxggsej.jpg,00742941201fa.jpg,sunaenwuebvlpdmntju.jpg,,,>,Face,,,,,1,,,,,,,x
3,4,Presentation,0,00663941121fa_sunadnjjzohjhbohlwq.jpg,00564941031fa_sunacsaovnjezqwbykf.jpg,00663941121fa.jpg,sunadnjjzohjhbohlwq.jpg,00564941031fa.jpg,sunacsaovnjezqwbykf.jpg,,,<,Place,,,,,1,,,,,,,x
4,4,Presentation,0,00507940519fa_sunacacflqoyxhsqzhe.jpg,00795941205fa_sunagtumacdlmciqamz.jpg,00507940519fa.jpg,sunacacflqoyxhsqzhe.jpg,00795941205fa.jpg,sunagtumacdlmciqamz.jpg,,,>,Place,,,,,1,,,,,,,o
5,4,Presentation,0,00789960620fa_sunagpancjmxqfazssf.jpg,00062931230fb_sunaaelotvjgibjtjhs.jpg,00789960620fa.jpg,sunagpancjmxqfazssf.jpg,00062931230fb.jpg,sunaaelotvjgibjtjhs.jpg,,,<,Face,,,,,1,,,,,,,x
6,4,Presentation,0,00901960530fa_sunammbnoambmhdxdwd.jpg,00943960627fa_sunarpsxqkduedrrzyi.jpg,00901960530fa.jpg,sunammbnoambmhdxdwd.jpg,00943960627fa.jpg,sunarpsxqkduedrrzyi.jpg,,,>,Place,,,,,1,,,,,,,o
7,4,Presentation,0,00851940307fa_sunaivflshbyfrfzhqb.jpg,00902960530fa_sunanaacmmosxrfwmvl.jpg,00851940307fa.jpg,sunaivflshbyfrfzhqb.jpg,00902960530fa.jpg,sunanaacmmosxrfwmvl.jpg,,,>,Place,,,,,0,,,,,,,x
8,4,Presentation,0,00162931230fb_sunaavjinpnkappuonm.jpg,00985960627fa_sunbgklxeqjhdbyfhhy.jpg,00162931230fb.jpg,sunaavjinpnkappuonm.jpg,00985960627fa.jpg,sunbgklxeqjhdbyfhhy.jpg,,,<,Face,,,,,1,,,,,,,x
9,4,Presentation,0,00719941201fa_sunadvithllcgmfxsrn.jpg,00807941205fa_sunahawfngukizslzsd.jpg,00719941201fa.jpg,sunadvithllcgmfxsrn.jpg,00807941205fa.jpg,sunahawfngukizslzsd.jpg,,,>,Face,,,,,1,,,,,,,o
10,4,Memory,0,,,,,,,00789960620fa.jpg,,,,,,,,,,,,,,,
11,4,Memory,0,,,,,,,sunabctlikybqabezjv.jpg,,,,,,,,,,,,,,,
12,4,Memory,0,,,,,,,sunahawfngukizslzsd.jpg,,,,,,,,,,,,,,,
13,4,Memory,0,,,,,,,00908960530fa.jpg,,,,,,,,,,,,,,,
14,4,Memory,0,,,,,,,sunaafvitpexrpvumsa.jpg,,,,,,,,,,,,,,,
15,4,Memory,0,,,,,,,sunabizydfotqddlnjp.jpg,,,,,,,,,,,,,,,
16,4,Memory,0,,,,,,,sundahdxwmcdluscvot.jpg,,,,,,,,,,,,,,,
17,4,Memory,0,,,,,,,00564940928fa.jpg,,,,,,,,,,,,,,,
18,4,Memory,0,,,,,,,sunaqbmgkgqucajzrkp.jpg,,,,,,,,,,,,,,,
19,4,Memory,0,,,,,,,sunaavchcbptaerhcfy.jpg,,,,,,,,,,,,,,,
20,4,Memory,0,,,,,,,sunaofikylqtxphvdem.jpg,,,,,,,,,,,,,,,
21,4,Memory,0,,,,,,,00807941205fa.jpg,,,,,,,,,,,,,,,
22,4,Memory,0,,,,,,,00935960627fa.jpg,,,,,,,,,,,,,,,
23,4,Memory,0,,,,,,,00262940128fa.jpg,,,,,,,,,,,,,,,
24,4,Memory,0,,,,,,,00062931230fb.jpg,,,,,,,,,,,,,,,
25,4,Memory,0,,,,,,,sunaeouogqolxvggaoq.jpg,,,,,,,,,,,,,,,
26,4,Memory,0,,,,,,,00943960627fa.jpg,,,,,,,,,,,,,,,
27,4,Memory,0,,,,,,,sunaenwuebvlpdmntju.jpg,,,,,,,,,,,,,,,
28,4,Memory,0,,,,,,,01011960627fa.jpg,,,,,,,,,,,,,,,
29,4,Memory,0,,,,,,,00158931230fb.jpg,,,,,,,,,,,,,,,
30,4,Memory,0,,,,,,,sunagpancjmxqfazssf.jpg,,,,,,,,,,,,,,,
31,4,Memory,0,,,,,,,00239940128fa.jpg,,,,,,,,,,,,,,,
32,4,Memory,0,,,,,,,00719941201fa.jpg,,,,,,,,,,,,,,,
33,4,Memory,0,,,,,,,00082931230fa.jpg,,,,,,,,,,,,,,,
34,4,Memory,0,,,,,,,00851940307fa.jpg,,,,,,,,,,,,,,,
35,4,Memory,0,,,,,,,00910960530fa.jpg,,,,,,,,,,,,,,,
36,4,Memory,0,,,,,,,00803941205fa.jpg,,,,,,,,,,,,,,,
37,4,Memory,0,,,,,,,sunarpsxqkduedrrzyi.jpg,,,,,,,,,,,,,,,
38,4,Memory,0,,,,,,,sunacmpqqfbsvlzinzl.jpg,,,,,,,,,,,,,,,
39,4,Memory,0,,,,,,,00144931230fb.jpg,,,,,,,,,,,,,,,
40,4,Memory,0,,,,,,,sunagvxkjokqimstxpe.jpg,,,,,,,,,,,,,,,
41,4,Memory,0,,,,,,,00745941205fa.jpg,,,,,,,,,,,,,,,
42,4,Memory,0,,,,,,,sunaaelotvjgibjtjhs.jpg,,,,,,,,,,,,,,,
43,4,Memory,0,,,,,,,sunanwjjyqqwzqrqagd.jpg,,,,,,,,,,,,,,,
44,4,Memory,0,,,,,,,00090931230fa.jpg,,,,,,,,,,,,,,,
45,4,Memory,0,,,,,,,00742941201fa.jpg,,,,,,,,,,,,,,,
46,4,Memory,0,,,,,,,sunaahedjlmtqekgyvj.jpg,,,,,,,,,,,,,,,
47,4,Memory,0,,,,,,,sunaivflshbyfrfzhqb.jpg,,,,,,,,,,,,,,,
48,4,Memory,0,,,,,,,sunadvithllcgmfxsrn.jpg,,,,,,,,,,,,,,,
49,4,Memory,0,,,,,,,sunaathajvxrgptwhoj.jpg,,,,,,,,,,,,,,,
50,4,Presentation,1,00208940128fa_sunaazzyhbvqjpmazjq.jpg,00631940928fa_sunadbdqzigzwipuipr.jpg,00208940128fa.jpg,sunaazzyhbvqjpmazjq.jpg,00631940928fa.jpg,sunadbdqzigzwipuipr.jpg,,,>,Face,,,,,1,,,,,,,o
51,4,Presentation,1,00922960627fa_sunapqkyghktgtosuuk.jpg,00854940307fa_sunaiwduelojtwaqeyh.jpg,00922960627fa.jpg,sunapqkyghktgtosuuk.jpg,00854940307fa.jpg,sunaiwduelojtwaqeyh.jpg,,,>,Place,,,,,1,,,,,,,o
52,4,Presentation,1,00800941205fb_sunagvjurcwdbixvnyi.jpg,00647941031fa_sunadflbrkckmepztql.jpg,00800941205fb.jpg,sunagvjurcwdbixvnyi.jpg,00647941031fa.jpg,sunadflbrkckmepztql.jpg,,,>,Face,,,,,1,,,,,,,o
53,4,Presentation,1,00785941205fa_sunaglqunwuycxydmyu.jpg,00723941201fa_sunaedtgwjvvziytspa.jpg,00785941205fa.jpg,sunaglqunwuycxydmyu.jpg,00723941201fa.jpg,sunaedtgwjvvziytspa.jpg,,,<,Face,,,,,0,,,,,,,x
54,4,Presentation,1,00260940128fa_sunabgfhvifeijihhjw.jpg,00138931230fa_sunaapfaivxqoynnwwp.jpg,00260940128fa.jpg,sunabgfhvifeijihhjw.jpg,00138931230fa.jpg,sunaapfaivxqoynnwwp.jpg,,,<,Place,,,,,1,,,,,,,o
55,4,Presentation,1,00816941205fa_sunahmhrncocyhsjpxk.jpg,00877960530fa_sunajxpkuhbizeveguy.jpg,00816941205fa.jpg,sunahmhrncocyhsjpxk.jpg,00877960530fa.jpg,sunajxpkuhbizeveguy.jpg,,,<,Place,,,,,0,,,,,,,x
56,4,Presentation,1,00958960627fa_sunavspxmxubqaeidjt.jpg,00828940307fa_sunahuynahneraqftyz.jpg,00958960627fa.jpg,sunavspxmxubqaeidjt.jpg,00828940307fa.jpg,sunahuynahneraqftyz.jpg,,,>,Place,,,,,1,,,,,,,o
57,4,Presentation,1,00115931230fa_sunaakmxzhuceuiryah.jpg,00750941201fa_sunaeuzwggvibufclwf.jpg,00115931230fa.jpg,sunaakmxzhuceuiryah.jpg,00750941201fa.jpg,sunaeuzwggvibufclwf.jpg,,,<,Face,,,,,1,,,,,,,o
58,4,Presentation,1,00146960620fb_sunaatpeezlljqaxlhj.jpg,00086931230fa_sunaafynehyrzpsoaml.jpg,00146960620fb.jpg,sunaatpeezlljqaxlhj.jpg,00086931230fa.jpg,sunaafynehyrzpsoaml.jpg,,,>,Face,,,,,1,,,,,,,x
59,4,Presentation,1,00784941205fb_sunagjzcrjvmxzqzljx.jpg,00288940422fa_sunabppokiyglaxpcha.jpg,00784941205fb.jpg,sunagjzcrjvmxzqzljx.jpg,00288940422fa.jpg,sunabppokiyglaxpcha.jpg,,,<,Place,,,,,1,,,,,,,x
60,4,Memory,1,,,,,,,00306940422fa.jpg,,,,,,,,,,,,,,,
61,4,Memory,1,,,,,,,00730960620fa.jpg,,,,,,,,,,,,,,,
62,4,Memory,1,,,,,,,sunaazzyhbvqjpmazjq.jpg,,,,,,,,,,,,,,,
63,4,Memory,1,,,,,,,sunavspxmxubqaeidjt.jpg,,,,,,,,,,,,,,,
64,4,Memory,1,,,,,,,sunachtuarilwyqnvjx.jpg,,,,,,,,,,,,,,,
65,4,Memory,1,,,,,,,00784941205fb.jpg,,,,,,,,,,,,,,,
66,4,Memory,1,,,,,,,00681941121fa.jpg,,,,,,,,,,,,,,,
67,4,Memory,1,,,,,,,sunabppokiyglaxpcha.jpg,,,,,,,,,,,,,,,
68,4,Memory,1,,,,,,,sunaafgqutfaishsxyu.jpg,,,,,,,,,,,,,,,
69,4,Memory,1,,,,,,,sunaajuzribjrizdshh.jpg,,,,,,,,,,,,,,,
70,4,Memory,1,,,,,,,sunaloffvbvysigxent.jpg,,,,,,,,,,,,,,,
71,4,Memory,1,,,,,,,00086931230fa.jpg,,,,,,,,,,,,,,,
72,4,Memory,1,,,,,,,sunaijsqpvodplbwxkf.jpg,,,,,,,,,,,,,,,
73,4,Memory,1,,,,,,,sunabueyoajufbkraki.jpg,,,,,,,,,,,,,,,
74,4,Memory,1,,,,,,,00146960620fb.jpg,,,,,,,,,,,,,,,
75,4,Memory,1,,,,,,,sunaafynehyrzpsoaml.jpg,,,,,,,,,,,,,,,
76,4,Memory,1,,,,,,,00077931230fb.jpg,,,,,,,,,,,,,,,
77,4,Memory,1,,,,,,,sunaatjesvdupctftmn.jpg,,,,,,,,,,,,,,,
78,4,Memory,1,,,,,,,00631940928fa.jpg,,,,,,,,,,,,,,,
79,4,Memory,1,,,,,,,00958960627fa.jpg,,,,,,,,,,,,,,,
80,4,Memory,1,,,,,,,00835940307fa.jpg,,,,,,,,,,,,,,,
81,4,Memory,1,,,,,,,sunaekgzpfilgjxpeyq.jpg,,,,,,,,,,,,,,,
82,4,Memory,1,,,,,,,00109931230fa.jpg,,,,,,,,,,,,,,,
83,4,Memory,1,,,,,,,00557940519fa.jpg,,,,,,,,,,,,,,,
84,4,Memory,1,,,,,,,00288940422fa.jpg,,,,,,,,,,,,,,,
85,4,Memory,1,,,,,,,sunaiwduelojtwaqeyh.jpg,,,,,,,,,,,,,,,
86,4,Memory,1,,,,,,,00208940128fa.jpg,,,,,,,,,,,,,,,
87,4,Memory,1,,,,,,,sunaatpeezlljqaxlhj.jpg,,,,,,,,,,,,,,,
88,4,Memory,1,,,,,,,sunagjzcrjvmxzqzljx.jpg,,,,,,,,,,,,,,,
89,4,Memory,1,,,,,,,sunadbdqzigzwipuipr.jpg,,,,,,,,,,,,,,,
90,4,Memory,1,,,,,,,sunagrmyoovzukhxmlo.jpg,,,,,,,,,,,,,,,
91,4,Memory,1,,,,,,,sunadqmjrhfjyuzyvdd.jpg,,,,,,,,,,,,,,,
92,4,Memory,1,,,,,,,sunaapfaivxqoynnwwp.jpg,,,,,,,,,,,,,,,
93,4,Memory,1,,,,,,,00785941205fa.jpg,,,,,,,,,,,,,,,
94,4,Memory,1,,,,,,,sunaglqunwuycxydmyu.jpg,,,,,,,,,,,,,,,
95,4,Memory,1,,,,,,,00138931230fa.jpg,,,,,,,,,,,,,,,
96,4,Memory,1,,,,,,,00791941205fa.jpg,,,,,,,,,,,,,,,
97,4,Memory,1,,,,,,,00854940307fa.jpg,,,,,,,,,,,,,,,
98,4,Memory,1,,,,,,,00145931230fb.jpg,,,,,,,,,,,,,,,
99,4,Memory,1,,,,,,,00893960530Fa.jpg,,,,,,,,,,,,,,,
100,4,Presentation,2,00149931230fa_sunaauglwmctnkxyird.jpg,00891960530fa_sunalkiibhqpxfamlll.jpg,00149931230fa.jpg,sunaauglwmctnkxyird.jpg,00891960530fa.jpg,sunalkiibhqpxfamlll.jpg,,,<,Place,,,,,1,,,,,,,x
101,4,Presentation,2,00313940422fa_sunabwjvmoaddlyxfjr.jpg,00773941201fa_sunafvcflzhlqloapyo.jpg,00313940422fa.jpg,sunabwjvmoaddlyxfjr.jpg,00773941201fa.jpg,sunafvcflzhlqloapyo.jpg,,,>,Face,,,,,1,,,,,,,o
102,4,Presentation,2,00903960620fa_sunanainkqdvktzoxyl.jpg,00972960627fa_sunbbfqwjpdxniyhies.jpg,00903960620fa.jpg,sunanainkqdvktzoxyl.jpg,00972960627fa.jpg,sunbbfqwjpdxniyhies.jpg,,,<,Face,,,,,1,,,,,,,x
103,4,Presentation,2,00752960620fa_sunafbwnojpqeyzssoe.jpg,00568940928fa_sunacsdhbbsybcyxnel.jpg,00752960620fa.jpg,sunafbwnojpqeyzssoe.jpg,00568940928fa.jpg,sunacsdhbbsybcyxnel.jpg,,,>,Place,,,,,1,,,,,,,o
104,4,Presentation,2,00778941205fa_sunagcthdfirrcawoic.jpg,00081941031fa_sunaaftlyfudyzuhqzf.jpg,00778941205fa.jpg,sunagcthdfirrcawoic.jpg,00081941031fa.jpg,sunaaftlyfudyzuhqzf.jpg,,,<,Place,,,,,1,,,,,,,x
105,4,Presentation,2,00857940307fa_sunaiwfobocrruqznsv.jpg,00968960627fa_sunbagfpovqwbuexqdn.jpg,00857940307fa.jpg,sunaiwfobocrruqznsv.jpg,00968960627fa.jpg,sunbagfpovqwbuexqdn.jpg,,,>,Face,,,,,0,,,,,,,x
106,4,Presentation,2,00746941201fa_sunaetydippjxikifsb.jpg,00900960530fa_sunamlotskmmsjeogby.jpg,00746941201fa.jpg,sunaetydippjxikifsb.jpg,00900960530fa.jpg,sunamlotskmmsjeogby.jpg,,,>,Place,,,,,1,,,,,,,o
107,4,Presentation,2,01004960627fa_sunbwtlihsuptkrckid.jpg,00267940128fb_sunablfqiwfqomjarht.jpg,01004960627fa.jpg,sunbwtlihsuptkrckid.jpg,00267940128fb.jpg,sunablfqiwfqomjarht.jpg,,,<,Face,,,,,1,,,,,,,x
108,4,Presentation,2,00598940928fa_sunacxeheuiigkcgquf.jpg,00809960620fa_sunahbvlpavurqoxdeq.jpg,00598940928fa.jpg,sunacxeheuiigkcgquf.jpg,00809960620fa.jpg,sunahbvlpavurqoxdeq.jpg,,,<,Face,,,,,1,,,,,,,x
109,4,Presentation,2,00957960627fa_sunavhxgmgrqsaptynb.jpg,00271940422fa_sunabmbnddafmywtjjj.jpg,00957960627fa.jpg,sunavhxgmgrqsaptynb.jpg,00271940422fa.jpg,sunabmbnddafmywtjjj.jpg,,,>,Place,,,,,1,,,,,,,x
110,4,Memory,2,,,,,,,sunafvcflzhlqloapyo.jpg,,,,,,,,,,,,,,,
111,4,Memory,2,,,,,,,sunaauglwmctnkxyird.jpg,,,,,,,,,,,,,,,
112,4,Memory,2,,,,,,,00988960627fa.jpg,,,,,,,,,,,,,,,
113,4,Memory,2,,,,,,,00955960627fb.jpg,,,,,,,,,,,,,,,
114,4,Memory,2,,,,,,,01005960627fa.jpg,,,,,,,,,,,,,,,
115,4,Memory,2,,,,,,,00773941201fa.jpg,,,,,,,,,,,,,,,
116,4,Memory,2,,,,,,,00809960620fa.jpg,,,,,,,,,,,,,,,
117,4,Memory,2,,,,,,,sunadbhmrgrrpyzglxs.jpg,,,,,,,,,,,,,,,
118,4,Memory,2,,,,,,,00562941031fa.jpg,,,,,,,,,,,,,,,
119,4,Memory,2,,,,,,,sunabmbnddafmywtjjj.jpg,,,,,,,,,,,,,,,
120,4,Memory,2,,,,,,,00267940128fb.jpg,,,,,,,,,,,,,,,
121,4,Memory,2,,,,,,,00857940307fa.jpg,,,,,,,,,,,,,,,
122,4,Memory,2,,,,,,,sunanainkqdvktzoxyl.jpg,,,,,,,,,,,,,,,
123,4,Memory,2,,,,,,,sunaiwfobocrruqznsv.jpg,,,,,,,,,,,,,,,
124,4,Memory,2,,,,,,,00903960620fa.jpg,,,,,,,,,,,,,,,
125,4,Memory,2,,,,,,,sunauburywlkjszngcq.jpg,,,,,,,,,,,,,,,
126,4,Memory,2,,,,,,,sunaakvmbftkrgqhjun.jpg,,,,,,,,,,,,,,,
127,4,Memory,2,,,,,,,sunaaeowapdkwzqpgqr.jpg,,,,,,,,,,,,,,,
128,4,Memory,2,,,,,,,sunbwyuesflwdpqtgoy.jpg,,,,,,,,,,,,,,,
129,4,Memory,2,,,,,,,00914960620fa.jpg,,,,,,,,,,,,,,,
130,4,Memory,2,,,,,,,sunahbvlpavurqoxdeq.jpg,,,,,,,,,,,,,,,
131,4,Memory,2,,,,,,,sunbagfpovqwbuexqdn.jpg,,,,,,,,,,,,,,,
132,4,Memory,2,,,,,,,00069931230fb.jpg,,,,,,,,,,,,,,,
133,4,Memory,2,,,,,,,sunaeoghzrjarigmwua.jpg,,,,,,,,,,,,,,,
134,4,Memory,2,,,,,,,00743941201fa.jpg,,,,,,,,,,,,,,,
135,4,Memory,2,,,,,,,00598940928fa.jpg,,,,,,,,,,,,,,,
136,4,Memory,2,,,,,,,sunacxeheuiigkcgquf.jpg,,,,,,,,,,,,,,,
137,4,Memory,2,,,,,,,00149931230fa.jpg,,,,,,,,,,,,,,,
138,4,Memory,2,,,,,,,00746941201fa.jpg,,,,,,,,,,,,,,,
139,4,Memory,2,,,,,,,sunaozisvwfbmlkfhzv.jpg,,,,,,,,,,,,,,,
140,4,Memory,2,,,,,,,00119931230fb.jpg,,,,,,,,,,,,,,,
141,4,Memory,2,,,,,,,00271940422fa.jpg,,,,,,,,,,,,,,,
142,4,Memory,2,,,,,,,sunahgtbwgsmtqeodwh.jpg,,,,,,,,,,,,,,,
143,4,Memory,2,,,,,,,00633940928fa.jpg,,,,,,,,,,,,,,,
144,4,Memory,2,,,,,,,sunacjnahdmqfnjfwqx.jpg,,,,,,,,,,,,,,,
145,4,Memory,2,,,,,,,sunablfqiwfqomjarht.jpg,,,,,,,,,,,,,,,
146,4,Memory,2,,,,,,,00968960627fa.jpg,,,,,,,,,,,,,,,
147,4,Memory,2,,,,,,,sunaetydippjxikifsb.jpg,,,,,,,,,,,,,,,
148,4,Memory,2,,,,,,,00812941205fa.jpg,,,,,,,,,,,,,,,
149,4,Memory,2,,,,,,,sunbmaiocftdtvnzgap.jpg,,,,,,,,,,,,,,,
150,4,Presentation,3,00989960627fa_sunbondbduabvijnmch.jpg,00540940519fa_sunacdnquypmsshhsbk.jpg,00989960627fa.jpg,sunbondbduabvijnmch.jpg,00540940519fa.jpg,sunacdnquypmsshhsbk.jpg,,,<,Place,,,,,1,,,,,,,x
151,4,Presentation,3,00598941031fa_sunacxtcahkymosigud.jpg,00760960620fa_sunaffstbkappprzxnv.jpg,00598941031fa.jpg,sunacxtcahkymosigud.jpg,00760960620fa.jpg,sunaffstbkappprzxnv.jpg,,,<,Face,,,,,1,,,,,,,o
152,4,Presentation,3,00209940128fb_sunabaergayifsgacxt.jpg,00296940422fa_sunabrwnslxalcohfre.jpg,00209940128fb.jpg,sunabaergayifsgacxt.jpg,00296940422fa.jpg,sunabrwnslxalcohfre.jpg,,,<,Face,,,,,1,,,,,,,o
153,4,Presentation,3,00895960530fa_sunamczizlzavhzhpay.jpg,00997960627fa_sunbtpilbhhbmhmeuzq.jpg,00895960530fa.jpg,sunamczizlzavhzhpay.jpg,00997960627fa.jpg,sunbtpilbhhbmhmeuzq.jpg,,,>,Face,,,,,1,,,,,,,x
154,4,Presentation,3,00080931230fb_sunaafjszryxyavjzln.jpg,00263940128fb_sunabjuovqvyfuzvqwt.jpg,00080931230fb.jpg,sunaafjszryxyavjzln.jpg,00263940128fb.jpg,sunabjuovqvyfuzvqwt.jpg,,,>,Place,,,,,1,,,,,,,o
155,4,Presentation,3,00894960620fa_sunalqmfgeadpqsyzpd.jpg,01007960627fa_sunbxarcshsnqsefemx.jpg,00894960620fa.jpg,sunalqmfgeadpqsyzpd.jpg,01007960627fa.jpg,sunbxarcshsnqsefemx.jpg,,,>,Face,,,,,1,,,,,,,x
156,4,Presentation,3,00839940307fa_sunaipyohrqlwngaqif.jpg,00581940928fa_sunacvzhvcksnwqcqbw.jpg,00839940307fa.jpg,sunaipyohrqlwngaqif.jpg,00581940928fa.jpg,sunacvzhvcksnwqcqbw.jpg,,,>,Place,,,,,1,,,,,,,o
157,4,Presentation,3,00939960627fa_sunarceibpcyacbmfga.jpg,00609940928fa_sunacycdoztxoluxjyk.jpg,00939960627fa.jpg,sunarceibpcyacbmfga.jpg,00609940928fa.jpg,sunacycdoztxoluxjyk.jpg,,,>,Place,,,,,1,,,,,,,o
158,4,Presentation,3,00265940128fb_sunabkmdplkdbvxriff.jpg,00961960627fa_sunawotxrevnqvamsfp.jpg,00265940128fb.jpg,sunabkmdplkdbvxriff.jpg,00961960627fa.jpg,sunawotxrevnqvamsfp.jpg,,,<,Place,,,,,1,,,,,,,o
159,4,Presentation,3,00963960627fa_sunayaepykrqvenaqqy.jpg,00841940307fa_sunaisiwfgppimtnmxl.jpg,00963960627fa.jpg,sunayaepykrqvenaqqy.jpg,00841940307fa.jpg,sunaisiwfgppimtnmxl.jpg,,,<,Face,,,,,1,,,,,,,o
160,4,Memory,3,,,,,,,sunaeomlfaabhpswasy.jpg,,,,,,,,,,,,,,,
161,4,Memory,3,,,,,,,sunaccdtpgenvcbcbcf.jpg,,,,,,,,,,,,,,,
162,4,Memory,3,,,,,,,00965960627fa.jpg,,,,,,,,,,,,,,,
163,4,Memory,3,,,,,,,sunacdnquypmsshhsbk.jpg,,,,,,,,,,,,,,,
164,4,Memory,3,,,,,,,sunaafjszryxyavjzln.jpg,,,,,,,,,,,,,,,
165,4,Memory,3,,,,,,,00744941201fa.jpg,,,,,,,,,,,,,,,
166,4,Memory,3,,,,,,,00630941031fa.jpg,,,,,,,,,,,,,,,
167,4,Memory,3,,,,,,,00989960627fa.jpg,,,,,,,,,,,,,,,
168,4,Memory,3,,,,,,,sunafxokyavhgptyfye.jpg,,,,,,,,,,,,,,,
169,4,Memory,3,,,,,,,sunacuatpqpqhyjhjqk.jpg,,,,,,,,,,,,,,,
170,4,Memory,3,,,,,,,00581940928fa.jpg,,,,,,,,,,,,,,,
171,4,Memory,3,,,,,,,sunaydywdmvlfddbxbk.jpg,,,,,,,,,,,,,,,
172,4,Memory,3,,,,,,,sunaaehaikpckyjsety.jpg,,,,,,,,,,,,,,,
173,4,Memory,3,,,,,,,sunayaepykrqvenaqqy.jpg,,,,,,,,,,,,,,,
174,4,Memory,3,,,,,,,sunagmhildamktmqjss.jpg,,,,,,,,,,,,,,,
175,4,Memory,3,,,,,,,00080931230fb.jpg,,,,,,,,,,,,,,,
176,4,Memory,3,,,,,,,sunbtpilbhhbmhmeuzq.jpg,,,,,,,,,,,,,,,
177,4,Memory,3,,,,,,,00540940519fa.jpg,,,,,,,,,,,,,,,
178,4,Memory,3,,,,,,,00060931230fa.jpg,,,,,,,,,,,,,,,
179,4,Memory,3,,,,,,,00931960627fa.jpg,,,,,,,,,,,,,,,
180,4,Memory,3,,,,,,,sunabrlndkruqokhury.jpg,,,,,,,,,,,,,,,
181,4,Memory,3,,,,,,,00265940128fb.jpg,,,,,,,,,,,,,,,
182,4,Memory,3,,,,,,,sunaptrqvaooxfvktvw.jpg,,,,,,,,,,,,,,,
183,4,Memory,3,,,,,,,sunadakkdovnuzlycvp.jpg,,,,,,,,,,,,,,,
184,4,Memory,3,,,,,,,sunamczizlzavhzhpay.jpg,,,,,,,,,,,,,,,
185,4,Memory,3,,,,,,,00609940928fa.jpg,,,,,,,,,,,,,,,
186,4,Memory,3,,,,,,,00532960627fa.jpg,,,,,,,,,,,,,,,
187,4,Memory,3,,,,,,,00895960530fa.jpg,,,,,,,,,,,,,,,
188,4,Memory,3,,,,,,,sunbondbduabvijnmch.jpg,,,,,,,,,,,,,,,
189,4,Memory,3,,,,,,,00997960627fa.jpg,,,,,,,,,,,,,,,
190,4,Memory,3,,,,,,,00963960627fa.jpg,,,,,,,,,,,,,,,
191,4,Memory,3,,,,,,,00841940307fa.jpg,,,,,,,,,,,,,,,
192,4,Memory,3,,,,,,,00571940928fa.jpg,,,,,,,,,,,,,,,
193,4,Memory,3,,,,,,,sunacvzhvcksnwqcqbw.jpg,,,,,,,,,,,,,,,
194,4,Memory,3,,,,,,,00294940422fb.jpg,,,,,,,,,,,,,,,
195,4,Memory,3,,,,,,,sunabkmdplkdbvxriff.jpg,,,,,,,,,,,,,,,
196,4,Memory,3,,,,,,,sunacycdoztxoluxjyk.jpg,,,,,,,,,,,,,,,
197,4,Memory,3,,,,,,,sunaisiwfgppimtnmxl.jpg,,,,,,,,,,,,,,,
198,4,Memory,3,,,,,,,00776941205fa.jpg,,,,,,,,,,,,,,,
199,4,Memory,3,,,,,,,00786941205fa.jpg,,,,,,,,,,,,,,,
200,4,Presentation,4,00869940307fa_sunajoveqhiprwqgoco.jpg,00792941205fa_sunagsiwrmuixqgdimb.jpg,00869940307fa.jpg,sunajoveqhiprwqgoco.jpg,00792941205fa.jpg,sunagsiwrmuixqgdimb.jpg,,,<,Face,,,,,1,,,,,,,o
201,4,Presentation,4,00111931230fb_sunaakgekhjklxmvulj.jpg,00952960627fa_sunathzzbcwjykldrem.jpg,00111931230fb.jpg,sunaakgekhjklxmvulj.jpg,00952960627fa.jpg,sunathzzbcwjykldrem.jpg,,,>,Face,,,,,1,,,,,,,x
202,4,Presentation,4,00749941201fa_sunaeuvjbmdpknaqqaj.jpg,00635941031fa_sunaddsaeicthrfbkhe.jpg,00749941201fa.jpg,sunaeuvjbmdpknaqqaj.jpg,00635941031fa.jpg,sunaddsaeicthrfbkhe.jpg,,,<,Face,,,,,1,,,,,,,x
203,4,Presentation,4,00768941205fa_sunafkmnlytenlsywia.jpg,00630940928fa_sunaczwgyukesaajxnx.jpg,00768941205fa.jpg,sunafkmnlytenlsywia.jpg,00630940928fa.jpg,sunaczwgyukesaajxnx.jpg,,,<,Place,,,,,1,,,,,,,o
204,4,Presentation,4,00096931230fa_sunaaiqiqcggrskoqgy.jpg,00822940307fa_sunahqrxievfeusiqlt.jpg,00096931230fa.jpg,sunaaiqiqcggrskoqgy.jpg,00822940307fa.jpg,sunahqrxievfeusiqlt.jpg,,,>,Place,,,,,1,,,,,,,x
205,4,Presentation,4,00576941031fa_sunacvjlsylseoghjup.jpg,00987960627fa_sunbloeoiozwjjsiamp.jpg,00576941031fa.jpg,sunacvjlsylseoghjup.jpg,00987960627fa.jpg,sunbloeoiozwjjsiamp.jpg,,,>,Place,,,,,1,,,,,,,o
206,4,Presentation,4,00108960530fa_sunaajtnvzzpsjdzres.jpg,00793941205fa_sunagtjwilqjvxohypn.jpg,00108960530fa.jpg,sunaajtnvzzpsjdzres.jpg,00793941205fa.jpg,sunagtjwilqjvxohypn.jpg,,,<,Place,,,,,1,,,,,,,x
207,4,Presentation,4,00942960627fa_sunarfdklgdnjgeqfjg.jpg,00276940422fa_sunabmytpyhsgigllxu.jpg,00942960627fa.jpg,sunarfdklgdnjgeqfjg.jpg,00276940422fa.jpg,sunabmytpyhsgigllxu.jpg,,,<,Place,,,,,1,,,,,,,x
208,4,Presentation,4,00235940128fb_sunabclssnoeuigtawp.jpg,00636941031fa_sunaddtdkycxbqlpfqa.jpg,00235940128fb.jpg,sunabclssnoeuigtawp.jpg,00636941031fa.jpg,sunaddtdkycxbqlpfqa.jpg,,,>,Face,,,,,1,,,,,,,x
209,4,Presentation,4,00866940307fa_sunajbwkywmsqkldfml.jpg,00801941205fa_sunagvprlbprarvgdvj.jpg,00866940307fa.jpg,sunajbwkywmsqkldfml.jpg,00801941205fa.jpg,sunagvprlbprarvgdvj.jpg,,,>,Face,,,,,1,,,,,,,x
210,4,Memory,4,,,,,,,00987960627fa.jpg,,,,,,,,,,,,,,,
211,4,Memory,4,,,,,,,00096931230fa.jpg,,,,,,,,,,,,,,,
212,4,Memory,4,,,,,,,00825940307fa.jpg,,,,,,,,,,,,,,,
213,4,Memory,4,,,,,,,00636941031fa.jpg,,,,,,,,,,,,,,,
214,4,Memory,4,,,,,,,sunaaiqiqcggrskoqgy.jpg,,,,,,,,,,,,,,,
215,4,Memory,4,,,,,,,00772941201fa.jpg,,,,,,,,,,,,,,,
216,4,Memory,4,,,,,,,sunahqrxievfeusiqlt.jpg,,,,,,,,,,,,,,,
217,4,Memory,4,,,,,,,00982960627fa.jpg,,,,,,,,,,,,,,,
218,4,Memory,4,,,,,,,sunaivdjruhkrfywfed.jpg,,,,,,,,,,,,,,,
219,4,Memory,4,,,,,,,00801941205fa.jpg,,,,,,,,,,,,,,,
220,4,Memory,4,,,,,,,sunafkmnlytenlsywia.jpg,,,,,,,,,,,,,,,
221,4,Memory,4,,,,,,,sunahrltmuwbiehihpe.jpg,,,,,,,,,,,,,,,
222,4,Memory,4,,,,,,,00847940307fa.jpg,,,,,,,,,,,,,,,
223,4,Memory,4,,,,,,,sunagvprlbprarvgdvj.jpg,,,,,,,,,,,,,,,
224,4,Memory,4,,,,,,,00936960627fa.jpg,,,,,,,,,,,,,,,
225,4,Memory,4,,,,,,,sunabmytpyhsgigllxu.jpg,,,,,,,,,,,,,,,
226,4,Memory,4,,,,,,,sunakgbnzxmfohgehnu.jpg,,,,,,,,,,,,,,,
227,4,Memory,4,,,,,,,sunafpfpiiujzoesnqg.jpg,,,,,,,,,,,,,,,
228,4,Memory,4,,,,,,,00576941031fa.jpg,,,,,,,,,,,,,,,
229,4,Memory,4,,,,,,,00822940307fa.jpg,,,,,,,,,,,,,,,
230,4,Memory,4,,,,,,,00101931230fb.jpg,,,,,,,,,,,,,,,
231,4,Memory,4,,,,,,,sunacvjlsylseoghjup.jpg,,,,,,,,,,,,,,,
232,4,Memory,4,,,,,,,00754941201fa.jpg,,,,,,,,,,,,,,,
233,4,Memory,4,,,,,,,sunaajqmsaavkmgbsth.jpg,,,,,,,,,,,,,,,
234,4,Memory,4,,,,,,,00777941205fa.jpg,,,,,,,,,,,,,,,
235,4,Memory,4,,,,,,,sunbesrwkdsffeogeqq.jpg,,,,,,,,,,,,,,,
236,4,Memory,4,,,,,,,sunaqgjuuwvdcyiccjt.jpg,,,,,,,,,,,,,,,
237,4,Memory,4,,,,,,,sunaajtnvzzpsjdzres.jpg,,,,,,,,,,,,,,,
238,4,Memory,4,,,,,,,sunasnqkkyhilqkxiqm.jpg,,,,,,,,,,,,,,,
239,4,Memory,4,,,,,,,sunagcinxkccdtrjmlv.jpg,,,,,,,,,,,,,,,
240,4,Memory,4,,,,,,,sunajoveqhiprwqgoco.jpg,,,,,,,,,,,,,,,
241,4,Memory,4,,,,,,,00768941205fa.jpg,,,,,,,,,,,,,,,
242,4,Memory,4,,,,,,,sunaffgsyyvoqdlkmnk.jpg,,,,,,,,,,,,,,,
243,4,Memory,4,,,,,,,00878960530fa.jpg,,,,,,,,,,,,,,,
244,4,Memory,4,,,,,,,00108960530fa.jpg,,,,,,,,,,,,,,,
245,4,Memory,4,,,,,,,00869940307fa.jpg,,,,,,,,,,,,,,,
246,4,Memory,4,,,,,,,sunaddtdkycxbqlpfqa.jpg,,,,,,,,,,,,,,,
247,4,Memory,4,,,,,,,00276940422fa.jpg,,,,,,,,,,,,,,,
248,4,Memory,4,,,,,,,00949960627fb.jpg,,,,,,,,,,,,,,,
249,4,Memory,4,,,,,,,sunbloeoiozwjjsiamp.jpg,,,,,,,,,,,,,,,
250,4,Presentation,5,00112931230fa_sunaakjaacuzulqckgl.jpg,00242940128fa_sunabcuurugvxwparpk.jpg,00112931230fa.jpg,sunaakjaacuzulqckgl.jpg,00242940128fa.jpg,sunabcuurugvxwparpk.jpg,,,<,Place,,,,,1,,,,,,,o
251,4,Presentation,5,00266940128fb_sunabkngeblodihjvbk.jpg,01207940128fa_sundbixjudsgeuuehrn.jpg,00266940128fb.jpg,sunabkngeblodihjvbk.jpg,01207940128fa.jpg,sundbixjudsgeuuehrn.jpg,,,>,Place,,,,,1,,,,,,,x
252,4,Presentation,5,00799941205fa_sunagutjvdvnhxejerz.jpg,00937960627fa_sunaqsolmfydodnakub.jpg,00799941205fa.jpg,sunagutjvdvnhxejerz.jpg,00937960627fa.jpg,sunaqsolmfydodnakub.jpg,,,<,Face,,,,,0,,,,,,,x
253,4,Presentation,5,00779941205fa_sunagdzlvkqtpnfxfcg.jpg,00984960627fa_sunbfzchmomnvzhbxdg.jpg,00779941205fa.jpg,sunagdzlvkqtpnfxfcg.jpg,00984960627fa.jpg,sunbfzchmomnvzhbxdg.jpg,,,>,Face,,,,,1,,,,,,,o
254,4,Presentation,5,00858940307fa_sunaixpqndlwhwjtjek.jpg,00097931230fa_sunaajayojuslbbnneg.jpg,00858940307fa.jpg,sunaixpqndlwhwjtjek.jpg,00097931230fa.jpg,sunaajayojuslbbnneg.jpg,,,>,Place,,,,,1,,,,,,,o
255,4,Presentation,5,00953960627fa_sunatstrpjxhvtbaczf.jpg,00774941201fa_sunafvtpfczkzopbgue.jpg,00953960627fa.jpg,sunatstrpjxhvtbaczf.jpg,00774941201fa.jpg,sunafvtpfczkzopbgue.jpg,,,>,Place,,,,,1,,,,,,,x
256,4,Presentation,5,00986960627fa_sunbgzjryivyczuvkvm.jpg,00838940307fa_sunaiozxhxgtfrmoagh.jpg,00986960627fa.jpg,sunbgzjryivyczuvkvm.jpg,00838940307fa.jpg,sunaiozxhxgtfrmoagh.jpg,,,<,Face,,,,,1,,,,,,,x
257,4,Presentation,5,00864940307fa_sunajawzbrlrwafowen.jpg,00218940128fa_sunabbwggenhfbftyvi.jpg,00864940307fa.jpg,sunajawzbrlrwafowen.jpg,00218940128fa.jpg,sunabbwggenhfbftyvi.jpg,,,<,Face,,,,,1,,,,,,,x
258,4,Presentation,5,00089931230fa_sunaagcpoejbuzyvddd.jpg,00818940307fa_sunahpblecxtmuzkmxb.jpg,00089931230fa.jpg,sunaagcpoejbuzyvddd.jpg,00818940307fa.jpg,sunahpblecxtmuzkmxb.jpg,,,<,Place,,,,,1,,,,,,,o
259,4,Presentation,5,00810941205fa_sunahctntqrunhdxhtb.jpg,00136931230fb_sunaanptmsknhirrzed.jpg,00810941205fa.jpg,sunahctntqrunhdxhtb.jpg,00136931230fb.jpg,sunaanptmsknhirrzed.jpg,,,>,Face,,,,,0,,,,,,,x
260,4,Memory,5,,,,,,,sunahpblecxtmuzkmxb.jpg,,,,,,,,,,,,,,,
261,4,Memory,5,,,,,,,00097931230fa.jpg,,,,,,,,,,,,,,,
262,4,Memory,5,,,,,,,sunaflojskatpeqyzqp.jpg,,,,,,,,,,,,,,,
263,4,Memory,5,,,,,,,sunaalhlvzmjmitybdn.jpg,,,,,,,,,,,,,,,
264,4,Memory,5,,,,,,,00969960627fa.jpg,,,,,,,,,,,,,,,
265,4,Memory,5,,,,,,,00929960627fa.jpg,,,,,,,,,,,,,,,
266,4,Memory,5,,,,,,,00727941205fa.jpg,,,,,,,,,,,,,,,
267,4,Memory,5,,,,,,,sunaibnpvhkdpdnzcnz.jpg,,,,,,,,,,,,,,,
268,4,Memory,5,,,,,,,00770941201fa.jpg,,,,,,,,,,,,,,,
269,4,Memory,5,,,,,,,00953960627fa.jpg,,,,,,,,,,,,,,,
270,4,Memory,5,,,,,,,sunaixpqndlwhwjtjek.jpg,,,,,,,,,,,,,,,
271,4,Memory,5,,,,,,,00124931230fa.jpg,,,,,,,,,,,,,,,
272,4,Memory,5,,,,,,,sunabyvpwkgsjtijdwj.jpg,,,,,,,,,,,,,,,
273,4,Memory,5,,,,,,,00858940307fa.jpg,,,,,,,,,,,,,,,
274,4,Memory,5,,,,,,,00242940128fa.jpg,,,,,,,,,,,,,,,
275,4,Memory,5,,,,,,,00986960627fa.jpg,,,,,,,,,,,,,,,
276,4,Memory,5,,,,,,,sunabjzyxcjnmztdonj.jpg,,,,,,,,,,,,,,,
277,4,Memory,5,,,,,,,01207940128fa.jpg,,,,,,,,,,,,,,,
278,4,Memory,5,,,,,,,sunbaoizrfijvhpnnjn.jpg,,,,,,,,,,,,,,,
279,4,Memory,5,,,,,,,sunadkazmlajmohnwfl.jpg,,,,,,,,,,,,,,,
280,4,Memory,5,,,,,,,00264940128fb.jpg,,,,,,,,,,,,,,,
281,4,Memory,5,,,,,,,sunbgzjryivyczuvkvm.jpg,,,,,,,,,,,,,,,
282,4,Memory,5,,,,,,,00662941121fa.jpg,,,,,,,,,,,,,,,
283,4,Memory,5,,,,,,,00483940519fa.jpg,,,,,,,,,,,,,,,
284,4,Memory,5,,,,,,,00834940307fa.jpg,,,,,,,,,,,,,,,
285,4,Memory,5,,,,,,,sunaqsolmfydodnakub.jpg,,,,,,,,,,,,,,,
286,4,Memory,5,,,,,,,sunabkngeblodihjvbk.jpg,,,,,,,,,,,,,,,
287,4,Memory,5,,,,,,,sunaakjaacuzulqckgl.jpg,,,,,,,,,,,,,,,
288,4,Memory,5,,,,,,,00112931230fa.jpg,,,,,,,,,,,,,,,
289,4,Memory,5,,,,,,,00818940307fa.jpg,,,,,,,,,,,,,,,
290,4,Memory,5,,,,,,,sunaprnrbmgkomdbchr.jpg,,,,,,,,,,,,,,,
291,4,Memory,5,,,,,,,sundbixjudsgeuuehrn.jpg,,,,,,,,,,,,,,,
292,4,Memory,5,,,,,,,sunaeisnjeetzmkbuad.jpg,,,,,,,,,,,,,,,
293,4,Memory,5,,,,,,,00937960627fa.jpg,,,,,,,,,,,,,,,
294,4,Memory,5,,,,,,,sunabcuurugvxwparpk.jpg,,,,,,,,,,,,,,,
295,4,Memory,5,,,,,,,00266940128fb.jpg,,,,,,,,,,,,,,,
296,4,Memory,5,,,,,,,00766960620fa.jpg,,,,,,,,,,,,,,,
297,4,Memory,5,,,,,,,sunafijbgncijwykrnl.jpg,,,,,,,,,,,,,,,
298,4,Memory,5,,,,,,,sunaajayojuslbbnneg.jpg,,,,,,,,,,,,,,,
299,4,Memory,5,,,,,,,sunatstrpjxhvtbaczf.jpg,,,,,,,,,,,,,,,
300,4,Presentation,6,00270940422fb_sunabllobxadqcyttej.jpg,00481940519fa_sunabxsuqbleluwczoy.jpg,00270940422fb.jpg,sunabllobxadqcyttej.jpg,00481940519fa.jpg,sunabxsuqbleluwczoy.jpg,,,>,Place,,,,,1,,,,,,,o
301,4,Presentation,6,00811960530fa_sunahedfrhtcwpneund.jpg,00130931230fa_sunaamvxnvouicstkjb.jpg,00811960530fa.jpg,sunahedfrhtcwpneund.jpg,00130931230fa.jpg,sunaamvxnvouicstkjb.jpg,,,>,Face,,,,,1,,,,,,,o
302,4,Presentation,6,00815941205fa_sunahiphsekjihkafsl.jpg,00874940307fa_sunajtrfunvzdfticna.jpg,00815941205fa.jpg,sunahiphsekjihkafsl.jpg,00874940307fa.jpg,sunajtrfunvzdfticna.jpg,,,<,Face,,,,,1,,,,,,,x
303,4,Presentation,6,00071940128fa_sunaaexpnawiehinlpy.jpg,00210940128fb_sunabanoxjtqxamkucc.jpg,00071940128fa.jpg,sunaaexpnawiehinlpy.jpg,00210940128fb.jpg,sunabanoxjtqxamkucc.jpg,,,<,Face,,,,,1,,,,,,,o
304,4,Presentation,6,00725941201fa_sunaefgzwiramypjvtd.jpg,00790941205fa_sunagpjzsbltchlwvou.jpg,00725941201fa.jpg,sunaefgzwiramypjvtd.jpg,00790941205fa.jpg,sunagpjzsbltchlwvou.jpg,,,<,Place,,,,,1,,,,,,,x
305,4,Presentation,6,00836940307fa_sunainqelldeebvxtcz.jpg,00548940519fa_sunacerqowiaeoqkmsq.jpg,00836940307fa.jpg,sunainqelldeebvxtcz.jpg,00548940519fa.jpg,sunacerqowiaeoqkmsq.jpg,,,<,Place,,,,,1,,,,,,,o
306,4,Presentation,6,00543940519fa_sunacepzfrmtkiqonpy.jpg,00063931230fa_sunaaelyvurpntclgau.jpg,00543940519fa.jpg,sunacepzfrmtkiqonpy.jpg,00063931230fa.jpg,sunaaelyvurpntclgau.jpg,,,>,Place,,,,,1,,,,,,,x
307,4,Presentation,6,00126931230fb_sunaamdjwemxpmmtypi.jpg,00061931230fb_sunaaekxzjzrfgtkwjf.jpg,00126931230fb.jpg,sunaamdjwemxpmmtypi.jpg,00061931230fb.jpg,sunaaekxzjzrfgtkwjf.jpg,,,>,Place,,,,,1,,,,,,,o
308,4,Presentation,6,00676941121fa_sunadpnqovzckyikrjo.jpg,00966960627fa_sunaygrtwrwfezqjizr.jpg,00676941121fa.jpg,sunadpnqovzckyikrjo.jpg,00966960627fa.jpg,sunaygrtwrwfezqjizr.jpg,,,<,Face,,,,,0,,,,,,,o
309,4,Presentation,6,00070940307fa_sunaaeplwsfslcbtojr.jpg,00554940519fa_sunacfdkbsrughwqwtt.jpg,00070940307fa.jpg,sunaaeplwsfslcbtojr.jpg,00554940519fa.jpg,sunacfdkbsrughwqwtt.jpg,,,>,Face,,,,,1,,,,,,,x
310,4,Memory,6,,,,,,,00836940307fa.jpg,,,,,,,,,,,,,,,
311,4,Memory,6,,,,,,,00191940128fb.jpg,,,,,,,,,,,,,,,
312,4,Memory,6,,,,,,,01010960627fa.jpg,,,,,,,,,,,,,,,
313,4,Memory,6,,,,,,,suncnkvbhypnivcohyx.jpg,,,,,,,,,,,,,,,
314,4,Memory,6,,,,,,,00725941201fa.jpg,,,,,,,,,,,,,,,
315,4,Memory,6,,,,,,,sunaawsdjisukbbginm.jpg,,,,,,,,,,,,,,,
316,4,Memory,6,,,,,,,00063931230fa.jpg,,,,,,,,,,,,,,,
317,4,Memory,6,,,,,,,sunaaelyvurpntclgau.jpg,,,,,,,,,,,,,,,
318,4,Memory,6,,,,,,,sunabllobxadqcyttej.jpg,,,,,,,,,,,,,,,
319,4,Memory,6,,,,,,,00210940128fb.jpg,,,,,,,,,,,,,,,
320,4,Memory,6,,,,,,,00559940519fa.jpg,,,,,,,,,,,,,,,
321,4,Memory,6,,,,,,,sunagpjzsbltchlwvou.jpg,,,,,,,,,,,,,,,
322,4,Memory,6,,,,,,,00909960530.jpg,,,,,,,,,,,,,,,
323,4,Memory,6,,,,,,,sunaamdjwemxpmmtypi.jpg,,,,,,,,,,,,,,,
324,4,Memory,6,,,,,,,sunaahzooisqkwlxwoz.jpg,,,,,,,,,,,,,,,
325,4,Memory,6,,,,,,,00061931230fb.jpg,,,,,,,,,,,,,,,
326,4,Memory,6,,,,,,,sunainqelldeebvxtcz.jpg,,,,,,,,,,,,,,,
327,4,Memory,6,,,,,,,sunaaekxzjzrfgtkwjf.jpg,,,,,,,,,,,,,,,
328,4,Memory,6,,,,,,,00548940519fa.jpg,,,,,,,,,,,,,,,
329,4,Memory,6,,,,,,,00095931230fa.jpg,,,,,,,,,,,,,,,
330,4,Memory,6,,,,,,,00976960627fa.jpg,,,,,,,,,,,,,,,
331,4,Memory,6,,,,,,,00741941201fa.jpg,,,,,,,,,,,,,,,
332,4,Memory,6,,,,,,,sunaknlirqjqiwbbeeg.jpg,,,,,,,,,,,,,,,
333,4,Memory,6,,,,,,,sunabanoxjtqxamkucc.jpg,,,,,,,,,,,,,,,
334,4,Memory,6,,,,,,,00815941205fa.jpg,,,,,,,,,,,,,,,
335,4,Memory,6,,,,,,,sunahiphsekjihkafsl.jpg,,,,,,,,,,,,,,,
336,4,Memory,6,,,,,,,sunacerqowiaeoqkmsq.jpg,,,,,,,,,,,,,,,
337,4,Memory,6,,,,,,,sunacjkmnpawfzbyvae.jpg,,,,,,,,,,,,,,,
338,4,Memory,6,,,,,,,sunaobtizabegtwfwul.jpg,,,,,,,,,,,,,,,
339,4,Memory,6,,,,,,,sunaemcowdozyphwknd.jpg,,,,,,,,,,,,,,,
340,4,Memory,6,,,,,,,00819940307fa.jpg,,,,,,,,,,,,,,,
341,4,Memory,6,,,,,,,00973960627fa.jpg,,,,,,,,,,,,,,,
342,4,Memory,6,,,,,,,00126931230fb.jpg,,,,,,,,,,,,,,,
343,4,Memory,6,,,,,,,00790941205fa.jpg,,,,,,,,,,,,,,,
344,4,Memory,6,,,,,,,sunbbhqyyzmsxhsbjmp.jpg,,,,,,,,,,,,,,,
345,4,Memory,6,,,,,,,sunaefgzwiramypjvtd.jpg,,,,,,,,,,,,,,,
346,4,Memory,6,,,,,,,00270940422fb.jpg,,,,,,,,,,,,,,,
347,4,Memory,6,,,,,,,00882960530fa.jpg,,,,,,,,,,,,,,,
348,4,Memory,6,,,,,,,sunahqldjibofgsfdgb.jpg,,,,,,,,,,,,,,,
349,4,Memory,6,,,,,,,sunbbgtoeuzierkkajt.jpg,,,,,,,,,,,,,,,
350,4,Presentation,7,00214940128fa_sunabbafjowbzcvbucc.jpg,00245940128fa_sunabeyhmxodahoieyk.jpg,00214940128fa.jpg,sunabbafjowbzcvbucc.jpg,00245940128fa.jpg,sunabeyhmxodahoieyk.jpg,,,<,Place,,,,,1,,,,,,,o
351,4,Presentation,7,00292940422fb_sunabrjdpmoedcdjbpo.jpg,00125931230fa_sunaalltyvjhbzhkmvg.jpg,00292940422fb.jpg,sunabrjdpmoedcdjbpo.jpg,00125931230fa.jpg,sunaalltyvjhbzhkmvg.jpg,,,>,Place,,,,,1,,,,,,,o
352,4,Presentation,7,00093931230fa_sunaahwnmtqsrhocysw.jpg,00829940307fa_sunahwgbqkqcrwprgvh.jpg,00093931230fa.jpg,sunaahwnmtqsrhocysw.jpg,00829940307fa.jpg,sunahwgbqkqcrwprgvh.jpg,,,>,Place,,,,,1,,,,,,,x
353,4,Presentation,7,00670941121fa_sunadochqcucscehsgk.jpg,00970960627fa_sunbasypfgzjtomktmu.jpg,00670941121fa.jpg,sunadochqcucscehsgk.jpg,00970960627fa.jpg,sunbasypfgzjtomktmu.jpg,,,<,Place,,,,,1,,,,,,,x
354,4,Presentation,7,00921960627fa_sunapqkpqdfvxlbqwyo.jpg,00870940307fa_sunajrgtewnualfcerj.jpg,00921960627fa.jpg,sunapqkpqdfvxlbqwyo.jpg,00870940307fa.jpg,sunajrgtewnualfcerj.jpg,,,>,Face,,,,,0,,,,,,,o
355,4,Presentation,7,00763941205fa_sunafhmnhsdurlvddpw.jpg,00868960307fa_sunajjxttslobudoqbv.jpg,00763941205fa.jpg,sunafhmnhsdurlvddpw.jpg,00868960307fa.jpg,sunajjxttslobudoqbv.jpg,,,<,Face,,,,,1,,,,,,,o
356,4,Presentation,7,00314940422fa_sunabwmcbaxwioksdgw.jpg,00705941205fa_sunadtlxenqqxsyjvix.jpg,00314940422fa.jpg,sunabwmcbaxwioksdgw.jpg,00705941205fa.jpg,sunadtlxenqqxsyjvix.jpg,,,>,Face,,,,,1,,,,,,,o
357,4,Presentation,7,00308940422fb_sunabwfvcqqidycwypa.jpg,00783941205fa_sunagjeesomrwjsfqie.jpg,00308940422fb.jpg,sunabwfvcqqidycwypa.jpg,00783941205fa.jpg,sunagjeesomrwjsfqie.jpg,,,>,Face,,,,,1,,,,,,,x
358,4,Presentation,7,00805941205fa_sunagwzdbtlixdhgolm.jpg,00915960620fa_sunapileznnbbmrwoei.jpg,00805941205fa.jpg,sunagwzdbtlixdhgolm.jpg,00915960620fa.jpg,sunapileznnbbmrwoei.jpg,,,<,Face,,,,,1,,,,,,,o
359,4,Presentation,7,00127931230fa_sunaampvucecsfbdafn.jpg,00700941121fa_sunadsgmtznewzyasnk.jpg,00127931230fa.jpg,sunaampvucecsfbdafn.jpg,00700941121fa.jpg,sunadsgmtznewzyasnk.jpg,,,<,Place,,,,,1,,,,,,,x
360,4,Memory,7,,,,,,,00915960620fa.jpg,,,,,,,,,,,,,,,
361,4,Memory,7,,,,,,,sunadtlxenqqxsyjvix.jpg,,,,,,,,,,,,,,,
362,4,Memory,7,,,,,,,00292940422fb.jpg,,,,,,,,,,,,,,,
363,4,Memory,7,,,,,,,sunadcphrizvfpljiqt.jpg,,,,,,,,,,,,,,,
364,4,Memory,7,,,,,,,sunaahwnmtqsrhocysw.jpg,,,,,,,,,,,,,,,
365,4,Memory,7,,,,,,,sunabwmcbaxwioksdgw.jpg,,,,,,,,,,,,,,,
366,4,Memory,7,,,,,,,00705941205fa.jpg,,,,,,,,,,,,,,,
367,4,Memory,7,,,,,,,00093931230fa.jpg,,,,,,,,,,,,,,,
368,4,Memory,7,,,,,,,sunbasypfgzjtomktmu.jpg,,,,,,,,,,,,,,,
369,4,Memory,7,,,,,,,sunbxzweleltykebgan.jpg,,,,,,,,,,,,,,,
370,4,Memory,7,,,,,,,00827940307fa.jpg,,,,,,,,,,,,,,,
371,4,Memory,7,,,,,,,sunahtfxgsrmkiulnwk.jpg,,,,,,,,,,,,,,,
372,4,Memory,7,,,,,,,00870940307fa.jpg,,,,,,,,,,,,,,,
373,4,Memory,7,,,,,,,sunaaxjpzcnxligjtjq.jpg,,,,,,,,,,,,,,,
374,4,Memory,7,,,,,,,sunabzuqsrgcsonqlkz.jpg,,,,,,,,,,,,,,,
375,4,Memory,7,,,,,,,sunbaejotfklekvpxcz.jpg,,,,,,,,,,,,,,,
376,4,Memory,7,,,,,,,00876960620fa.jpg,,,,,,,,,,,,,,,
377,4,Memory,7,,,,,,,sunabbafjowbzcvbucc.jpg,,,,,,,,,,,,,,,
378,4,Memory,7,,,,,,,sunadsgmtznewzyasnk.jpg,,,,,,,,,,,,,,,
379,4,Memory,7,,,,,,,01009960627fa.jpg,,,,,,,,,,,,,,,
380,4,Memory,7,,,,,,,sunafhmnhsdurlvddpw.jpg,,,,,,,,,,,,,,,
381,4,Memory,7,,,,,,,00214940128fa.jpg,,,,,,,,,,,,,,,
382,4,Memory,7,,,,,,,00634940928fa.jpg,,,,,,,,,,,,,,,
383,4,Memory,7,,,,,,,00193940928fa.jpg,,,,,,,,,,,,,,,
384,4,Memory,7,,,,,,,sunbwaafjdebjzttuvq.jpg,,,,,,,,,,,,,,,
385,4,Memory,7,,,,,,,01002960627fb.jpg,,,,,,,,,,,,,,,
386,4,Memory,7,,,,,,,00967960627fa.jpg,,,,,,,,,,,,,,,
387,4,Memory,7,,,,,,,sunabrjdpmoedcdjbpo.jpg,,,,,,,,,,,,,,,
388,4,Memory,7,,,,,,,00763941205fa.jpg,,,,,,,,,,,,,,,
389,4,Memory,7,,,,,,,sunapileznnbbmrwoei.jpg,,,,,,,,,,,,,,,
390,4,Memory,7,,,,,,,00978960627fa.jpg,,,,,,,,,,,,,,,
391,4,Memory,7,,,,,,,00505960627fa.jpg,,,,,,,,,,,,,,,
392,4,Memory,7,,,,,,,sunbddbivbptlrlauhy.jpg,,,,,,,,,,,,,,,
393,4,Memory,7,,,,,,,00970960627fa.jpg,,,,,,,,,,,,,,,
394,4,Memory,7,,,,,,,sunaanlwnpqndclffxt.jpg,,,,,,,,,,,,,,,
395,4,Memory,7,,,,,,,sunajrgtewnualfcerj.jpg,,,,,,,,,,,,,,,
396,4,Memory,7,,,,,,,00314940422fa.jpg,,,,,,,,,,,,,,,
397,4,Memory,7,,,,,,,00133931230fa.jpg,,,,,,,,,,,,,,,
398,4,Memory,7,,,,,,,00700941121fa.jpg,,,,,,,,,,,,,,,
399,4,Memory,7,,,,,,,sunajwqkfsykceonyig.jpg,,,,,,,,,,,,,,,
