,Subject,Trial Type,Run,Cued Composite,Uncued Composite,Cued Face,Cued Place,Uncued Face,Uncued Place,Memory Image,Category,Cued Side,Cued Category,Attention Reaction Time (s),Familiarity Reaction Time (s),Familiarity Rating,Attention Level,Cue Validity,Post Invalid Cue,Pre Invalid Cue,Attention Button,Rating History,Stimulus Onset,Stimulus End,Attention Probe
110,4,Memory,2,,,,,,,sunafvcflzhlqloapyo.jpg,,,,,1.416,3.0,,,,,,,1550788336.12925,1550788338.177397,
111,4,Memory,2,,,,,,,sunaauglwmctnkxyird.jpg,,,,,1.108,4.0,,,,,,,1550788339.462755,1550788341.462156,
112,4,Memory,2,,,,,,,00988960627fa.jpg,,,,,1.735,2.0,,,,,,,1550788342.730951,1550788344.776578,
113,4,Memory,2,,,,,,,00955960627fb.jpg,,,,,1.756,1.0,,,,,,,1550788346.049267,1550788348.111182,
114,4,Memory,2,,,,,,,01005960627fa.jpg,,,,,1.276,3.0,,,,,,,1550788349.383075,1550788351.43272,
115,4,Memory,2,,,,,,,00773941201fa.jpg,,,,,1.786,2.0,,,,,,,1550788352.679334,1550788354.663632,
116,4,Memory,2,,,,,,,00809960620fa.jpg,,,,,1.004,3.0,,,,,,,1550788355.953229,1550788357.967485,
117,4,Memory,2,,,,,,,sunadbhmrgrrpyzglxs.jpg,,,,,1.558,1.0,,,,,,,1550788359.252834,1550788361.253742,
118,4,Memory,2,,,,,,,00562941031fa.jpg,,,,,1.948,1.0,,,,,,,1550788362.536975,1550788364.534861,
119,4,Memory,2,,,,,,,sunabmbnddafmywtjjj.jpg,,,,,1.683,3.0,,,,,,,1550788365.788929,1550788367.776588,
120,4,Memory,2,,,,,,,00267940128fb.jpg,,,,,1.752,1.0,,,,,,,1550788369.055329,1550788371.042227,
121,4,Memory,2,,,,,,,00857940307fa.jpg,,,,,0.0,,,,,,,,1550788372.307449,1550788374.306766,
122,4,Memory,2,,,,,,,sunanainkqdvktzoxyl.jpg,,,,,1.108,3.0,,,,,,,1550788375.608826,1550788377.606868,
123,4,Memory,2,,,,,,,sunaiwfobocrruqznsv.jpg,,,,,1.407,4.0,,,,,,,1550788378.871672,1550788380.947712,
124,4,Memory,2,,,,,,,00903960620fa.jpg,,,,,1.198,2.0,,,,,,,1550788382.20602,1550788384.210872,
125,4,Memory,2,,,,,,,sunauburywlkjszngcq.jpg,,,,,1.641,1.0,,,,,,,1550788385.494249,1550788387.528663,
126,4,Memory,2,,,,,,,sunaakvmbftkrgqhjun.jpg,,,,,1.825,1.0,,,,,,,1550788388.795778,1550788390.843109,
127,4,Memory,2,,,,,,,sunaaeowapdkwzqpgqr.jpg,,,,,1.659,1.0,,,,,,,1550788392.114303,1550788394.146593,
128,4,Memory,2,,,,,,,sunbwyuesflwdpqtgoy.jpg,,,,,1.6,1.0,,,,,,,1550788395.430856,1550788397.478291,
129,4,Memory,2,,,,,,,00914960620fa.jpg,,,,,1.832,1.0,,,,,,,1550788398.732354,1550788400.731303,
130,4,Memory,2,,,,,,,sunahbvlpavurqoxdeq.jpg,,,,,1.954,2.0,,,,,,,1550788402.017283,1550788404.037659,
131,4,Memory,2,,,,,,,sunbagfpovqwbuexqdn.jpg,,,,,1.35,2.0,,,,,,,1550788405.301543,1550788407.333043,
132,4,Memory,2,,,,,,,00069931230fb.jpg,,,,,1.608,2.0,,,,,,,1550788408.618599,1550788410.61978,
133,4,Memory,2,,,,,,,sunaeoghzrjarigmwua.jpg,,,,,1.437,3.0,,,,,,,1550788411.886972,1550788413.874769,
134,4,Memory,2,,,,,,,00743941201fa.jpg,,,,,1.471,1.0,,,,,,,1550788415.154462,1550788417.155775,
135,4,Memory,2,,,,,,,00598940928fa.jpg,,,,,2.021,1.0,,,,,,,1550788418.439079,1550788420.458771,
136,4,Memory,2,,,,,,,sunacxeheuiigkcgquf.jpg,,,,,1.722,2.0,,,,,,,1550788421.740911,1550788423.752439,
137,4,Memory,2,,,,,,,00149931230fa.jpg,,,,,1.483,3.0,,,,,,,1550788425.007301,1550788427.054716,
138,4,Memory,2,,,,,,,00746941201fa.jpg,,,,,1.357,2.0,,,,,,,1550788428.324936,1550788430.354883,
139,4,Memory,2,,,,,,,sunaozisvwfbmlkfhzv.jpg,,,,,1.417,1.0,,,,,,,1550788431.622791,1550788433.695983,
140,4,Memory,2,,,,,,,00119931230fb.jpg,,,,,1.699,1.0,,,,,,,1550788434.994007,1550788436.997182,
141,4,Memory,2,,,,,,,00271940422fa.jpg,,,,,1.523,2.0,,,,,,,1550788438.278153,1550788440.261727,
142,4,Memory,2,,,,,,,sunahgtbwgsmtqeodwh.jpg,,,,,1.7,3.0,,,,,,,1550788441.547441,1550788443.592243,
143,4,Memory,2,,,,,,,00633940928fa.jpg,,,,,1.808,2.0,,,,,,,1550788444.847245,1550788446.881894,
144,4,Memory,2,,,,,,,sunacjnahdmqfnjfwqx.jpg,,,,,1.67,1.0,,,,,,,1550788448.232668,1550788450.312802,
145,4,Memory,2,,,,,,,sunablfqiwfqomjarht.jpg,,,,,1.141,1.0,,,,,,,1550788451.567675,1550788453.612354,
146,4,Memory,2,,,,,,,00968960627fa.jpg,,,,,0.824,1.0,,,,,,,1550788454.866529,1550788456.897166,
147,4,Memory,2,,,,,,,sunaetydippjxikifsb.jpg,,,,,1.141,1.0,,,,,,,1550788458.15159,1550788460.167953,
148,4,Memory,2,,,,,,,00812941205fa.jpg,,,,,1.269,1.0,,,,,,,1550788461.469805,1550788463.457128,
149,4,Memory,2,,,,,,,sunbmaiocftdtvnzgap.jpg,,,,,1.349,1.0,,,,,,,1550788464.737433,1550788466.719772,
