,Subject,Trial Type,Run,Cued Composite,Uncued Composite,Cued Face,Cued Place,Uncued Face,Uncued Place,Memory Image,Category,Cued Side,Cued Category,Attention Reaction Time (s),Familiarity Reaction Time (s),Familiarity Rating,Attention Level,Cue Validity,Post Invalid Cue,Pre Invalid Cue,Attention Button,Rating History,Stimulus Onset,Stimulus End,Attention Probe
360,4,Memory,7,,,,,,,00915960620fa.jpg,,,,,1.293,1.0,,,,,,,1550789936.166345,1550789938.279869,
361,4,Memory,7,,,,,,,sunadtlxenqqxsyjvix.jpg,,,,,1.149,3.0,,,,,,,1550789939.550815,1550789941.580587,
362,4,Memory,7,,,,,,,00292940422fb.jpg,,,,,0.816,2.0,,,,,,,1550789942.847165,1550789944.881437,
363,4,Memory,7,,,,,,,sunadcphrizvfpljiqt.jpg,,,,,0.915,2.0,,,,,,,1550789946.169707,1550789948.202458,
364,4,Memory,7,,,,,,,sunaahwnmtqsrhocysw.jpg,,,,,1.025,3.0,,,,,,,1550789949.487227,1550789951.522616,
365,4,Memory,7,,,,,,,sunabwmcbaxwioksdgw.jpg,,,,,1.724,4.0,,,,,,,1550789952.822215,1550789954.904957,
366,4,Memory,7,,,,,,,00705941205fa.jpg,,,,,1.308,3.0,,,,,,,1550789956.189566,1550789958.236394,
367,4,Memory,7,,,,,,,00093931230fa.jpg,,,,,1.191,2.0,,,,,,,1550789959.506519,1550789961.622431,
368,4,Memory,7,,,,,,,sunbasypfgzjtomktmu.jpg,,,,,1.575,1.0,,,,,,,1550789962.907896,1550789965.021613,
369,4,Memory,7,,,,,,,sunbxzweleltykebgan.jpg,,,,,1.659,3.0,,,,,,,1550789966.27186,1550789968.430206,
370,4,Memory,7,,,,,,,00827940307fa.jpg,,,,,1.509,1.0,,,,,,,1550789969.689397,1550789971.82409,
371,4,Memory,7,,,,,,,sunahtfxgsrmkiulnwk.jpg,,,,,1.648,3.0,,,,,,,1550789973.096164,1550789975.324575,
372,4,Memory,7,,,,,,,00870940307fa.jpg,,,,,0.308,3.0,,,,,,,1550789976.613166,1550789978.67584,
373,4,Memory,7,,,,,,,sunaaxjpzcnxligjtjq.jpg,,,,,2.061,1.0,,,,,,,1550789979.963842,1550789982.076748,
374,4,Memory,7,,,,,,,sunabzuqsrgcsonqlkz.jpg,,,,,1.368,1.0,,,,,,,1550789983.348821,1550789985.345201,
375,4,Memory,7,,,,,,,sunbaejotfklekvpxcz.jpg,,,,,2.124,1.0,,,,,,,1550789986.633035,1550789988.715975,
376,4,Memory,7,,,,,,,00876960620fa.jpg,,,,,1.843,2.0,,,,,,,1550789990.000511,1550789992.066211,
377,4,Memory,7,,,,,,,sunabbafjowbzcvbucc.jpg,,,,,0.0,,,,,,,,1550789993.352427,1550789995.418346,
378,4,Memory,7,,,,,,,sunadsgmtznewzyasnk.jpg,,,,,1.373,2.0,,,,,,,1550789996.702821,1550789998.756724,
379,4,Memory,7,,,,,,,01009960627fa.jpg,,,,,1.054,1.0,,,,,,,1550790000.03693,1550790002.120252,
380,4,Memory,7,,,,,,,sunafhmnhsdurlvddpw.jpg,,,,,1.802,3.0,,,,,,,1550790003.38866,1550790005.617843,
381,4,Memory,7,,,,,,,00214940128fa.jpg,,,,,1.538,2.0,,,,,,,1550790006.872855,1550790008.854015,
382,4,Memory,7,,,,,,,00634940928fa.jpg,,,,,1.151,1.0,,,,,,,1550790010.122809,1550790012.303688,
383,4,Memory,7,,,,,,,00193940928fa.jpg,,,,,1.832,3.0,,,,,,,1550790013.592447,1550790015.661649,
384,4,Memory,7,,,,,,,sunbwaafjdebjzttuvq.jpg,,,,,1.491,3.0,,,,,,,1550790016.94285,1550790019.021911,
385,4,Memory,7,,,,,,,01002960627fb.jpg,,,,,1.623,2.0,,,,,,,1550790020.275353,1550790022.293228,
386,4,Memory,7,,,,,,,00967960627fa.jpg,,,,,1.7,3.0,,,,,,,1550790023.544874,1550790025.565433,
387,4,Memory,7,,,,,,,sunabrjdpmoedcdjbpo.jpg,,,,,1.14,4.0,,,,,,,1550790026.845529,1550790028.875939,
388,4,Memory,7,,,,,,,00763941205fa.jpg,,,,,1.3,3.0,,,,,,,1550790030.146752,1550790032.151207,
389,4,Memory,7,,,,,,,sunapileznnbbmrwoei.jpg,,,,,0.999,2.0,,,,,,,1550790033.426889,1550790035.493819,
390,4,Memory,7,,,,,,,00978960627fa.jpg,,,,,1.041,1.0,,,,,,,1550790036.748611,1550790038.732709,
391,4,Memory,7,,,,,,,00505960627fa.jpg,,,,,1.386,3.0,,,,,,,1550790040.017113,1550790042.034219,
392,4,Memory,7,,,,,,,sunbddbivbptlrlauhy.jpg,,,,,1.14,2.0,,,,,,,1550790043.318425,1550790045.349161,
393,4,Memory,7,,,,,,,00970960627fa.jpg,,,,,2.092,3.0,,,,,,,1550790046.635752,1550790048.718869,
394,4,Memory,7,,,,,,,sunaanlwnpqndclffxt.jpg,,,,,0.326,3.0,,,,,,,1550790049.98142,1550790052.054648,
395,4,Memory,7,,,,,,,sunajrgtewnualfcerj.jpg,,,,,1.837,1.0,,,,,,,1550790053.316507,1550790055.450603,
396,4,Memory,7,,,,,,,00314940422fa.jpg,,,,,1.641,1.0,,,,,,,1550790056.722518,1550790058.8424,
397,4,Memory,7,,,,,,,00133931230fa.jpg,,,,,1.142,1.0,,,,,,,1550790060.139534,1550790062.15962,
398,4,Memory,7,,,,,,,00700941121fa.jpg,,,,,1.658,3.0,,,,,,,1550790063.425062,1550790065.629825,
399,4,Memory,7,,,,,,,sunajwqkfsykceonyig.jpg,,,,,1.087,1.0,,,,,,,1550790066.908886,1550790068.922253,
