,Subject,Trial Type,Run,Cued Composite,Uncued Composite,Cued Face,Cued Place,Uncued Face,Uncued Place,Memory Image,Category,Cued Side,Cued Category,Attention Reaction Time (s),Familiarity Reaction Time (s),Familiarity Rating,Attention Level,Cue Validity,Post Invalid Cue,Pre Invalid Cue,Attention Button,Rating History,Stimulus Onset,Stimulus End,Attention Probe
10,20,Memory,0,,,,,,,sunabxmguapjekttvwm.jpg,,,,,2.06,2,,,,,,,1554833852.250149,1554833855.396042,
11,20,Memory,0,,,,,,,00967960627fa.jpg,,,,,1.643,3,,,,,,,1554833856.734617,1554833859.585639,
12,20,Memory,0,,,,,,,sunaibnpvhkdpdnzcnz.jpg,,,,,1.992,2,,,,,,,1554833860.903439,1554833864.036262,
13,20,Memory,0,,,,,,,sunaajspcoepticvplv.jpg,,,,,2.077,2,,,,,,,1554833865.454735,1554833868.521339,
14,20,Memory,0,,,,,,,00562941031fa.jpg,,,,,1.126,3,,,,,,,1554833869.939823,1554833872.934519,
15,20,Memory,0,,,,,,,00316940422fa.jpg,,,,,1.044,3,,,,,,,1554833874.257081,1554833877.008683,
16,20,Memory,0,,,,,,,00675941121fa.jpg,,,,,1.259,3,,,,,,,1554833878.308207,1554833881.172027,
17,20,Memory,0,,,,,,,sunafhmnhsdurlvddpw.jpg,,,,,1.893,3,,,,,,,1554833882.476577,1554833885.373398,
18,20,Memory,0,,,,,,,00761960627fa.jpg,,,,,1.21,2,,,,,,,1554833886.694045,1554833889.358061,
19,20,Memory,0,,,,,,,00751960620fa.jpg,,,,,2.759,3,,,,,,,1554833890.663125,1554833894.080105,
20,20,Memory,0,,,,,,,00922960627fa.jpg,,,,,1.093,2,,,,,,,1554833895.530403,1554833898.414709,
21,20,Memory,0,,,,,,,sunacjnahdmqfnjfwqx.jpg,,,,,1.559,2,,,,,,,1554833899.849558,1554833902.794367,
22,20,Memory,0,,,,,,,00302940422fa.jpg,,,,,2.543,2,,,,,,,1554833904.065754,1554833907.316768,
23,20,Memory,0,,,,,,,sunabtlfmiwtljmoues.jpg,,,,,0.977,3,,,,,,,1554833908.668291,1554833911.239232,
24,20,Memory,0,,,,,,,sunapqkyghktgtosuuk.jpg,,,,,1.326,2,,,,,,,1554833912.619336,1554833915.723581,
25,20,Memory,0,,,,,,,sunabwfvcqqidycwypa.jpg,,,,,1.058,3,,,,,,,1554833917.071481,1554833919.583328,
26,20,Memory,0,,,,,,,00620940928fa.jpg,,,,,1.593,2,,,,,,,1554833920.872709,1554833923.759198,
27,20,Memory,0,,,,,,,sunacypmnujalygkunp.jpg,,,,,2.794,2,,,,,,,1554833925.340242,1554833928.755577,
28,20,Memory,0,,,,,,,00308940422fb.jpg,,,,,0.842,3,,,,,,,1554833930.076345,1554833932.710482,
29,20,Memory,0,,,,,,,sunadoxcchtmsxewsau.jpg,,,,,1.995,1,,,,,,,1554833934.009815,1554833936.664309,
30,20,Memory,0,,,,,,,00648941031fa.jpg,,,,,1.043,3,,,,,,,1554833937.96093,1554833940.559443,
31,20,Memory,0,,,,,,,sunagountlxpzkytsmp.jpg,,,,,2.092,2,,,,,,,1554833941.896086,1554833944.942942,
32,20,Memory,0,,,,,,,00694941121fa.jpg,,,,,0.792,3,,,,,,,1554833946.230395,1554833948.918267,
33,20,Memory,0,,,,,,,sunaaeplwsfslcbtojr.jpg,,,,,1.692,2,,,,,,,1554833950.215306,1554833953.211451,
34,20,Memory,0,,,,,,,sunagtjwilqjvxohypn.jpg,,,,,1.661,2,,,,,,,1554833954.616851,1554833957.862425,
35,20,Memory,0,,,,,,,sunabcfpwlpolnutyju.jpg,,,,,2.343,1,,,,,,,1554833959.450726,1554833962.553784,
36,20,Memory,0,,,,,,,00891960530fa.jpg,,,,,1.594,2,,,,,,,1554833963.869525,1554833966.782383,
37,20,Memory,0,,,,,,,sunalkiibhqpxfamlll.jpg,,,,,2.545,4,,,,,,,1554833968.071262,1554833971.422536,
38,20,Memory,0,,,,,,,00788941205fa.jpg,,,,,1.043,3,,,,,,,1554833972.755691,1554833975.60231,
39,20,Memory,0,,,,,,,00070940307fa.jpg,,,,,0.875,2,,,,,,,1554833976.890396,1554833979.141128,
40,20,Memory,0,,,,,,,00102931230fa.jpg,,,,,0.942,3,,,,,,,1554833980.425233,1554833982.929405,
41,20,Memory,0,,,,,,,00763941205fa.jpg,,,,,2.045,2,,,,,,,1554833984.375325,1554833987.339265,
42,20,Memory,0,,,,,,,00793941205fa.jpg,,,,,1.261,2,,,,,,,1554833988.694466,1554833991.512199,
43,20,Memory,0,,,,,,,sunbaejotfklekvpxcz.jpg,,,,,1.744,2,,,,,,,1554833992.879105,1554833996.225233,
44,20,Memory,0,,,,,,,sunadrmfzmstgdjdcod.jpg,,,,,1.242,3,,,,,,,1554833997.531043,1554834000.365174,
45,20,Memory,0,,,,,,,sunafgdqbclkwfocdhg.jpg,,,,,3.018,2,,,,,,,1554834001.68142,1554834005.079931,
46,20,Memory,0,,,,,,,sunadfndyrtqqiasoig.jpg,,,,,1.877,3,,,,,,,1554834006.38368,1554834009.354259,
47,20,Memory,0,,,,,,,00834940307fa.jpg,,,,,1.676,1,,,,,,,1554834010.651837,1554834013.482066,
48,20,Memory,0,,,,,,,sunaezuszgtxnmsxdbk.jpg,,,,,1.16,2,,,,,,,1554834014.836138,1554834017.854796,
49,20,Memory,0,,,,,,,00221940128fa.jpg,,,,,2.676,3,,,,,,,1554834019.286518,1554834022.473187,
