,Subject,Trial Type,Run,Cued Composite,Uncued Composite,Cued Face,Cued Place,Uncued Face,Uncued Place,Memory Image,Category,Cued Side,Cued Category,Attention Reaction Time (s),Familiarity Reaction Time (s),Familiarity Rating,Attention Level,Cue Validity,Post Invalid Cue,Pre Invalid Cue,Attention Button,Rating History,Stimulus Onset,Stimulus End,Attention Probe
260,20,Memory,5,,,,,,,sunabyfxcxhdebvdyfd.jpg,,,,,1.206,2.0,,,,,,,1554835647.434571,1554835649.48168,
261,20,Memory,5,,,,,,,00787960620fa.jpg,,,,,1.136,3.0,,,,,,,1554835650.770143,1554835652.752367,
262,20,Memory,5,,,,,,,sunbbegcweqnetpdlrh.jpg,,,,,0.942,2.0,,,,,,,1554835654.032464,1554835656.339212,
263,20,Memory,5,,,,,,,00766960620fa.jpg,,,,,1.426,3.0,,,,,,,1554835657.638715,1554835660.734963,
264,20,Memory,5,,,,,,,sunaqyylsngywqzwfmx.jpg,,,,,1.249,3.0,,,,,,,1554835662.135367,1554835664.119379,
265,20,Memory,5,,,,,,,00898960530fa.jpg,,,,,1.849,2.0,,,,,,,1554835665.502911,1554835667.487436,
266,20,Memory,5,,,,,,,00305940422fa.jpg,,,,,1.536,4.0,,,,,,,1554835668.803127,1554835670.787947,
267,20,Memory,5,,,,,,,sunagoufulkpsxrmklt.jpg,,,,,0.0,,,,,,,,1554835672.072119,1554835674.055524,
268,20,Memory,5,,,,,,,00825940307fa.jpg,,,,,1.333,2.0,,,,,,,1554835675.423427,1554835677.408764,
269,20,Memory,5,,,,,,,00938960627fa.jpg,,,,,1.003,2.0,,,,,,,1554835678.678816,1554835680.658229,
270,20,Memory,5,,,,,,,00080931230fb.jpg,,,,,0.866,3.0,,,,,,,1554835681.930106,1554835683.909475,
271,20,Memory,5,,,,,,,sunbloeoiozwjjsiamp.jpg,,,,,1.67,3.0,,,,,,,1554835685.193253,1554835687.527027,
272,20,Memory,5,,,,,,,00987960627fa.jpg,,,,,1.52,2.0,,,,,,,1554835688.797488,1554835690.778861,
273,20,Memory,5,,,,,,,00971960627fa.jpg,,,,,1.136,2.0,,,,,,,1554835692.06157,1554835694.048922,
274,20,Memory,5,,,,,,,00854940307fa.jpg,,,,,0.0,,,,,,,,1554835695.430255,1554835697.415104,
275,20,Memory,5,,,,,,,sunafijbgncijwykrnl.jpg,,,,,0.936,2.0,,,,,,,1554835698.796752,1554835700.783664,
276,20,Memory,5,,,,,,,sunaafjszryxyavjzln.jpg,,,,,0.9,2.0,,,,,,,1554835702.069902,1554835704.048536,
277,20,Memory,5,,,,,,,00933960627fa.jpg,,,,,0.665,3.0,,,,,,,1554835705.321506,1554835707.303762,
278,20,Memory,5,,,,,,,00482940519fa.jpg,,,,,1.053,3.0,,,,,,,1554835708.549578,1554835710.537572,
279,20,Memory,5,,,,,,,sunabtrnbvpppgczjim.jpg,,,,,1.315,2.0,,,,,,,1554835711.818343,1554835713.802273,
280,20,Memory,5,,,,,,,sunahrltmuwbiehihpe.jpg,,,,,0.866,2.0,,,,,,,1554835715.107015,1554835717.086514,
281,20,Memory,5,,,,,,,sunabizydfotqddlnjp.jpg,,,,,0.713,2.0,,,,,,,1554835718.353941,1554835720.339401,
282,20,Memory,5,,,,,,,00966960627fa.jpg,,,,,1.232,2.0,,,,,,,1554835721.609539,1554835723.588733,
283,20,Memory,5,,,,,,,sunaloffvbvysigxent.jpg,,,,,0.683,2.0,,,,,,,1554835724.905732,1554835726.891013,
284,20,Memory,5,,,,,,,00125931230fa.jpg,,,,,1.232,3.0,,,,,,,1554835728.261534,1554835730.246776,
285,20,Memory,5,,,,,,,sunaiwduelojtwaqeyh.jpg,,,,,0.66,2.0,,,,,,,1554835731.545842,1554835734.746177,
286,20,Memory,5,,,,,,,00893960530Fa.jpg,,,,,0.976,3.0,,,,,,,1554835736.081344,1554835738.89824,
287,20,Memory,5,,,,,,,sunajjxttslobudoqbv.jpg,,,,,0.926,2.0,,,,,,,1554835740.299261,1554835743.154676,
288,20,Memory,5,,,,,,,00885960530fa.jpg,,,,,1.643,2.0,,,,,,,1554835744.465715,1554835747.447235,
289,20,Memory,5,,,,,,,sunaalltyvjhbzhkmvg.jpg,,,,,0.81,2.0,,,,,,,1554835748.784143,1554835751.985121,
290,20,Memory,5,,,,,,,00262940128fa.jpg,,,,,1.308,3.0,,,,,,,1554835753.286053,1554835756.399611,
291,20,Memory,5,,,,,,,sunamkmeblgteyggink.jpg,,,,,1.051,2.0,,,,,,,1554835757.883179,1554835759.866393,
292,20,Memory,5,,,,,,,sunakwlvxjpddialozd.jpg,,,,,0.868,2.0,,,,,,,1554835761.122479,1554835763.102498,
293,20,Memory,5,,,,,,,sunaetydippjxikifsb.jpg,,,,,1.054,2.0,,,,,,,1554835764.501263,1554835766.487095,
294,20,Memory,5,,,,,,,sunaygrtwrwfezqjizr.jpg,,,,,0.968,2.0,,,,,,,1554835767.836909,1554835769.820967,
295,20,Memory,5,,,,,,,sunapwjkcxdaeqehfql.jpg,,,,,1.582,1.0,,,,,,,1554835771.104374,1554835773.089182,
296,20,Memory,5,,,,,,,00746941201fa.jpg,,,,,1.087,3.0,,,,,,,1554835774.35949,1554835776.34053,
297,20,Memory,5,,,,,,,sunaajayojuslbbnneg.jpg,,,,,0.934,2.0,,,,,,,1554835777.605803,1554835779.590069,
298,20,Memory,5,,,,,,,00868960307fa.jpg,,,,,1.334,3.0,,,,,,,1554835780.878993,1554835782.85871,
299,20,Memory,5,,,,,,,00097931230fa.jpg,,,,,1.778,4.0,,,,,,,1554835784.241407,1554835786.880343,
