,Subject,Trial Type,Run,Cued Composite,Uncued Composite,Cued Face,Cued Place,Uncued Face,Uncued Place,Memory Image,Category,Cued Side,Cued Category,Attention Response Time (s),Familiarity Reaction Time (s),Familiarity Rating,Attention Level,Cue Validity,Post Invalid Cue,Pre Invalid Cue,Attention Button,Rating History,Stimulus Onset,Stimulus End,Attention Probe
0,5,Presentation,0,00939960627fa_sunarceibpcyacbmfga.jpg,00071940128fa_sunaaexpnawiehinlpy.jpg,00939960627fa.jpg,sunarceibpcyacbmfga.jpg,00071940128fa.jpg,sunaaexpnawiehinlpy.jpg,,,<,Place,,,,,1,,,,,,,x
1,5,Presentation,0,00835940307fa_sunaijsqpvodplbwxkf.jpg,00263940128fb_sunabjuovqvyfuzvqwt.jpg,00835940307fa.jpg,sunaijsqpvodplbwxkf.jpg,00263940128fb.jpg,sunabjuovqvyfuzvqwt.jpg,,,<,Place,,,,,1,,,,,,,o
2,5,Presentation,0,00893960530Fa_sunaloffvbvysigxent.jpg,00982960627fa_sunbesrwkdsffeogeqq.jpg,00893960530Fa.jpg,sunaloffvbvysigxent.jpg,00982960627fa.jpg,sunbesrwkdsffeogeqq.jpg,,,<,Place,,,,,1,,,,,,,x
3,5,Presentation,0,00869940307fa_sunajoveqhiprwqgoco.jpg,00931960627fa_sunaptrqvaooxfvktvw.jpg,00869940307fa.jpg,sunajoveqhiprwqgoco.jpg,00931960627fa.jpg,sunaptrqvaooxfvktvw.jpg,,,<,Place,,,,,1,,,,,,,o
4,5,Presentation,0,00071941031fa_sunaaexqbtdswxrqjvz.jpg,00996960627fa_sunbpvgllfdejxcpjqp.jpg,00071941031fa.jpg,sunaaexqbtdswxrqjvz.jpg,00996960627fa.jpg,sunbpvgllfdejxcpjqp.jpg,,,<,Place,,,,,1,,,,,,,x
5,5,Presentation,0,00882960530fa_sunaknlirqjqiwbbeeg.jpg,00264940128fb_sunabjzyxcjnmztdonj.jpg,00882960530fa.jpg,sunaknlirqjqiwbbeeg.jpg,00264940128fb.jpg,sunabjzyxcjnmztdonj.jpg,,,<,Place,,,,,1,,,,,,,o
6,5,Presentation,0,00885960530fa_sunakwlvxjpddialozd.jpg,00876960620fa_sunajwqkfsykceonyig.jpg,00885960530fa.jpg,sunakwlvxjpddialozd.jpg,00876960620fa.jpg,sunajwqkfsykceonyig.jpg,,,<,Place,,,,,1,,,,,,,x
7,5,Presentation,0,00929960627fa_sunaprnrbmgkomdbchr.jpg,00719941201fa_sunadvithllcgmfxsrn.jpg,00929960627fa.jpg,sunaprnrbmgkomdbchr.jpg,00719941201fa.jpg,sunadvithllcgmfxsrn.jpg,,,<,Place,,,,,1,,,,,,,o
8,5,Presentation,0,00073931230fa_sunaafbmtoniaasysgu.jpg,00784941205fb_sunagjzcrjvmxzqzljx.jpg,00073931230fa.jpg,sunaafbmtoniaasysgu.jpg,00784941205fb.jpg,sunagjzcrjvmxzqzljx.jpg,,,<,Place,,,,,1,,,,,,,o
9,5,Presentation,0,00972960627fa_sunbbfqwjpdxniyhies.jpg,00483940519fa_sunabyvpwkgsjtijdwj.jpg,00972960627fa.jpg,sunbbfqwjpdxniyhies.jpg,00483940519fa.jpg,sunabyvpwkgsjtijdwj.jpg,,,<,Place,,,,,1,,,,,,,o
10,5,Memory,0,,,,,,,sunaijsqpvodplbwxkf.jpg,,,,,,,,,,,,,,,
11,5,Memory,0,,,,,,,00719941201fa.jpg,,,,,,,,,,,,,,,
12,5,Memory,0,,,,,,,00971960627fa.jpg,,,,,,,,,,,,,,,
13,5,Memory,0,,,,,,,00874940307fa.jpg,,,,,,,,,,,,,,,
14,5,Memory,0,,,,,,,00211940128fa.jpg,,,,,,,,,,,,,,,
15,5,Memory,0,,,,,,,00126931230fb.jpg,,,,,,,,,,,,,,,
16,5,Memory,0,,,,,,,00124931230fa.jpg,,,,,,,,,,,,,,,
17,5,Memory,0,,,,,,,sunagjzcrjvmxzqzljx.jpg,,,,,,,,,,,,,,,
18,5,Memory,0,,,,,,,00071940128fa.jpg,,,,,,,,,,,,,,,
19,5,Memory,0,,,,,,,00557940519fa.jpg,,,,,,,,,,,,,,,
20,5,Memory,0,,,,,,,00929960627fa.jpg,,,,,,,,,,,,,,,
21,5,Memory,0,,,,,,,sunabrwnslxalcohfre.jpg,,,,,,,,,,,,,,,
22,5,Memory,0,,,,,,,sunagvjurcwdbixvnyi.jpg,,,,,,,,,,,,,,,
23,5,Memory,0,,,,,,,00784941205fb.jpg,,,,,,,,,,,,,,,
24,5,Memory,0,,,,,,,00885960530fa.jpg,,,,,,,,,,,,,,,
25,5,Memory,0,,,,,,,sunachtuarilwyqnvjx.jpg,,,,,,,,,,,,,,,
26,5,Memory,0,,,,,,,sunabjuovqvyfuzvqwt.jpg,,,,,,,,,,,,,,,
27,5,Memory,0,,,,,,,sunbpvgllfdejxcpjqp.jpg,,,,,,,,,,,,,,,
28,5,Memory,0,,,,,,,00835940307fa.jpg,,,,,,,,,,,,,,,
29,5,Memory,0,,,,,,,00869940307fa.jpg,,,,,,,,,,,,,,,
30,5,Memory,0,,,,,,,00129931230fb.jpg,,,,,,,,,,,,,,,
31,5,Memory,0,,,,,,,sunarceibpcyacbmfga.jpg,,,,,,,,,,,,,,,
32,5,Memory,0,,,,,,,sunaamdjwemxpmmtypi.jpg,,,,,,,,,,,,,,,
33,5,Memory,0,,,,,,,sunajoveqhiprwqgoco.jpg,,,,,,,,,,,,,,,
34,5,Memory,0,,,,,,,00996960627fa.jpg,,,,,,,,,,,,,,,
35,5,Memory,0,,,,,,,sunajtrfunvzdfticna.jpg,,,,,,,,,,,,,,,
36,5,Memory,0,,,,,,,sunabasphceswhwwqvv.jpg,,,,,,,,,,,,,,,
37,5,Memory,0,,,,,,,sunaamsdyakblkfoydx.jpg,,,,,,,,,,,,,,,
38,5,Memory,0,,,,,,,sunaprnrbmgkomdbchr.jpg,,,,,,,,,,,,,,,
39,5,Memory,0,,,,,,,sunakwlvxjpddialozd.jpg,,,,,,,,,,,,,,,
40,5,Memory,0,,,,,,,sunadvithllcgmfxsrn.jpg,,,,,,,,,,,,,,,
41,5,Memory,0,,,,,,,00263940128fb.jpg,,,,,,,,,,,,,,,
42,5,Memory,0,,,,,,,00800941205fb.jpg,,,,,,,,,,,,,,,
43,5,Memory,0,,,,,,,00939960627fa.jpg,,,,,,,,,,,,,,,
44,5,Memory,0,,,,,,,00296940422fa.jpg,,,,,,,,,,,,,,,
45,5,Memory,0,,,,,,,00961960627fa.jpg,,,,,,,,,,,,,,,
46,5,Memory,0,,,,,,,sunawotxrevnqvamsfp.jpg,,,,,,,,,,,,,,,
47,5,Memory,0,,,,,,,sunaaexpnawiehinlpy.jpg,,,,,,,,,,,,,,,
48,5,Memory,0,,,,,,,sunbbegcweqnetpdlrh.jpg,,,,,,,,,,,,,,,
49,5,Memory,0,,,,,,,sunaalhlvzmjmitybdn.jpg,,,,,,,,,,,,,,,
50,5,Presentation,1,00116931230fa_sunaakqepfoeqomfgxf.jpg,00063931230fa_sunaaelyvurpntclgau.jpg,00116931230fa.jpg,sunaakqepfoeqomfgxf.jpg,00063931230fa.jpg,sunaaelyvurpntclgau.jpg,,,>,Face,,,,,1,,,,,,,x
51,5,Presentation,1,00827940307fa_sunahtfxgsrmkiulnwk.jpg,00976960627fa_sunbbhqyyzmsxhsbjmp.jpg,00827940307fa.jpg,sunahtfxgsrmkiulnwk.jpg,00976960627fa.jpg,sunbbhqyyzmsxhsbjmp.jpg,,,>,Face,,,,,1,,,,,,,o
52,5,Presentation,1,00763941205fa_sunafhmnhsdurlvddpw.jpg,00076931230fa_sunaafewhewbxmjiurz.jpg,00763941205fa.jpg,sunafhmnhsdurlvddpw.jpg,00076931230fa.jpg,sunaafewhewbxmjiurz.jpg,,,>,Face,,,,,1,,,,,,,o
53,5,Presentation,1,00819940307fa_sunahqldjibofgsfdgb.jpg,00789960620fa_sunagpancjmxqfazssf.jpg,00819940307fa.jpg,sunahqldjibofgsfdgb.jpg,00789960620fa.jpg,sunagpancjmxqfazssf.jpg,,,>,Face,,,,,1,,,,,,,x
54,5,Presentation,1,00877960530fa_sunajxpkuhbizeveguy.jpg,00825940307fa_sunahrltmuwbiehihpe.jpg,00877960530fa.jpg,sunajxpkuhbizeveguy.jpg,00825940307fa.jpg,sunahrltmuwbiehihpe.jpg,,,>,Face,,,,,1,,,,,,,o
55,5,Presentation,1,00760960620fa_sunaffstbkappprzxnv.jpg,00804960530fa_sunagwswhkvnsmuszlz.jpg,00760960620fa.jpg,sunaffstbkappprzxnv.jpg,00804960530fa.jpg,sunagwswhkvnsmuszlz.jpg,,,>,Face,,,,,1,,,,,,,x
56,5,Presentation,1,01000960627fa_sunbvzmgrdvaakxusbu.jpg,00235940128fb_sunabclssnoeuigtawp.jpg,01000960627fa.jpg,sunbvzmgrdvaakxusbu.jpg,00235940128fb.jpg,sunabclssnoeuigtawp.jpg,,,>,Face,,,,,1,,,,,,,x
57,5,Presentation,1,00810941205fa_sunahctntqrunhdxhtb.jpg,00958960627fa_sunavspxmxubqaeidjt.jpg,00810941205fa.jpg,sunahctntqrunhdxhtb.jpg,00958960627fa.jpg,sunavspxmxubqaeidjt.jpg,,,>,Face,,,,,1,,,,,,,o
58,5,Presentation,1,00138931230fa_sunaapfaivxqoynnwwp.jpg,00783941205fa_sunagjeesomrwjsfqie.jpg,00138931230fa.jpg,sunaapfaivxqoynnwwp.jpg,00783941205fa.jpg,sunagjeesomrwjsfqie.jpg,,,>,Face,,,,,1,,,,,,,o
59,5,Presentation,1,00098931230fa_sunaajpqmulidejvjsr.jpg,00564941031fa_sunacsaovnjezqwbykf.jpg,00098931230fa.jpg,sunaajpqmulidejvjsr.jpg,00564941031fa.jpg,sunacsaovnjezqwbykf.jpg,,,>,Face,,,,,1,,,,,,,x
60,5,Memory,1,,,,,,,sunadbhmrgrrpyzglxs.jpg,,,,,,,,,,,,,,,
61,5,Memory,1,,,,,,,sunabcuurugvxwparpk.jpg,,,,,,,,,,,,,,,
62,5,Memory,1,,,,,,,00193940928fa.jpg,,,,,,,,,,,,,,,
63,5,Memory,1,,,,,,,sunacxeheuiigkcgquf.jpg,,,,,,,,,,,,,,,
64,5,Memory,1,,,,,,,00958960627fa.jpg,,,,,,,,,,,,,,,
65,5,Memory,1,,,,,,,00727941205fa.jpg,,,,,,,,,,,,,,,
66,5,Memory,1,,,,,,,00877960530fa.jpg,,,,,,,,,,,,,,,
67,5,Memory,1,,,,,,,00598940928fa.jpg,,,,,,,,,,,,,,,
68,5,Memory,1,,,,,,,sunaakqepfoeqomfgxf.jpg,,,,,,,,,,,,,,,
69,5,Memory,1,,,,,,,sunafhmnhsdurlvddpw.jpg,,,,,,,,,,,,,,,
70,5,Memory,1,,,,,,,00789960620fa.jpg,,,,,,,,,,,,,,,
71,5,Memory,1,,,,,,,00976960627fa.jpg,,,,,,,,,,,,,,,
72,5,Memory,1,,,,,,,sunajxpkuhbizeveguy.jpg,,,,,,,,,,,,,,,
73,5,Memory,1,,,,,,,sunabbwggenhfbftyvi.jpg,,,,,,,,,,,,,,,
74,5,Memory,1,,,,,,,00242940128fa.jpg,,,,,,,,,,,,,,,
75,5,Memory,1,,,,,,,sunacsaovnjezqwbykf.jpg,,,,,,,,,,,,,,,
76,5,Memory,1,,,,,,,00138931230fa.jpg,,,,,,,,,,,,,,,
77,5,Memory,1,,,,,,,sunagpancjmxqfazssf.jpg,,,,,,,,,,,,,,,
78,5,Memory,1,,,,,,,00804960530fa.jpg,,,,,,,,,,,,,,,
79,5,Memory,1,,,,,,,00631940928fa.jpg,,,,,,,,,,,,,,,
80,5,Memory,1,,,,,,,00218940128fa.jpg,,,,,,,,,,,,,,,
81,5,Memory,1,,,,,,,00576941031fa.jpg,,,,,,,,,,,,,,,
82,5,Memory,1,,,,,,,00564941031fa.jpg,,,,,,,,,,,,,,,
83,5,Memory,1,,,,,,,sunahctntqrunhdxhtb.jpg,,,,,,,,,,,,,,,
84,5,Memory,1,,,,,,,00532960627fa.jpg,,,,,,,,,,,,,,,
85,5,Memory,1,,,,,,,sunbbhqyyzmsxhsbjmp.jpg,,,,,,,,,,,,,,,
86,5,Memory,1,,,,,,,sunaapfaivxqoynnwwp.jpg,,,,,,,,,,,,,,,
87,5,Memory,1,,,,,,,00925960627fa.jpg,,,,,,,,,,,,,,,
88,5,Memory,1,,,,,,,sunaeisnjeetzmkbuad.jpg,,,,,,,,,,,,,,,
89,5,Memory,1,,,,,,,sunadbdqzigzwipuipr.jpg,,,,,,,,,,,,,,,
90,5,Memory,1,,,,,,,sunavspxmxubqaeidjt.jpg,,,,,,,,,,,,,,,
91,5,Memory,1,,,,,,,sunaccdtpgenvcbcbcf.jpg,,,,,,,,,,,,,,,
92,5,Memory,1,,,,,,,00633940928fa.jpg,,,,,,,,,,,,,,,
93,5,Memory,1,,,,,,,sunagwswhkvnsmuszlz.jpg,,,,,,,,,,,,,,,
94,5,Memory,1,,,,,,,sunapqwnqzxlsfvgsjm.jpg,,,,,,,,,,,,,,,
95,5,Memory,1,,,,,,,00810941205fa.jpg,,,,,,,,,,,,,,,
96,5,Memory,1,,,,,,,sunaaxjpzcnxligjtjq.jpg,,,,,,,,,,,,,,,
97,5,Memory,1,,,,,,,00763941205fa.jpg,,,,,,,,,,,,,,,
98,5,Memory,1,,,,,,,00116931230fa.jpg,,,,,,,,,,,,,,,
99,5,Memory,1,,,,,,,sunacvjlsylseoghjup.jpg,,,,,,,,,,,,,,,
100,5,Presentation,2,00794960620fa_sunagtqhhwxjeuxdebe.jpg,00564940928fa_sunacmpqqfbsvlzinzl.jpg,00794960620fa.jpg,sunagtqhhwxjeuxdebe.jpg,00564940928fa.jpg,sunacmpqqfbsvlzinzl.jpg,,,>,Place,,,,,1,,,,,,,o
101,5,Presentation,2,00589940928fa_sunacwggadqsfpovdjv.jpg,00095931230fa_sunaahzooisqkwlxwoz.jpg,00589940928fa.jpg,sunacwggadqsfpovdjv.jpg,00095931230fa.jpg,sunaahzooisqkwlxwoz.jpg,,,>,Place,,,,,1,,,,,,,o
102,5,Presentation,2,00267940128fb_sunablfqiwfqomjarht.jpg,00860940307fa_sunaizeyhvjzknwjudw.jpg,00267940128fb.jpg,sunablfqiwfqomjarht.jpg,00860940307fa.jpg,sunaizeyhvjzknwjudw.jpg,,,>,Place,,,,,0,,,,,,,o
103,5,Presentation,2,00822940307fa_sunahqrxievfeusiqlt.jpg,00774941201fa_sunafvtpfczkzopbgue.jpg,00822940307fa.jpg,sunahqrxievfeusiqlt.jpg,00774941201fa.jpg,sunafvtpfczkzopbgue.jpg,,,>,Place,,,,,1,,,,,,,o
104,5,Presentation,2,00132931230fb_sunaanjcbzdvtvblsdy.jpg,00663941121fa_sunadnjjzohjhbohlwq.jpg,00132931230fb.jpg,sunaanjcbzdvtvblsdy.jpg,00663941121fa.jpg,sunadnjjzohjhbohlwq.jpg,,,>,Place,,,,,1,,,,,,,o
105,5,Presentation,2,00122931230fa_sunaakxjfbrrequcjmx.jpg,00681941121fa_sunadqmjrhfjyuzyvdd.jpg,00122931230fa.jpg,sunaakxjfbrrequcjmx.jpg,00681941121fa.jpg,sunadqmjrhfjyuzyvdd.jpg,,,>,Place,,,,,1,,,,,,,x
106,5,Presentation,2,00081941031fa_sunaaftlyfudyzuhqzf.jpg,00818940307fa_sunahpblecxtmuzkmxb.jpg,00081941031fa.jpg,sunaaftlyfudyzuhqzf.jpg,00818940307fa.jpg,sunahpblecxtmuzkmxb.jpg,,,>,Place,,,,,1,,,,,,,o
107,5,Presentation,2,00782941205fa_sunagfvluwixdsozaql.jpg,00878960530fa_sunakgbnzxmfohgehnu.jpg,00782941205fa.jpg,sunagfvluwixdsozaql.jpg,00878960530fa.jpg,sunakgbnzxmfohgehnu.jpg,,,>,Place,,,,,1,,,,,,,o
108,5,Presentation,2,00120931230fa_sunaakxgygjfqrzpyoz.jpg,00829940307fa_sunahwgbqkqcrwprgvh.jpg,00120931230fa.jpg,sunaakxgygjfqrzpyoz.jpg,00829940307fa.jpg,sunahwgbqkqcrwprgvh.jpg,,,>,Place,,,,,1,,,,,,,x
109,5,Presentation,2,00847940307fa_sunaivdjruhkrfywfed.jpg,00125931230fa_sunaalltyvjhbzhkmvg.jpg,00847940307fa.jpg,sunaivdjruhkrfywfed.jpg,00125931230fa.jpg,sunaalltyvjhbzhkmvg.jpg,,,>,Place,,,,,1,,,,,,,x
110,5,Memory,2,,,,,,,sunahwgbqkqcrwprgvh.jpg,,,,,,,,,,,,,,,
111,5,Memory,2,,,,,,,00705960530fa.jpg,,,,,,,,,,,,,,,
112,5,Memory,2,,,,,,,00620940928fa.jpg,,,,,,,,,,,,,,,
113,5,Memory,2,,,,,,,00564940928fa.jpg,,,,,,,,,,,,,,,
114,5,Memory,2,,,,,,,00772941201fa.jpg,,,,,,,,,,,,,,,
115,5,Memory,2,,,,,,,00634940928fa.jpg,,,,,,,,,,,,,,,
116,5,Memory,2,,,,,,,sunadtlxenqqxsyjvix.jpg,,,,,,,,,,,,,,,
117,5,Memory,2,,,,,,,sunablfqiwfqomjarht.jpg,,,,,,,,,,,,,,,
118,5,Memory,2,,,,,,,00670941121fa.jpg,,,,,,,,,,,,,,,
119,5,Memory,2,,,,,,,sunacvzhvcksnwqcqbw.jpg,,,,,,,,,,,,,,,
120,5,Memory,2,,,,,,,00829940307fa.jpg,,,,,,,,,,,,,,,
121,5,Memory,2,,,,,,,sunaduslxfzlbxlllnz.jpg,,,,,,,,,,,,,,,
122,5,Memory,2,,,,,,,00507940519fa.jpg,,,,,,,,,,,,,,,
123,5,Memory,2,,,,,,,sunacacflqoyxhsqzhe.jpg,,,,,,,,,,,,,,,
124,5,Memory,2,,,,,,,sunadcphrizvfpljiqt.jpg,,,,,,,,,,,,,,,
125,5,Memory,2,,,,,,,sunacypmnujalygkunp.jpg,,,,,,,,,,,,,,,
126,5,Memory,2,,,,,,,sunabmbnddafmywtjjj.jpg,,,,,,,,,,,,,,,
127,5,Memory,2,,,,,,,sunagfvluwixdsozaql.jpg,,,,,,,,,,,,,,,
128,5,Memory,2,,,,,,,00878960530fa.jpg,,,,,,,,,,,,,,,
129,5,Memory,2,,,,,,,sunadochqcucscehsgk.jpg,,,,,,,,,,,,,,,
130,5,Memory,2,,,,,,,00127931230fa.jpg,,,,,,,,,,,,,,,
131,5,Memory,2,,,,,,,sunafpfpiiujzoesnqg.jpg,,,,,,,,,,,,,,,
132,5,Memory,2,,,,,,,00271940422fa.jpg,,,,,,,,,,,,,,,
133,5,Memory,2,,,,,,,00782941205fa.jpg,,,,,,,,,,,,,,,
134,5,Memory,2,,,,,,,sunakgbnzxmfohgehnu.jpg,,,,,,,,,,,,,,,
135,5,Memory,2,,,,,,,00267940128fb.jpg,,,,,,,,,,,,,,,
136,5,Memory,2,,,,,,,sunacmpqqfbsvlzinzl.jpg,,,,,,,,,,,,,,,
137,5,Memory,2,,,,,,,sunacwggadqsfpovdjv.jpg,,,,,,,,,,,,,,,
138,5,Memory,2,,,,,,,00589940928fa.jpg,,,,,,,,,,,,,,,
139,5,Memory,2,,,,,,,sunagtqhhwxjeuxdebe.jpg,,,,,,,,,,,,,,,
140,5,Memory,2,,,,,,,sunahpblecxtmuzkmxb.jpg,,,,,,,,,,,,,,,
141,5,Memory,2,,,,,,,00818940307fa.jpg,,,,,,,,,,,,,,,
142,5,Memory,2,,,,,,,sunaampvucecsfbdafn.jpg,,,,,,,,,,,,,,,
143,5,Memory,2,,,,,,,00125931230fa.jpg,,,,,,,,,,,,,,,
144,5,Memory,2,,,,,,,sunaivdjruhkrfywfed.jpg,,,,,,,,,,,,,,,
145,5,Memory,2,,,,,,,00581940928fa.jpg,,,,,,,,,,,,,,,
146,5,Memory,2,,,,,,,00794960620fa.jpg,,,,,,,,,,,,,,,
147,5,Memory,2,,,,,,,00705941205fa.jpg,,,,,,,,,,,,,,,
148,5,Memory,2,,,,,,,00847940307fa.jpg,,,,,,,,,,,,,,,
149,5,Memory,2,,,,,,,sunaalltyvjhbzhkmvg.jpg,,,,,,,,,,,,,,,
150,5,Presentation,3,00795941205fa_sunagtumacdlmciqamz.jpg,00801941205fa_sunagvprlbprarvgdvj.jpg,00795941205fa.jpg,sunagtumacdlmciqamz.jpg,00801941205fa.jpg,sunagvprlbprarvgdvj.jpg,,,>,Face,,,,,1,,,,,,,o
151,5,Presentation,3,00082931230fa_sunaafvitpexrpvumsa.jpg,00841940307fa_sunaisiwfgppimtnmxl.jpg,00082931230fa.jpg,sunaafvitpexrpvumsa.jpg,00841940307fa.jpg,sunaisiwfgppimtnmxl.jpg,,,>,Face,,,,,1,,,,,,,x
152,5,Presentation,3,00913960530fa_sunaooffzffbhcpirmm.jpg,00901960530fa_sunammbnoambmhdxdwd.jpg,00913960530fa.jpg,sunaooffzffbhcpirmm.jpg,00901960530fa.jpg,sunammbnoambmhdxdwd.jpg,,,>,Face,,,,,1,,,,,,,x
153,5,Presentation,3,00752960620fa_sunafbwnojpqeyzssoe.jpg,00065931230fb_sunaaemixhfquhnxxlm.jpg,00752960620fa.jpg,sunafbwnojpqeyzssoe.jpg,00065931230fb.jpg,sunaaemixhfquhnxxlm.jpg,,,>,Face,,,,,1,,,,,,,x
154,5,Presentation,3,00198940128fb_sunaazezcsunmhttzxz.jpg,00676941121fa_sunadpnqovzckyikrjo.jpg,00198940128fb.jpg,sunaazezcsunmhttzxz.jpg,00676941121fa.jpg,sunadpnqovzckyikrjo.jpg,,,>,Face,,,,,1,,,,,,,x
155,5,Presentation,3,00498960627fa_sunabzjxlmkwnwzimua.jpg,00086931230fa_sunaafynehyrzpsoaml.jpg,00498960627fa.jpg,sunabzjxlmkwnwzimua.jpg,00086931230fa.jpg,sunaafynehyrzpsoaml.jpg,,,>,Face,,,,,1,,,,,,,x
156,5,Presentation,3,00777941205fa_sunagcinxkccdtrjmlv.jpg,00754941201fa_sunaffgsyyvoqdlkmnk.jpg,00777941205fa.jpg,sunagcinxkccdtrjmlv.jpg,00754941201fa.jpg,sunaffgsyyvoqdlkmnk.jpg,,,>,Face,,,,,1,,,,,,,o
157,5,Presentation,3,00816941205fa_sunahmhrncocyhsjpxk.jpg,00630941031fa_sunadakkdovnuzlycvp.jpg,00816941205fa.jpg,sunahmhrncocyhsjpxk.jpg,00630941031fa.jpg,sunadakkdovnuzlycvp.jpg,,,>,Face,,,,,1,,,,,,,x
158,5,Presentation,3,00214940128fa_sunabbafjowbzcvbucc.jpg,00779941205fa_sunagdzlvkqtpnfxfcg.jpg,00214940128fa.jpg,sunabbafjowbzcvbucc.jpg,00779941205fa.jpg,sunagdzlvkqtpnfxfcg.jpg,,,>,Face,,,,,1,,,,,,,o
159,5,Presentation,3,00092931230fa_sunaaheqzstzxuadglu.jpg,00836940307fa_sunainqelldeebvxtcz.jpg,00092931230fa.jpg,sunaaheqzstzxuadglu.jpg,00836940307fa.jpg,sunainqelldeebvxtcz.jpg,,,>,Face,,,,,1,,,,,,,x
160,5,Memory,3,,,,,,,sunafijbgncijwykrnl.jpg,,,,,,,,,,,,,,,
161,5,Memory,3,,,,,,,00648941031fa.jpg,,,,,,,,,,,,,,,
162,5,Memory,3,,,,,,,00093931230fa.jpg,,,,,,,,,,,,,,,
163,5,Memory,3,,,,,,,sunahmhrncocyhsjpxk.jpg,,,,,,,,,,,,,,,
164,5,Memory,3,,,,,,,00779941205fa.jpg,,,,,,,,,,,,,,,
165,5,Memory,3,,,,,,,sunaahwnmtqsrhocysw.jpg,,,,,,,,,,,,,,,
166,5,Memory,3,,,,,,,00766960620fa.jpg,,,,,,,,,,,,,,,
167,5,Memory,3,,,,,,,00795941205fa.jpg,,,,,,,,,,,,,,,
168,5,Memory,3,,,,,,,00807941205fa.jpg,,,,,,,,,,,,,,,
169,5,Memory,3,,,,,,,sunabbafjowbzcvbucc.jpg,,,,,,,,,,,,,,,
170,5,Memory,3,,,,,,,00838940307fa.jpg,,,,,,,,,,,,,,,
171,5,Memory,3,,,,,,,sunaffgsyyvoqdlkmnk.jpg,,,,,,,,,,,,,,,
172,5,Memory,3,,,,,,,sunaiozxhxgtfrmoagh.jpg,,,,,,,,,,,,,,,
173,5,Memory,3,,,,,,,sunaazezcsunmhttzxz.jpg,,,,,,,,,,,,,,,
174,5,Memory,3,,,,,,,00777941205fa.jpg,,,,,,,,,,,,,,,
175,5,Memory,3,,,,,,,00901960530fa.jpg,,,,,,,,,,,,,,,
176,5,Memory,3,,,,,,,sunaavjinpnkappuonm.jpg,,,,,,,,,,,,,,,
177,5,Memory,3,,,,,,,sunabckqabszusgcykj.jpg,,,,,,,,,,,,,,,
178,5,Memory,3,,,,,,,sunagdzlvkqtpnfxfcg.jpg,,,,,,,,,,,,,,,
179,5,Memory,3,,,,,,,00227940128fa.jpg,,,,,,,,,,,,,,,
180,5,Memory,3,,,,,,,sunbloeoiozwjjsiamp.jpg,,,,,,,,,,,,,,,
181,5,Memory,3,,,,,,,00630941031fa.jpg,,,,,,,,,,,,,,,
182,5,Memory,3,,,,,,,sunahawfngukizslzsd.jpg,,,,,,,,,,,,,,,
183,5,Memory,3,,,,,,,00773960620fa.jpg,,,,,,,,,,,,,,,
184,5,Memory,3,,,,,,,00198940128fb.jpg,,,,,,,,,,,,,,,
185,5,Memory,3,,,,,,,00162931230fb.jpg,,,,,,,,,,,,,,,
186,5,Memory,3,,,,,,,00214940128fa.jpg,,,,,,,,,,,,,,,
187,5,Memory,3,,,,,,,00086931230fa.jpg,,,,,,,,,,,,,,,
188,5,Memory,3,,,,,,,00816941205fa.jpg,,,,,,,,,,,,,,,
189,5,Memory,3,,,,,,,00754941201fa.jpg,,,,,,,,,,,,,,,
190,5,Memory,3,,,,,,,sunaafynehyrzpsoaml.jpg,,,,,,,,,,,,,,,
191,5,Memory,3,,,,,,,sunafvsxtzaizojicxx.jpg,,,,,,,,,,,,,,,
192,5,Memory,3,,,,,,,00108960530fa.jpg,,,,,,,,,,,,,,,
193,5,Memory,3,,,,,,,sunaajtnvzzpsjdzres.jpg,,,,,,,,,,,,,,,
194,5,Memory,3,,,,,,,sunadfndyrtqqiasoig.jpg,,,,,,,,,,,,,,,
195,5,Memory,3,,,,,,,sunagcinxkccdtrjmlv.jpg,,,,,,,,,,,,,,,
196,5,Memory,3,,,,,,,00987960627fa.jpg,,,,,,,,,,,,,,,
197,5,Memory,3,,,,,,,sunammbnoambmhdxdwd.jpg,,,,,,,,,,,,,,,
198,5,Memory,3,,,,,,,sunagtumacdlmciqamz.jpg,,,,,,,,,,,,,,,
199,5,Memory,3,,,,,,,sunadakkdovnuzlycvp.jpg,,,,,,,,,,,,,,,
200,5,Presentation,4,00266940128fb_sunabkngeblodihjvbk.jpg,00482940519fa_sunabyfxcxhdebvdyfd.jpg,00266940128fb.jpg,sunabkngeblodihjvbk.jpg,00482940519fa.jpg,sunabyfxcxhdebvdyfd.jpg,,,<,Face,,,,,1,,,,,,,x
201,5,Presentation,4,00479940519fa_sunabxsbfwjccqxxzxq.jpg,00568940928fa_sunacsdhbbsybcyxnel.jpg,00479940519fa.jpg,sunabxsbfwjccqxxzxq.jpg,00568940928fa.jpg,sunacsdhbbsybcyxnel.jpg,,,<,Face,,,,,1,,,,,,,x
202,5,Presentation,4,00694941121fa_sunadrmfzmstgdjdcod.jpg,00780960530fa_sunagetqixeypsysbpn.jpg,00694941121fa.jpg,sunadrmfzmstgdjdcod.jpg,00780960530fa.jpg,sunagetqixeypsysbpn.jpg,,,<,Face,,,,,1,,,,,,,o
203,5,Presentation,4,00978960627fa_sunbddbivbptlrlauhy.jpg,01207940128fa_sundbixjudsgeuuehrn.jpg,00978960627fa.jpg,sunbddbivbptlrlauhy.jpg,01207940128fa.jpg,sundbixjudsgeuuehrn.jpg,,,<,Face,,,,,1,,,,,,,x
204,5,Presentation,4,00986960627fa_sunbgzjryivyczuvkvm.jpg,00194940128fb_sunaayehfdqcyxggsej.jpg,00986960627fa.jpg,sunbgzjryivyczuvkvm.jpg,00194940128fb.jpg,sunaayehfdqcyxggsej.jpg,,,<,Face,,,,,1,,,,,,,o
205,5,Presentation,4,01005960627fa_sunbwyuesflwdpqtgoy.jpg,00102931230fa_sunaajspcoepticvplv.jpg,01005960627fa.jpg,sunbwyuesflwdpqtgoy.jpg,00102931230fa.jpg,sunaajspcoepticvplv.jpg,,,<,Face,,,,,1,,,,,,,x
206,5,Presentation,4,00891960530fa_sunalkiibhqpxfamlll.jpg,00949960627fb_sunasnqkkyhilqkxiqm.jpg,00891960530fa.jpg,sunalkiibhqpxfamlll.jpg,00949960627fb.jpg,sunasnqkkyhilqkxiqm.jpg,,,<,Face,,,,,0,,,,,,,x
207,5,Presentation,4,00839940307fa_sunaipyohrqlwngaqif.jpg,01011960627fa_sundahdxwmcdluscvot.jpg,00839940307fa.jpg,sunaipyohrqlwngaqif.jpg,01011960627fa.jpg,sundahdxwmcdluscvot.jpg,,,<,Face,,,,,1,,,,,,,o
208,5,Presentation,4,00571940928fa_sunacuatpqpqhyjhjqk.jpg,00969960627fa_sunbaoizrfijvhpnnjn.jpg,00571940928fa.jpg,sunacuatpqpqhyjhjqk.jpg,00969960627fa.jpg,sunbaoizrfijvhpnnjn.jpg,,,<,Face,,,,,1,,,,,,,x
209,5,Presentation,4,00957960627fa_sunavhxgmgrqsaptynb.jpg,00638941031fa_sunadfktsqjthoglcsm.jpg,00957960627fa.jpg,sunavhxgmgrqsaptynb.jpg,00638941031fa.jpg,sunadfktsqjthoglcsm.jpg,,,<,Face,,,,,1,,,,,,,x
210,5,Memory,4,,,,,,,sunaajspcoepticvplv.jpg,,,,,,,,,,,,,,,
211,5,Memory,4,,,,,,,01005960627fa.jpg,,,,,,,,,,,,,,,
212,5,Memory,4,,,,,,,sunavhxgmgrqsaptynb.jpg,,,,,,,,,,,,,,,
213,5,Memory,4,,,,,,,sunbgzjryivyczuvkvm.jpg,,,,,,,,,,,,,,,
214,5,Memory,4,,,,,,,sunagutjvdvnhxejerz.jpg,,,,,,,,,,,,,,,
215,5,Memory,4,,,,,,,sunaafjszryxyavjzln.jpg,,,,,,,,,,,,,,,
216,5,Memory,4,,,,,,,sunadfktsqjthoglcsm.jpg,,,,,,,,,,,,,,,
217,5,Memory,4,,,,,,,00979960627fa.jpg,,,,,,,,,,,,,,,
218,5,Memory,4,,,,,,,00986960627fa.jpg,,,,,,,,,,,,,,,
219,5,Memory,4,,,,,,,00479940519fa.jpg,,,,,,,,,,,,,,,
220,5,Memory,4,,,,,,,00482940519fa.jpg,,,,,,,,,,,,,,,
221,5,Memory,4,,,,,,,sunacsdhbbsybcyxnel.jpg,,,,,,,,,,,,,,,
222,5,Memory,4,,,,,,,sunathzzbcwjykldrem.jpg,,,,,,,,,,,,,,,
223,5,Memory,4,,,,,,,00102931230fa.jpg,,,,,,,,,,,,,,,
224,5,Memory,4,,,,,,,00968960627fa.jpg,,,,,,,,,,,,,,,
225,5,Memory,4,,,,,,,sunbdycacjfaujxitbw.jpg,,,,,,,,,,,,,,,
226,5,Memory,4,,,,,,,sunabxsbfwjccqxxzxq.jpg,,,,,,,,,,,,,,,
227,5,Memory,4,,,,,,,00799941205fa.jpg,,,,,,,,,,,,,,,
228,5,Memory,4,,,,,,,00780960530fa.jpg,,,,,,,,,,,,,,,
229,5,Memory,4,,,,,,,sunagcthdfirrcawoic.jpg,,,,,,,,,,,,,,,
230,5,Memory,4,,,,,,,sunagetqixeypsysbpn.jpg,,,,,,,,,,,,,,,
231,5,Memory,4,,,,,,,00834940307fa.jpg,,,,,,,,,,,,,,,
232,5,Memory,4,,,,,,,00209940128fb.jpg,,,,,,,,,,,,,,,
233,5,Memory,4,,,,,,,00719960620fa.jpg,,,,,,,,,,,,,,,
234,5,Memory,4,,,,,,,00568940928fa.jpg,,,,,,,,,,,,,,,
235,5,Memory,4,,,,,,,00903960620fa.jpg,,,,,,,,,,,,,,,
236,5,Memory,4,,,,,,,00778941205fa.jpg,,,,,,,,,,,,,,,
237,5,Memory,4,,,,,,,sunbddbivbptlrlauhy.jpg,,,,,,,,,,,,,,,
238,5,Memory,4,,,,,,,sunbwyuesflwdpqtgoy.jpg,,,,,,,,,,,,,,,
239,5,Memory,4,,,,,,,00080931230fb.jpg,,,,,,,,,,,,,,,
240,5,Memory,4,,,,,,,00957960627fa.jpg,,,,,,,,,,,,,,,
241,5,Memory,4,,,,,,,00952960627fa.jpg,,,,,,,,,,,,,,,
242,5,Memory,4,,,,,,,sunabyfxcxhdebvdyfd.jpg,,,,,,,,,,,,,,,
243,5,Memory,4,,,,,,,sunbagfpovqwbuexqdn.jpg,,,,,,,,,,,,,,,
244,5,Memory,4,,,,,,,sunabaergayifsgacxt.jpg,,,,,,,,,,,,,,,
245,5,Memory,4,,,,,,,sunaibnpvhkdpdnzcnz.jpg,,,,,,,,,,,,,,,
246,5,Memory,4,,,,,,,00638941031fa.jpg,,,,,,,,,,,,,,,
247,5,Memory,4,,,,,,,sunanainkqdvktzoxyl.jpg,,,,,,,,,,,,,,,
248,5,Memory,4,,,,,,,00978960627fa.jpg,,,,,,,,,,,,,,,
249,5,Memory,4,,,,,,,sunadzuvtmtmgupotmf.jpg,,,,,,,,,,,,,,,
250,5,Presentation,5,00276940422fa_sunabmytpyhsgigllxu.jpg,00746941201fa_sunaetydippjxikifsb.jpg,00276940422fa.jpg,sunabmytpyhsgigllxu.jpg,00746941201fa.jpg,sunaetydippjxikifsb.jpg,,,>,Place,,,,,1,,,,,,,o
251,5,Presentation,5,00130931230fa_sunaamvxnvouicstkjb.jpg,00744941201fa_sunaeomlfaabhpswasy.jpg,00130931230fa.jpg,sunaamvxnvouicstkjb.jpg,00744941201fa.jpg,sunaeomlfaabhpswasy.jpg,,,>,Place,,,,,1,,,,,,,o
252,5,Presentation,5,00747941201fa_sunaeutbrtswvsozxyk.jpg,00935960627fa_sunaqbmgkgqucajzrkp.jpg,00747941201fa.jpg,sunaeutbrtswvsozxyk.jpg,00935960627fa.jpg,sunaqbmgkgqucajzrkp.jpg,,,>,Place,,,,,0,,,,,,,o
253,5,Presentation,5,00915960620fa_sunapileznnbbmrwoei.jpg,00871940307_sunajrujcsdxmfbssmc.jpg,00915960620fa.jpg,sunapileznnbbmrwoei.jpg,00871940307.jpg,sunajrujcsdxmfbssmc.jpg,,,>,Place,,,,,0,,,,,,,o
254,5,Presentation,5,00662941121fa_sunadkazmlajmohnwfl.jpg,00943960627fa_sunarpsxqkduedrrzyi.jpg,00662941121fa.jpg,sunadkazmlajmohnwfl.jpg,00943960627fa.jpg,sunarpsxqkduedrrzyi.jpg,,,>,Place,,,,,1,,,,,,,x
255,5,Presentation,5,00123931230fb_sunaalcrrdbjgdztbiz.jpg,00848940307fa_sunaivdylrawbmhryfp.jpg,00123931230fb.jpg,sunaalcrrdbjgdztbiz.jpg,00848940307fa.jpg,sunaivdylrawbmhryfp.jpg,,,>,Place,,,,,1,,,,,,,x
256,5,Presentation,5,00308940422fb_sunabwfvcqqidycwypa.jpg,00773941201fa_sunafvcflzhlqloapyo.jpg,00308940422fb.jpg,sunabwfvcqqidycwypa.jpg,00773941201fa.jpg,sunafvcflzhlqloapyo.jpg,,,>,Place,,,,,0,,,,,,,o
257,5,Presentation,5,00977960627fa_sunbbxkanhzjgbwyxqs.jpg,00775941205fa_sunafvwfsmqkjrutjta.jpg,00977960627fa.jpg,sunbbxkanhzjgbwyxqs.jpg,00775941205fa.jpg,sunafvwfsmqkjrutjta.jpg,,,>,Place,,,,,0,,,,,,,x
258,5,Presentation,5,00260940128fa_sunabgfhvifeijihhjw.jpg,00803941205fa_sunagvxkjokqimstxpe.jpg,00260940128fa.jpg,sunabgfhvifeijihhjw.jpg,00803941205fa.jpg,sunagvxkjokqimstxpe.jpg,,,>,Place,,,,,1,,,,,,,x
259,5,Presentation,5,00868960307fa_sunajjxttslobudoqbv.jpg,00908960530fa_sunanwjjyqqwzqrqagd.jpg,00868960307fa.jpg,sunajjxttslobudoqbv.jpg,00908960530fa.jpg,sunanwjjyqqwzqrqagd.jpg,,,>,Place,,,,,1,,,,,,,x
260,5,Memory,5,,,,,,,sunaetydippjxikifsb.jpg,,,,,,,,,,,,,,,
261,5,Memory,5,,,,,,,00973960627fa.jpg,,,,,,,,,,,,,,,
262,5,Memory,5,,,,,,,sunaizgnnplsvajzhkc.jpg,,,,,,,,,,,,,,,
263,5,Memory,5,,,,,,,00915960620fa.jpg,,,,,,,,,,,,,,,
264,5,Memory,5,,,,,,,sunalqmfgeadpqsyzpd.jpg,,,,,,,,,,,,,,,
265,5,Memory,5,,,,,,,00894960620fa.jpg,,,,,,,,,,,,,,,
266,5,Memory,5,,,,,,,sunaooaqzputrowwbsw.jpg,,,,,,,,,,,,,,,
267,5,Memory,5,,,,,,,00911960530fa.jpg,,,,,,,,,,,,,,,
268,5,Memory,5,,,,,,,sunaaeowapdkwzqpgqr.jpg,,,,,,,,,,,,,,,
269,5,Memory,5,,,,,,,00933960627fa.jpg,,,,,,,,,,,,,,,
270,5,Memory,5,,,,,,,00868960307fa.jpg,,,,,,,,,,,,,,,
271,5,Memory,5,,,,,,,00862940307fa.jpg,,,,,,,,,,,,,,,
272,5,Memory,5,,,,,,,00908960530fa.jpg,,,,,,,,,,,,,,,
273,5,Memory,5,,,,,,,sunaamvxnvouicstkjb.jpg,,,,,,,,,,,,,,,
274,5,Memory,5,,,,,,,00803941205fa.jpg,,,,,,,,,,,,,,,
275,5,Memory,5,,,,,,,00746941201fa.jpg,,,,,,,,,,,,,,,
276,5,Memory,5,,,,,,,sunaeomlfaabhpswasy.jpg,,,,,,,,,,,,,,,
277,5,Memory,5,,,,,,,00308940422fb.jpg,,,,,,,,,,,,,,,
278,5,Memory,5,,,,,,,00963960627fa.jpg,,,,,,,,,,,,,,,
279,5,Memory,5,,,,,,,00260940128fa.jpg,,,,,,,,,,,,,,,
280,5,Memory,5,,,,,,,sunagvxkjokqimstxpe.jpg,,,,,,,,,,,,,,,
281,5,Memory,5,,,,,,,sunaahedjlmtqekgyvj.jpg,,,,,,,,,,,,,,,
282,5,Memory,5,,,,,,,sunapwjkcxdaeqehfql.jpg,,,,,,,,,,,,,,,
283,5,Memory,5,,,,,,,00744941201fa.jpg,,,,,,,,,,,,,,,
284,5,Memory,5,,,,,,,00069931230fb.jpg,,,,,,,,,,,,,,,
285,5,Memory,5,,,,,,,sunapileznnbbmrwoei.jpg,,,,,,,,,,,,,,,
286,5,Memory,5,,,,,,,sunajjxttslobudoqbv.jpg,,,,,,,,,,,,,,,
287,5,Memory,5,,,,,,,sunabgfhvifeijihhjw.jpg,,,,,,,,,,,,,,,
288,5,Memory,5,,,,,,,00090931230fa.jpg,,,,,,,,,,,,,,,
289,5,Memory,5,,,,,,,sunacvbrcejzwmcgnoq.jpg,,,,,,,,,,,,,,,
290,5,Memory,5,,,,,,,sunaavtbadenwnzeutj.jpg,,,,,,,,,,,,,,,
291,5,Memory,5,,,,,,,sunabwfvcqqidycwypa.jpg,,,,,,,,,,,,,,,
292,5,Memory,5,,,,,,,sunbbgtoeuzierkkajt.jpg,,,,,,,,,,,,,,,
293,5,Memory,5,,,,,,,sunafvwfsmqkjrutjta.jpg,,,,,,,,,,,,,,,
294,5,Memory,5,,,,,,,00775941205fa.jpg,,,,,,,,,,,,,,,
295,5,Memory,5,,,,,,,sunayaepykrqvenaqqy.jpg,,,,,,,,,,,,,,,
296,5,Memory,5,,,,,,,00574940928fa.jpg,,,,,,,,,,,,,,,
297,5,Memory,5,,,,,,,00184940128fa.jpg,,,,,,,,,,,,,,,
298,5,Memory,5,,,,,,,00130931230fa.jpg,,,,,,,,,,,,,,,
299,5,Memory,5,,,,,,,sunanwjjyqqwzqrqagd.jpg,,,,,,,,,,,,,,,
300,5,Presentation,6,00851940307fa_sunaivflshbyfrfzhqb.jpg,00950960627fa_sunasrjlmglmjzbmqxb.jpg,00851940307fa.jpg,sunaivflshbyfrfzhqb.jpg,00950960627fa.jpg,sunasrjlmglmjzbmqxb.jpg,,,<,Face,,,,,0,,,,,,,o
301,5,Presentation,6,00292940422fb_sunabrjdpmoedcdjbpo.jpg,00270940422fb_sunabllobxadqcyttej.jpg,00292940422fb.jpg,sunabrjdpmoedcdjbpo.jpg,00270940422fb.jpg,sunabllobxadqcyttej.jpg,,,<,Face,,,,,1,,,,,,,o
302,5,Presentation,6,00788941205fa_sunagountlxpzkytsmp.jpg,00926960627Fa_sunapqwoeotxshkukbh.jpg,00788941205fa.jpg,sunagountlxpzkytsmp.jpg,00926960627Fa.jpg,sunapqwoeotxshkukbh.jpg,,,<,Face,,,,,1,,,,,,,o
303,5,Presentation,6,00101931230fb_sunaajqmsaavkmgbsth.jpg,00647941031fa_sunadflbrkckmepztql.jpg,00101931230fb.jpg,sunaajqmsaavkmgbsth.jpg,00647941031fa.jpg,sunadflbrkckmepztql.jpg,,,<,Face,,,,,1,,,,,,,o
304,5,Presentation,6,00723941201fa_sunaedtgwjvvziytspa.jpg,00153931230fa_sunaauhozyxzeeqstxi.jpg,00723941201fa.jpg,sunaedtgwjvvziytspa.jpg,00153931230fa.jpg,sunaauhozyxzeeqstxi.jpg,,,<,Face,,,,,1,,,,,,,x
305,5,Presentation,6,00290940422fa_sunabqowuarvqqcnipn.jpg,00158931230fb_sunaavchcbptaerhcfy.jpg,00290940422fa.jpg,sunabqowuarvqqcnipn.jpg,00158931230fb.jpg,sunaavchcbptaerhcfy.jpg,,,<,Face,,,,,1,,,,,,,x
306,5,Presentation,6,00742941201fa_sunaenwuebvlpdmntju.jpg,01004960627fa_sunbwtlihsuptkrckid.jpg,00742941201fa.jpg,sunaenwuebvlpdmntju.jpg,01004960627fa.jpg,sunbwtlihsuptkrckid.jpg,,,<,Face,,,,,1,,,,,,,x
307,5,Presentation,6,00936960627fa_sunaqgjuuwvdcyiccjt.jpg,00554940519fa_sunacfdkbsrughwqwtt.jpg,00936960627fa.jpg,sunaqgjuuwvdcyiccjt.jpg,00554940519fa.jpg,sunacfdkbsrughwqwtt.jpg,,,<,Face,,,,,1,,,,,,,x
308,5,Presentation,6,00750941201fa_sunaeuzwggvibufclwf.jpg,00796941205fa_sunaguchqqnrtodtezq.jpg,00750941201fa.jpg,sunaeuzwggvibufclwf.jpg,00796941205fa.jpg,sunaguchqqnrtodtezq.jpg,,,<,Face,,,,,1,,,,,,,o
309,5,Presentation,6,00947960627fa_sunasmmcxdddtmtazwx.jpg,00149931230fa_sunaauglwmctnkxyird.jpg,00947960627fa.jpg,sunasmmcxdddtmtazwx.jpg,00149931230fa.jpg,sunaauglwmctnkxyird.jpg,,,<,Face,,,,,1,,,,,,,x
310,5,Memory,6,,,,,,,00960960627fa.jpg,,,,,,,,,,,,,,,
311,5,Memory,6,,,,,,,00153931230fa.jpg,,,,,,,,,,,,,,,
312,5,Memory,6,,,,,,,00292940422fb.jpg,,,,,,,,,,,,,,,
313,5,Memory,6,,,,,,,sunaajqmsaavkmgbsth.jpg,,,,,,,,,,,,,,,
314,5,Memory,6,,,,,,,00926960627Fa.jpg,,,,,,,,,,,,,,,
315,5,Memory,6,,,,,,,sunasmmcxdddtmtazwx.jpg,,,,,,,,,,,,,,,
316,5,Memory,6,,,,,,,sunabizydfotqddlnjp.jpg,,,,,,,,,,,,,,,
317,5,Memory,6,,,,,,,00947960627fa.jpg,,,,,,,,,,,,,,,
318,5,Memory,6,,,,,,,00797960620fa.jpg,,,,,,,,,,,,,,,
319,5,Memory,6,,,,,,,sunagufzbeteqdjxais.jpg,,,,,,,,,,,,,,,
320,5,Memory,6,,,,,,,sunbasypfgzjtomktmu.jpg,,,,,,,,,,,,,,,
321,5,Memory,6,,,,,,,sunbwtlihsuptkrckid.jpg,,,,,,,,,,,,,,,
322,5,Memory,6,,,,,,,sunaygrtwrwfezqjizr.jpg,,,,,,,,,,,,,,,
323,5,Memory,6,,,,,,,sunapqwoeotxshkukbh.jpg,,,,,,,,,,,,,,,
324,5,Memory,6,,,,,,,00158931230fb.jpg,,,,,,,,,,,,,,,
325,5,Memory,6,,,,,,,00262940128fa.jpg,,,,,,,,,,,,,,,
326,5,Memory,6,,,,,,,00887960530.jpg,,,,,,,,,,,,,,,
327,5,Memory,6,,,,,,,00966960627fa.jpg,,,,,,,,,,,,,,,
328,5,Memory,6,,,,,,,sunagountlxpzkytsmp.jpg,,,,,,,,,,,,,,,
329,5,Memory,6,,,,,,,sunaavchcbptaerhcfy.jpg,,,,,,,,,,,,,,,
330,5,Memory,6,,,,,,,sunaauhozyxzeeqstxi.jpg,,,,,,,,,,,,,,,
331,5,Memory,6,,,,,,,00742941201fa.jpg,,,,,,,,,,,,,,,
332,5,Memory,6,,,,,,,sunawksfbacycuhbrsc.jpg,,,,,,,,,,,,,,,
333,5,Memory,6,,,,,,,sunabrlndkruqokhury.jpg,,,,,,,,,,,,,,,
334,5,Memory,6,,,,,,,sunagpjzsbltchlwvou.jpg,,,,,,,,,,,,,,,
335,5,Memory,6,,,,,,,sunaakmxzhuceuiryah.jpg,,,,,,,,,,,,,,,
336,5,Memory,6,,,,,,,00294940422fb.jpg,,,,,,,,,,,,,,,
337,5,Memory,6,,,,,,,00790941205fa.jpg,,,,,,,,,,,,,,,
338,5,Memory,6,,,,,,,sunabrjdpmoedcdjbpo.jpg,,,,,,,,,,,,,,,
339,5,Memory,6,,,,,,,sunaddtdkycxbqlpfqa.jpg,,,,,,,,,,,,,,,
340,5,Memory,6,,,,,,,sunacfdkbsrughwqwtt.jpg,,,,,,,,,,,,,,,
341,5,Memory,6,,,,,,,sunalcrtwiycqobgelp.jpg,,,,,,,,,,,,,,,
342,5,Memory,6,,,,,,,00101931230fb.jpg,,,,,,,,,,,,,,,
343,5,Memory,6,,,,,,,00636941031fa.jpg,,,,,,,,,,,,,,,
344,5,Memory,6,,,,,,,00554940519fa.jpg,,,,,,,,,,,,,,,
345,5,Memory,6,,,,,,,sunaenwuebvlpdmntju.jpg,,,,,,,,,,,,,,,
346,5,Memory,6,,,,,,,00115931230fa.jpg,,,,,,,,,,,,,,,
347,5,Memory,6,,,,,,,00788941205fa.jpg,,,,,,,,,,,,,,,
348,5,Memory,6,,,,,,,00970960627fa.jpg,,,,,,,,,,,,,,,
349,5,Memory,6,,,,,,,01004960627fa.jpg,,,,,,,,,,,,,,,
350,5,Presentation,7,00630940928fa_sunaczwgyukesaajxnx.jpg,00902960530fa_sunanaacmmosxrfwmvl.jpg,00630940928fa.jpg,sunaczwgyukesaajxnx.jpg,00902960530fa.jpg,sunanaacmmosxrfwmvl.jpg,,,<,Place,,,,,1,,,,,,,x
351,5,Presentation,7,01007960627fa_sunbxarcshsnqsefemx.jpg,00905960530fa_sunanmoqeyprjjjfxjt.jpg,01007960627fa.jpg,sunbxarcshsnqsefemx.jpg,00905960530fa.jpg,sunanmoqeyprjjjfxjt.jpg,,,<,Place,,,,,0,,,,,,,x
352,5,Presentation,7,00955960627fb_sunauburywlkjszngcq.jpg,00314940422fa_sunabwmcbaxwioksdgw.jpg,00955960627fb.jpg,sunauburywlkjszngcq.jpg,00314940422fa.jpg,sunabwmcbaxwioksdgw.jpg,,,<,Place,,,,,1,,,,,,,o
353,5,Presentation,7,00245940128fa_sunabeyhmxodahoieyk.jpg,00265940128fb_sunabkmdplkdbvxriff.jpg,00245940128fa.jpg,sunabeyhmxodahoieyk.jpg,00265940128fb.jpg,sunabkmdplkdbvxriff.jpg,,,<,Place,,,,,1,,,,,,,o
354,5,Presentation,7,00540940519fa_sunacdnquypmsshhsbk.jpg,00809960620fa_sunahbvlpavurqoxdeq.jpg,00540940519fa.jpg,sunacdnquypmsshhsbk.jpg,00809960620fa.jpg,sunahbvlpavurqoxdeq.jpg,,,<,Place,,,,,1,,,,,,,o
355,5,Presentation,7,00884960530fa_sunakodkcslgqhqlgwl.jpg,00898960530fa_sunamkmeblgteyggink.jpg,00884960530fa.jpg,sunakodkcslgqhqlgwl.jpg,00898960530fa.jpg,sunamkmeblgteyggink.jpg,,,<,Place,,,,,1,,,,,,,x
356,5,Presentation,7,00280940422fb_sunabohxbskznglnrhv.jpg,00792941205fa_sunagsiwrmuixqgdimb.jpg,00280940422fb.jpg,sunabohxbskznglnrhv.jpg,00792941205fa.jpg,sunagsiwrmuixqgdimb.jpg,,,<,Place,,,,,1,,,,,,,o
357,5,Presentation,7,00109931230fa_sunaajuzribjrizdshh.jpg,00306940422fa_sunabueyoajufbkraki.jpg,00109931230fa.jpg,sunaajuzribjrizdshh.jpg,00306940422fa.jpg,sunabueyoajufbkraki.jpg,,,<,Place,,,,,1,,,,,,,x
358,5,Presentation,7,00191940128fb_sunaawsdjisukbbginm.jpg,00163931230fb_sunaavodbcpygkggnfp.jpg,00191940128fb.jpg,sunaawsdjisukbbginm.jpg,00163931230fb.jpg,sunaavodbcpygkggnfp.jpg,,,<,Place,,,,,1,,,,,,,o
359,5,Presentation,7,00609940928fa_sunacycdoztxoluxjyk.jpg,01009960627fa_sunbxzweleltykebgan.jpg,00609940928fa.jpg,sunacycdoztxoluxjyk.jpg,01009960627fa.jpg,sunbxzweleltykebgan.jpg,,,<,Place,,,,,1,,,,,,,o
360,5,Memory,7,,,,,,,sunaavodbcpygkggnfp.jpg,,,,,,,,,,,,,,,
361,5,Memory,7,,,,,,,sunacxtcahkymosigud.jpg,,,,,,,,,,,,,,,
362,5,Memory,7,,,,,,,sunafowswglhxcsufpo.jpg,,,,,,,,,,,,,,,
363,5,Memory,7,,,,,,,00191940128fb.jpg,,,,,,,,,,,,,,,
364,5,Memory,7,,,,,,,00306940422fa.jpg,,,,,,,,,,,,,,,
365,5,Memory,7,,,,,,,00163931230fb.jpg,,,,,,,,,,,,,,,
366,5,Memory,7,,,,,,,00854940307fa.jpg,,,,,,,,,,,,,,,
367,5,Memory,7,,,,,,,00481940519fa.jpg,,,,,,,,,,,,,,,
368,5,Memory,7,,,,,,,00741941201fa.jpg,,,,,,,,,,,,,,,
369,5,Memory,7,,,,,,,00635941031fa.jpg,,,,,,,,,,,,,,,
370,5,Memory,7,,,,,,,sunabkmdplkdbvxriff.jpg,,,,,,,,,,,,,,,
371,5,Memory,7,,,,,,,00955960627fb.jpg,,,,,,,,,,,,,,,
372,5,Memory,7,,,,,,,sunaekgzpfilgjxpeyq.jpg,,,,,,,,,,,,,,,
373,5,Memory,7,,,,,,,00265940128fb.jpg,,,,,,,,,,,,,,,
374,5,Memory,7,,,,,,,00598941031fa.jpg,,,,,,,,,,,,,,,
375,5,Memory,7,,,,,,,sunabueyoajufbkraki.jpg,,,,,,,,,,,,,,,
376,5,Memory,7,,,,,,,00529940519fa.jpg,,,,,,,,,,,,,,,
377,5,Memory,7,,,,,,,sunaczwgyukesaajxnx.jpg,,,,,,,,,,,,,,,
378,5,Memory,7,,,,,,,00898960530fa.jpg,,,,,,,,,,,,,,,
379,5,Memory,7,,,,,,,00109931230fa.jpg,,,,,,,,,,,,,,,
380,5,Memory,7,,,,,,,sunacbeefkxpymwevpk.jpg,,,,,,,,,,,,,,,
381,5,Memory,7,,,,,,,sunahbvlpavurqoxdeq.jpg,,,,,,,,,,,,,,,
382,5,Memory,7,,,,,,,sunaiwduelojtwaqeyh.jpg,,,,,,,,,,,,,,,
383,5,Memory,7,,,,,,,sunacycdoztxoluxjyk.jpg,,,,,,,,,,,,,,,
384,5,Memory,7,,,,,,,00730960620fa.jpg,,,,,,,,,,,,,,,
385,5,Memory,7,,,,,,,sunabxsuqbleluwczoy.jpg,,,,,,,,,,,,,,,
386,5,Memory,7,,,,,,,01003960627fb.jpg,,,,,,,,,,,,,,,
387,5,Memory,7,,,,,,,00609940928fa.jpg,,,,,,,,,,,,,,,
388,5,Memory,7,,,,,,,00771941205fa.jpg,,,,,,,,,,,,,,,
389,5,Memory,7,,,,,,,00140931230fb.jpg,,,,,,,,,,,,,,,
390,5,Memory,7,,,,,,,sunaddsaeicthrfbkhe.jpg,,,,,,,,,,,,,,,
391,5,Memory,7,,,,,,,00809960620fa.jpg,,,,,,,,,,,,,,,
392,5,Memory,7,,,,,,,sunaapllqyqlykszopd.jpg,,,,,,,,,,,,,,,
393,5,Memory,7,,,,,,,sunaawsdjisukbbginm.jpg,,,,,,,,,,,,,,,
394,5,Memory,7,,,,,,,sunamkmeblgteyggink.jpg,,,,,,,,,,,,,,,
395,5,Memory,7,,,,,,,sunauburywlkjszngcq.jpg,,,,,,,,,,,,,,,
396,5,Memory,7,,,,,,,sunaajuzribjrizdshh.jpg,,,,,,,,,,,,,,,
397,5,Memory,7,,,,,,,00630940928fa.jpg,,,,,,,,,,,,,,,
398,5,Memory,7,,,,,,,sunaemcowdozyphwknd.jpg,,,,,,,,,,,,,,,
399,5,Memory,7,,,,,,,sunbwdrdvsweerwsdrj.jpg,,,,,,,,,,,,,,,
