,Subject,Trial Type,Run,Cued Composite,Uncued Composite,Cued Face,Cued Place,Uncued Face,Uncued Place,Memory Image,Category,Cued Side,Cued Category,Attention Response Time (s),Familiarity Reaction Time (s),Familiarity Rating,Attention Level,Cue Validity,Post Invalid Cue,Pre Invalid Cue,Attention Button,Rating History,Stimulus Onset,Stimulus End,Attention Probe
0,18,Presentation,0,00805941205fa_sunagwzdbtlixdhgolm.jpg,00971960627fa_sunbbegcweqnetpdlrh.jpg,,,,,,,>,Place,,,,,1,,,,,,,x
1,18,Presentation,0,00822940307fa_sunahqrxievfeusiqlt.jpg,00214940128fa_sunabbafjowbzcvbucc.jpg,,,,,,,>,Face,,,,,1,,,,,,,o
2,18,Presentation,0,00874940307fa_sunajtrfunvzdfticna.jpg,00097931230fa_sunaajayojuslbbnneg.jpg,,,,,,,>,Place,,,,,1,,,,,,,x
3,18,Presentation,0,00787960620fa_sunagoufulkpsxrmklt.jpg,00952960627fa_sunathzzbcwjykldrem.jpg,,,,,,,<,Face,,,,,1,,,,,,,x
4,18,Presentation,0,00631940928fa_sunadbdqzigzwipuipr.jpg,00870940307fa_sunajrgtewnualfcerj.jpg,,,,,,,<,Place,,,,,1,,,,,,,x
5,18,Presentation,0,00260940128fa_sunabgfhvifeijihhjw.jpg,00719941201fa_sunadvithllcgmfxsrn.jpg,,,,,,,<,Face,,,,,1,,,,,,,x
6,18,Presentation,0,00263940128fb_sunabjuovqvyfuzvqwt.jpg,00915960620fa_sunapileznnbbmrwoei.jpg,,,,,,,<,Place,,,,,1,,,,,,,x
7,18,Presentation,0,00885960530fa_sunakwlvxjpddialozd.jpg,00663941121fa_sunadnjjzohjhbohlwq.jpg,,,,,,,>,Face,,,,,1,,,,,,,o
8,18,Presentation,0,00554940519fa_sunacfdkbsrughwqwtt.jpg,00280940422fb_sunabohxbskznglnrhv.jpg,,,,,,,>,Place,,,,,1,,,,,,,x
9,18,Presentation,0,00681941121fa_sunadqmjrhfjyuzyvdd.jpg,00065931230fb_sunaaemixhfquhnxxlm.jpg,,,,,,,<,Face,,,,,1,,,,,,,x
10,18,Memory,0,,,,,,,00308940422fb.jpg,,,,,,,,,,,,,,,
11,18,Memory,0,,,,,,,sunbloeoiozwjjsiamp.jpg,,,,,,,,,,,,,,,
12,18,Memory,0,,,,,,,00097931230fa.jpg,,,,,,,,,,,,,,,
13,18,Memory,0,,,,,,,00787960620fa.jpg,,,,,,,,,,,,,,,
14,18,Memory,0,,,,,,,00197940128fa.jpg,,,,,,,,,,,,,,,
15,18,Memory,0,,,,,,,sunabwfvcqqidycwypa.jpg,,,,,,,,,,,,,,,
16,18,Memory,0,,,,,,,sunabrwnslxalcohfre.jpg,,,,,,,,,,,,,,,
17,18,Memory,0,,,,,,,00955960627fb.jpg,,,,,,,,,,,,,,,
18,18,Memory,0,,,,,,,sunauburywlkjszngcq.jpg,,,,,,,,,,,,,,,
19,18,Memory,0,,,,,,,sunadbdqzigzwipuipr.jpg,,,,,,,,,,,,,,,
20,18,Memory,0,,,,,,,00952960627fa.jpg,,,,,,,,,,,,,,,
21,18,Memory,0,,,,,,,00805941205fa.jpg,,,,,,,,,,,,,,,
22,18,Memory,0,,,,,,,00971960627fa.jpg,,,,,,,,,,,,,,,
23,18,Memory,0,,,,,,,00296940422fa.jpg,,,,,,,,,,,,,,,
24,18,Memory,0,,,,,,,00262940128fa.jpg,,,,,,,,,,,,,,,
25,18,Memory,0,,,,,,,sunajtrfunvzdfticna.jpg,,,,,,,,,,,,,,,
26,18,Memory,0,,,,,,,sunbbegcweqnetpdlrh.jpg,,,,,,,,,,,,,,,
27,18,Memory,0,,,,,,,00870940307fa.jpg,,,,,,,,,,,,,,,
28,18,Memory,0,,,,,,,suncnkvbhypnivcohyx.jpg,,,,,,,,,,,,,,,
29,18,Memory,0,,,,,,,sunaajayojuslbbnneg.jpg,,,,,,,,,,,,,,,
30,18,Memory,0,,,,,,,sunagoufulkpsxrmklt.jpg,,,,,,,,,,,,,,,
31,18,Memory,0,,,,,,,00987960627fa.jpg,,,,,,,,,,,,,,,
32,18,Memory,0,,,,,,,00719941201fa.jpg,,,,,,,,,,,,,,,
33,18,Memory,0,,,,,,,sunadvithllcgmfxsrn.jpg,,,,,,,,,,,,,,,
34,18,Memory,0,,,,,,,sunarpsxqkduedrrzyi.jpg,,,,,,,,,,,,,,,
35,18,Memory,0,,,,,,,00260940128fa.jpg,,,,,,,,,,,,,,,
36,18,Memory,0,,,,,,,00742941201fa.jpg,,,,,,,,,,,,,,,
37,18,Memory,0,,,,,,,sunafpfpiiujzoesnqg.jpg,,,,,,,,,,,,,,,
38,18,Memory,0,,,,,,,sunajrgtewnualfcerj.jpg,,,,,,,,,,,,,,,
39,18,Memory,0,,,,,,,01010960627fa.jpg,,,,,,,,,,,,,,,
40,18,Memory,0,,,,,,,00943960627fa.jpg,,,,,,,,,,,,,,,
41,18,Memory,0,,,,,,,sunaaylzyqlqrsmfwif.jpg,,,,,,,,,,,,,,,
42,18,Memory,0,,,,,,,sunabizydfotqddlnjp.jpg,,,,,,,,,,,,,,,
43,18,Memory,0,,,,,,,00631940928fa.jpg,,,,,,,,,,,,,,,
44,18,Memory,0,,,,,,,sunagwzdbtlixdhgolm.jpg,,,,,,,,,,,,,,,
45,18,Memory,0,,,,,,,sunaenwuebvlpdmntju.jpg,,,,,,,,,,,,,,,
46,18,Memory,0,,,,,,,sunathzzbcwjykldrem.jpg,,,,,,,,,,,,,,,
47,18,Memory,0,,,,,,,sunabgfhvifeijihhjw.jpg,,,,,,,,,,,,,,,
48,18,Memory,0,,,,,,,00772941201fa.jpg,,,,,,,,,,,,,,,
49,18,Memory,0,,,,,,,00874940307fa.jpg,,,,,,,,,,,,,,,
50,18,Presentation,1,00961960627fa_sunawotxrevnqvamsfp.jpg,00647941031fa_sunadflbrkckmepztql.jpg,,,,,,,>,Place,,,,,1,,,,,,,o
51,18,Presentation,1,00960960627fa_sunawksfbacycuhbrsc.jpg,00676941121fa_sunadpnqovzckyikrjo.jpg,,,,,,,<,Place,,,,,1,,,,,,,x
52,18,Presentation,1,00889960530fa_sunaletopenvvozhpxc.jpg,00670941121fa_sunadochqcucscehsgk.jpg,,,,,,,>,Face,,,,,1,,,,,,,o
53,18,Presentation,1,00725941201fa_sunaefgzwiramypjvtd.jpg,00142931230fb_sunaapxkpvrhpjplsok.jpg,,,,,,,>,Place,,,,,0,,,,,,,x
54,18,Presentation,1,00132931230fb_sunaanjcbzdvtvblsdy.jpg,00559940519fa_sunacjkmnpawfzbyvae.jpg,,,,,,,<,Face,,,,,1,,,,,,,x
55,18,Presentation,1,00784941205fb_sunagjzcrjvmxzqzljx.jpg,00965960627fa_sunaydywdmvlfddbxbk.jpg,,,,,,,<,Place,,,,,1,,,,,,,x
56,18,Presentation,1,00070940307fa_sunaaeplwsfslcbtojr.jpg,00761960627fa_sunafgdqbclkwfocdhg.jpg,,,,,,,>,Face,,,,,1,,,,,,,x
57,18,Presentation,1,00884960530fa_sunakodkcslgqhqlgwl.jpg,00834940307fa_sunaibnpvhkdpdnzcnz.jpg,,,,,,,<,Face,,,,,1,,,,,,,o
58,18,Presentation,1,00267940128fb_sunablfqiwfqomjarht.jpg,00746941201fa_sunaetydippjxikifsb.jpg,,,,,,,>,Face,,,,,1,,,,,,,o
59,18,Presentation,1,00063931230fa_sunaaelyvurpntclgau.jpg,00115931230fa_sunaakmxzhuceuiryah.jpg,,,,,,,<,Place,,,,,0,,,,,,,x
60,18,Memory,1,,,,,,,sunagufzbeteqdjxais.jpg,,,,,,,,,,,,,,,
61,18,Memory,1,,,,,,,00142931230fb.jpg,,,,,,,,,,,,,,,
62,18,Memory,1,,,,,,,00589940928fa.jpg,,,,,,,,,,,,,,,
63,18,Memory,1,,,,,,,sunawksfbacycuhbrsc.jpg,,,,,,,,,,,,,,,
64,18,Memory,1,,,,,,,sunagjzcrjvmxzqzljx.jpg,,,,,,,,,,,,,,,
65,18,Memory,1,,,,,,,00937960627fa.jpg,,,,,,,,,,,,,,,
66,18,Memory,1,,,,,,,sunajjxttslobudoqbv.jpg,,,,,,,,,,,,,,,
67,18,Memory,1,,,,,,,sunaakmxzhuceuiryah.jpg,,,,,,,,,,,,,,,
68,18,Memory,1,,,,,,,00859940307fa.jpg,,,,,,,,,,,,,,,
69,18,Memory,1,,,,,,,00070940307fa.jpg,,,,,,,,,,,,,,,
70,18,Memory,1,,,,,,,sunaaeplwsfslcbtojr.jpg,,,,,,,,,,,,,,,
71,18,Memory,1,,,,,,,00868960307fa.jpg,,,,,,,,,,,,,,,
72,18,Memory,1,,,,,,,sunaapxkpvrhpjplsok.jpg,,,,,,,,,,,,,,,
73,18,Memory,1,,,,,,,00797960620fa.jpg,,,,,,,,,,,,,,,
74,18,Memory,1,,,,,,,00957960627fa.jpg,,,,,,,,,,,,,,,
75,18,Memory,1,,,,,,,00635941031fa.jpg,,,,,,,,,,,,,,,
76,18,Memory,1,,,,,,,00647941031fa.jpg,,,,,,,,,,,,,,,
77,18,Memory,1,,,,,,,00559940519fa.jpg,,,,,,,,,,,,,,,
78,18,Memory,1,,,,,,,00063931230fa.jpg,,,,,,,,,,,,,,,
79,18,Memory,1,,,,,,,sunaaelyvurpntclgau.jpg,,,,,,,,,,,,,,,
80,18,Memory,1,,,,,,,sunaathajvxrgptwhoj.jpg,,,,,,,,,,,,,,,
81,18,Memory,1,,,,,,,sunavhxgmgrqsaptynb.jpg,,,,,,,,,,,,,,,
82,18,Memory,1,,,,,,,00894960620fa.jpg,,,,,,,,,,,,,,,
83,18,Memory,1,,,,,,,sunaddsaeicthrfbkhe.jpg,,,,,,,,,,,,,,,
84,18,Memory,1,,,,,,,00115931230fa.jpg,,,,,,,,,,,,,,,
85,18,Memory,1,,,,,,,00864940307fa.jpg,,,,,,,,,,,,,,,
86,18,Memory,1,,,,,,,00144931230fb.jpg,,,,,,,,,,,,,,,
87,18,Memory,1,,,,,,,sunaiycurtqsfkvcaso.jpg,,,,,,,,,,,,,,,
88,18,Memory,1,,,,,,,00784941205fb.jpg,,,,,,,,,,,,,,,
89,18,Memory,1,,,,,,,sunaetydippjxikifsb.jpg,,,,,,,,,,,,,,,
90,18,Memory,1,,,,,,,00132931230fb.jpg,,,,,,,,,,,,,,,
91,18,Memory,1,,,,,,,00960960627fa.jpg,,,,,,,,,,,,,,,
92,18,Memory,1,,,,,,,sunajawzbrlrwafowen.jpg,,,,,,,,,,,,,,,
93,18,Memory,1,,,,,,,sunalqmfgeadpqsyzpd.jpg,,,,,,,,,,,,,,,
94,18,Memory,1,,,,,,,sunadflbrkckmepztql.jpg,,,,,,,,,,,,,,,
95,18,Memory,1,,,,,,,sunaqsolmfydodnakub.jpg,,,,,,,,,,,,,,,
96,18,Memory,1,,,,,,,sunaanjcbzdvtvblsdy.jpg,,,,,,,,,,,,,,,
97,18,Memory,1,,,,,,,00746941201fa.jpg,,,,,,,,,,,,,,,
98,18,Memory,1,,,,,,,sunacwggadqsfpovdjv.jpg,,,,,,,,,,,,,,,
99,18,Memory,1,,,,,,,sunacjkmnpawfzbyvae.jpg,,,,,,,,,,,,,,,
100,18,Presentation,2,00218940128fa_sunabbwggenhfbftyvi.jpg,00776941205fa_sunafxokyavhgptyfye.jpg,,,,,,,<,Face,,,,,1,,,,,,,o
101,18,Presentation,2,00770941201fa_sunaflojskatpeqyzqp.jpg,00795941205fa_sunagtumacdlmciqamz.jpg,,,,,,,>,Face,,,,,1,,,,,,,x
102,18,Presentation,2,00922960627fa_sunapqkyghktgtosuuk.jpg,00749941201fa_sunaeuvjbmdpknaqqaj.jpg,,,,,,,<,Place,,,,,1,,,,,,,x
103,18,Presentation,2,00763941205fa_sunafhmnhsdurlvddpw.jpg,00978960627fa_sunbddbivbptlrlauhy.jpg,,,,,,,<,Face,,,,,1,,,,,,,x
104,18,Presentation,2,00086931230fa_sunaafynehyrzpsoaml.jpg,00193940928fa_sunaaxjpzcnxligjtjq.jpg,,,,,,,>,Place,,,,,1,,,,,,,o
105,18,Presentation,2,00854940307fa_sunaiwduelojtwaqeyh.jpg,00914960620fa_sunaozisvwfbmlkfhzv.jpg,,,,,,,>,Face,,,,,1,,,,,,,o
106,18,Presentation,2,00799941205fa_sunagutjvdvnhxejerz.jpg,00077931230fb_sunaafgqutfaishsxyu.jpg,,,,,,,>,Place,,,,,1,,,,,,,o
107,18,Presentation,2,00818940307fa_sunahpblecxtmuzkmxb.jpg,00860940307fa_sunaizeyhvjzknwjudw.jpg,,,,,,,<,Face,,,,,1,,,,,,,o
108,18,Presentation,2,00891960530fa_sunalkiibhqpxfamlll.jpg,00185940422fb_sunaawqdbpihmlbwyyn.jpg,,,,,,,>,Place,,,,,0,,,,,,,o
109,18,Presentation,2,00986960627fa_sunbgzjryivyczuvkvm.jpg,00564940928fa_sunacmpqqfbsvlzinzl.jpg,,,,,,,<,Place,,,,,1,,,,,,,x
110,18,Memory,2,,,,,,,sunafhmnhsdurlvddpw.jpg,,,,,,,,,,,,,,,
111,18,Memory,2,,,,,,,sunaafynehyrzpsoaml.jpg,,,,,,,,,,,,,,,
112,18,Memory,2,,,,,,,00093931230fa.jpg,,,,,,,,,,,,,,,
113,18,Memory,2,,,,,,,sunafxokyavhgptyfye.jpg,,,,,,,,,,,,,,,
114,18,Memory,2,,,,,,,sunapqkyghktgtosuuk.jpg,,,,,,,,,,,,,,,
115,18,Memory,2,,,,,,,00788941205fa.jpg,,,,,,,,,,,,,,,
116,18,Memory,2,,,,,,,sunacvbrcejzwmcgnoq.jpg,,,,,,,,,,,,,,,
117,18,Memory,2,,,,,,,00978960627fa.jpg,,,,,,,,,,,,,,,
118,18,Memory,2,,,,,,,sunahuynahneraqftyz.jpg,,,,,,,,,,,,,,,
119,18,Memory,2,,,,,,,sunadcphrizvfpljiqt.jpg,,,,,,,,,,,,,,,
120,18,Memory,2,,,,,,,00906960530fa.jpg,,,,,,,,,,,,,,,
121,18,Memory,2,,,,,,,sunagountlxpzkytsmp.jpg,,,,,,,,,,,,,,,
122,18,Memory,2,,,,,,,00763941205fa.jpg,,,,,,,,,,,,,,,
123,18,Memory,2,,,,,,,00564940928fa.jpg,,,,,,,,,,,,,,,
124,18,Memory,2,,,,,,,sunacmpqqfbsvlzinzl.jpg,,,,,,,,,,,,,,,
125,18,Memory,2,,,,,,,sunaozisvwfbmlkfhzv.jpg,,,,,,,,,,,,,,,
126,18,Memory,2,,,,,,,00828940307fa.jpg,,,,,,,,,,,,,,,
127,18,Memory,2,,,,,,,00914960620fa.jpg,,,,,,,,,,,,,,,
128,18,Memory,2,,,,,,,sunaloffvbvysigxent.jpg,,,,,,,,,,,,,,,
129,18,Memory,2,,,,,,,00922960627fa.jpg,,,,,,,,,,,,,,,
130,18,Memory,2,,,,,,,sunaafgqutfaishsxyu.jpg,,,,,,,,,,,,,,,
131,18,Memory,2,,,,,,,sunaeisnjeetzmkbuad.jpg,,,,,,,,,,,,,,,
132,18,Memory,2,,,,,,,sunbddbivbptlrlauhy.jpg,,,,,,,,,,,,,,,
133,18,Memory,2,,,,,,,sunacerqowiaeoqkmsq.jpg,,,,,,,,,,,,,,,
134,18,Memory,2,,,,,,,sunbgzjryivyczuvkvm.jpg,,,,,,,,,,,,,,,
135,18,Memory,2,,,,,,,sunabppokiyglaxpcha.jpg,,,,,,,,,,,,,,,
136,18,Memory,2,,,,,,,00634940928fa.jpg,,,,,,,,,,,,,,,
137,18,Memory,2,,,,,,,sunantryfbloeaomfta.jpg,,,,,,,,,,,,,,,
138,18,Memory,2,,,,,,,00288940422fa.jpg,,,,,,,,,,,,,,,
139,18,Memory,2,,,,,,,00218940128fa.jpg,,,,,,,,,,,,,,,
140,18,Memory,2,,,,,,,00893960530Fa.jpg,,,,,,,,,,,,,,,
141,18,Memory,2,,,,,,,00086931230fa.jpg,,,,,,,,,,,,,,,
142,18,Memory,2,,,,,,,00986960627fa.jpg,,,,,,,,,,,,,,,
143,18,Memory,2,,,,,,,00727941205fa.jpg,,,,,,,,,,,,,,,
144,18,Memory,2,,,,,,,00077931230fb.jpg,,,,,,,,,,,,,,,
145,18,Memory,2,,,,,,,sunaahwnmtqsrhocysw.jpg,,,,,,,,,,,,,,,
146,18,Memory,2,,,,,,,00776941205fa.jpg,,,,,,,,,,,,,,,
147,18,Memory,2,,,,,,,00548940519fa.jpg,,,,,,,,,,,,,,,
148,18,Memory,2,,,,,,,00574940928fa.jpg,,,,,,,,,,,,,,,
149,18,Memory,2,,,,,,,sunabbwggenhfbftyvi.jpg,,,,,,,,,,,,,,,
150,18,Presentation,3,00146960620fb_sunaatpeezlljqaxlhj.jpg,00060931230fa_sunaaehaikpckyjsety.jpg,,,,,,,>,Place,,,,,1,,,,,,,x
151,18,Presentation,3,00123931230fb_sunaalcrrdbjgdztbiz.jpg,00061931230fb_sunaaekxzjzrfgtkwjf.jpg,,,,,,,<,Place,,,,,1,,,,,,,x
152,18,Presentation,3,00949960627fb_sunasnqkkyhilqkxiqm.jpg,00939960627fa_sunarceibpcyacbmfga.jpg,,,,,,,>,Face,,,,,1,,,,,,,o
153,18,Presentation,3,00838940307fa_sunaiozxhxgtfrmoagh.jpg,00235940128fb_sunabclssnoeuigtawp.jpg,,,,,,,<,Place,,,,,1,,,,,,,x
154,18,Presentation,3,00882960530fa_sunaknlirqjqiwbbeeg.jpg,00108960530fa_sunaajtnvzzpsjdzres.jpg,,,,,,,>,Face,,,,,1,,,,,,,o
155,18,Presentation,3,00777941205fa_sunagcinxkccdtrjmlv.jpg,00221940128fa_sunabcfpwlpolnutyju.jpg,,,,,,,<,Face,,,,,1,,,,,,,x
156,18,Presentation,3,00984960627fa_sunbfzchmomnvzhbxdg.jpg,00562941031fa_sunacjnahdmqfnjfwqx.jpg,,,,,,,>,Face,,,,,1,,,,,,,o
157,18,Presentation,3,00901960530fa_sunammbnoambmhdxdwd.jpg,00483940519fa_sunabyvpwkgsjtijdwj.jpg,,,,,,,>,Place,,,,,1,,,,,,,x
158,18,Presentation,3,00785941205fa_sunaglqunwuycxydmyu.jpg,00505960627fa_sunabzuqsrgcsonqlkz.jpg,,,,,,,<,Place,,,,,1,,,,,,,x
159,18,Presentation,3,00774941201fa_sunafvtpfczkzopbgue.jpg,00878960530fa_sunakgbnzxmfohgehnu.jpg,,,,,,,<,Face,,,,,1,,,,,,,x
160,18,Memory,3,,,,,,,00060931230fa.jpg,,,,,,,,,,,,,,,
161,18,Memory,3,,,,,,,sunaakxgygjfqrzpyoz.jpg,,,,,,,,,,,,,,,
162,18,Memory,3,,,,,,,01005960627fa.jpg,,,,,,,,,,,,,,,
163,18,Memory,3,,,,,,,sunabclssnoeuigtawp.jpg,,,,,,,,,,,,,,,
164,18,Memory,3,,,,,,,sunaguchqqnrtodtezq.jpg,,,,,,,,,,,,,,,
165,18,Memory,3,,,,,,,00838940307fa.jpg,,,,,,,,,,,,,,,
166,18,Memory,3,,,,,,,sunabzuqsrgcsonqlkz.jpg,,,,,,,,,,,,,,,
167,18,Memory,3,,,,,,,sunbfzchmomnvzhbxdg.jpg,,,,,,,,,,,,,,,
168,18,Memory,3,,,,,,,00939960627fa.jpg,,,,,,,,,,,,,,,
169,18,Memory,3,,,,,,,00901960530fa.jpg,,,,,,,,,,,,,,,
170,18,Memory,3,,,,,,,sunaafewhewbxmjiurz.jpg,,,,,,,,,,,,,,,
171,18,Memory,3,,,,,,,sunaakqepfoeqomfgxf.jpg,,,,,,,,,,,,,,,
172,18,Memory,3,,,,,,,sunaaehaikpckyjsety.jpg,,,,,,,,,,,,,,,
173,18,Memory,3,,,,,,,00984960627fa.jpg,,,,,,,,,,,,,,,
174,18,Memory,3,,,,,,,sunammbnoambmhdxdwd.jpg,,,,,,,,,,,,,,,
175,18,Memory,3,,,,,,,00076931230fa.jpg,,,,,,,,,,,,,,,
176,18,Memory,3,,,,,,,sunabcfpwlpolnutyju.jpg,,,,,,,,,,,,,,,
177,18,Memory,3,,,,,,,00235940128fb.jpg,,,,,,,,,,,,,,,
178,18,Memory,3,,,,,,,00598940928fa.jpg,,,,,,,,,,,,,,,
179,18,Memory,3,,,,,,,sunafvtpfczkzopbgue.jpg,,,,,,,,,,,,,,,
180,18,Memory,3,,,,,,,sunaixpqndlwhwjtjek.jpg,,,,,,,,,,,,,,,
181,18,Memory,3,,,,,,,00120931230fa.jpg,,,,,,,,,,,,,,,
182,18,Memory,3,,,,,,,00116931230fa.jpg,,,,,,,,,,,,,,,
183,18,Memory,3,,,,,,,00162931230fb.jpg,,,,,,,,,,,,,,,
184,18,Memory,3,,,,,,,sunaavjinpnkappuonm.jpg,,,,,,,,,,,,,,,
185,18,Memory,3,,,,,,,00777941205fa.jpg,,,,,,,,,,,,,,,
186,18,Memory,3,,,,,,,00858940307fa.jpg,,,,,,,,,,,,,,,
187,18,Memory,3,,,,,,,00983960627fa.jpg,,,,,,,,,,,,,,,
188,18,Memory,3,,,,,,,00796941205fa.jpg,,,,,,,,,,,,,,,
189,18,Memory,3,,,,,,,sunaiozxhxgtfrmoagh.jpg,,,,,,,,,,,,,,,
190,18,Memory,3,,,,,,,00221940128fa.jpg,,,,,,,,,,,,,,,
191,18,Memory,3,,,,,,,00774941201fa.jpg,,,,,,,,,,,,,,,
192,18,Memory,3,,,,,,,sunagcinxkccdtrjmlv.jpg,,,,,,,,,,,,,,,
193,18,Memory,3,,,,,,,sunacxeheuiigkcgquf.jpg,,,,,,,,,,,,,,,
194,18,Memory,3,,,,,,,00198940128fb.jpg,,,,,,,,,,,,,,,
195,18,Memory,3,,,,,,,00505960627fa.jpg,,,,,,,,,,,,,,,
196,18,Memory,3,,,,,,,sunaazezcsunmhttzxz.jpg,,,,,,,,,,,,,,,
197,18,Memory,3,,,,,,,sunbwyuesflwdpqtgoy.jpg,,,,,,,,,,,,,,,
198,18,Memory,3,,,,,,,sunbfyvfqiimvdaxlqn.jpg,,,,,,,,,,,,,,,
199,18,Memory,3,,,,,,,sunarceibpcyacbmfga.jpg,,,,,,,,,,,,,,,
200,18,Presentation,4,00744941201fa_sunaeomlfaabhpswasy.jpg,00792941205fa_sunagsiwrmuixqgdimb.jpg,,,,,,,>,Face,,,,,1,,,,,,,o
201,18,Presentation,4,00786941205fa_sunagmhildamktmqjss.jpg,00675941121fa_sunadoxcchtmsxewsau.jpg,,,,,,,<,Place,,,,,1,,,,,,,x
202,18,Presentation,4,00905960530fa_sunanmoqeyprjjjfxjt.jpg,01003960627fb_sunbwdrdvsweerwsdrj.jpg,,,,,,,<,Face,,,,,1,,,,,,,o
203,18,Presentation,4,00119931230fb_sunaakvmbftkrgqhjun.jpg,00154931230fa_sunaauueuhhvklldjik.jpg,,,,,,,<,Place,,,,,1,,,,,,,x
204,18,Presentation,4,00848940307fa_sunaivdylrawbmhryfp.jpg,00153931230fa_sunaauhozyxzeeqstxi.jpg,,,,,,,>,Face,,,,,1,,,,,,,o
205,18,Presentation,4,00543940519fa_sunacepzfrmtkiqonpy.jpg,00138931230fa_sunaapfaivxqoynnwwp.jpg,,,,,,,>,Place,,,,,0,,,,,,,o
206,18,Presentation,4,00705960530fa_sunaduslxfzlbxlllnz.jpg,00760960620fa_sunaffstbkappprzxnv.jpg,,,,,,,>,Face,,,,,1,,,,,,,x
207,18,Presentation,4,00568940928fa_sunacsdhbbsybcyxnel.jpg,00630940928fa_sunaczwgyukesaajxnx.jpg,,,,,,,<,Place,,,,,1,,,,,,,o
208,18,Presentation,4,00966960627fa_sunaygrtwrwfezqjizr.jpg,00804960530fa_sunagwswhkvnsmuszlz.jpg,,,,,,,<,Face,,,,,1,,,,,,,o
209,18,Presentation,4,00783941205fa_sunagjeesomrwjsfqie.jpg,00979960627fa_sunbdycacjfaujxitbw.jpg,,,,,,,>,Place,,,,,1,,,,,,,o
210,18,Memory,4,,,,,,,sunaezuszgtxnmsxdbk.jpg,,,,,,,,,,,,,,,
211,18,Memory,4,,,,,,,sunagwswhkvnsmuszlz.jpg,,,,,,,,,,,,,,,
212,18,Memory,4,,,,,,,sunapqwnqzxlsfvgsjm.jpg,,,,,,,,,,,,,,,
213,18,Memory,4,,,,,,,sunaalhlvzmjmitybdn.jpg,,,,,,,,,,,,,,,
214,18,Memory,4,,,,,,,sunacepzfrmtkiqonpy.jpg,,,,,,,,,,,,,,,
215,18,Memory,4,,,,,,,00630940928fa.jpg,,,,,,,,,,,,,,,
216,18,Memory,4,,,,,,,sunadbhmrgrrpyzglxs.jpg,,,,,,,,,,,,,,,
217,18,Memory,4,,,,,,,sunagjeesomrwjsfqie.jpg,,,,,,,,,,,,,,,
218,18,Memory,4,,,,,,,00979960627fa.jpg,,,,,,,,,,,,,,,
219,18,Memory,4,,,,,,,00925960627fa.jpg,,,,,,,,,,,,,,,
220,18,Memory,4,,,,,,,00071941031fa.jpg,,,,,,,,,,,,,,,
221,18,Memory,4,,,,,,,00633940928fa.jpg,,,,,,,,,,,,,,,
222,18,Memory,4,,,,,,,00124931230fa.jpg,,,,,,,,,,,,,,,
223,18,Memory,4,,,,,,,sunafkmnlytenlsywia.jpg,,,,,,,,,,,,,,,
224,18,Memory,4,,,,,,,00744941201fa.jpg,,,,,,,,,,,,,,,
225,18,Memory,4,,,,,,,00751960620fa.jpg,,,,,,,,,,,,,,,
226,18,Memory,4,,,,,,,00997960627fa.jpg,,,,,,,,,,,,,,,
227,18,Memory,4,,,,,,,00242940128fa.jpg,,,,,,,,,,,,,,,
228,18,Memory,4,,,,,,,00768941205fa.jpg,,,,,,,,,,,,,,,
229,18,Memory,4,,,,,,,sunbdycacjfaujxitbw.jpg,,,,,,,,,,,,,,,
230,18,Memory,4,,,,,,,00557940519fa.jpg,,,,,,,,,,,,,,,
231,18,Memory,4,,,,,,,00543940519fa.jpg,,,,,,,,,,,,,,,
232,18,Memory,4,,,,,,,00705960530fa.jpg,,,,,,,,,,,,,,,
233,18,Memory,4,,,,,,,sunaaexqbtdswxrqjvz.jpg,,,,,,,,,,,,,,,
234,18,Memory,4,,,,,,,sunachtuarilwyqnvjx.jpg,,,,,,,,,,,,,,,
235,18,Memory,4,,,,,,,00792941205fa.jpg,,,,,,,,,,,,,,,
236,18,Memory,4,,,,,,,sunaauueuhhvklldjik.jpg,,,,,,,,,,,,,,,
237,18,Memory,4,,,,,,,00804960530fa.jpg,,,,,,,,,,,,,,,
238,18,Memory,4,,,,,,,sunaczwgyukesaajxnx.jpg,,,,,,,,,,,,,,,
239,18,Memory,4,,,,,,,sunacsdhbbsybcyxnel.jpg,,,,,,,,,,,,,,,
240,18,Memory,4,,,,,,,sunaeomlfaabhpswasy.jpg,,,,,,,,,,,,,,,
241,18,Memory,4,,,,,,,sunbtpilbhhbmhmeuzq.jpg,,,,,,,,,,,,,,,
242,18,Memory,4,,,,,,,00154931230fa.jpg,,,,,,,,,,,,,,,
243,18,Memory,4,,,,,,,sunaduslxfzlbxlllnz.jpg,,,,,,,,,,,,,,,
244,18,Memory,4,,,,,,,sunagsiwrmuixqgdimb.jpg,,,,,,,,,,,,,,,
245,18,Memory,4,,,,,,,00783941205fa.jpg,,,,,,,,,,,,,,,
246,18,Memory,4,,,,,,,00648941031fa.jpg,,,,,,,,,,,,,,,
247,18,Memory,4,,,,,,,sunabcuurugvxwparpk.jpg,,,,,,,,,,,,,,,
248,18,Memory,4,,,,,,,00568940928fa.jpg,,,,,,,,,,,,,,,
249,18,Memory,4,,,,,,,sunadfndyrtqqiasoig.jpg,,,,,,,,,,,,,,,
250,18,Presentation,5,00743941201fa_sunaeoghzrjarigmwua.jpg,00576941031fa_sunacvjlsylseoghjup.jpg,,,,,,,<,Face,,,,,1,,,,,,,x
251,18,Presentation,5,00096931230fa_sunaaiqiqcggrskoqgy.jpg,00745941205fa_sunaeouogqolxvggaoq.jpg,,,,,,,>,Place,,,,,1,,,,,,,o
252,18,Presentation,5,00662941121fa_sunadkazmlajmohnwfl.jpg,00902960530fa_sunanaacmmosxrfwmvl.jpg,,,,,,,>,Face,,,,,0,,,,,,,o
253,18,Presentation,5,00209940128fb_sunabaergayifsgacxt.jpg,00762941201fa_sunafgzgbisbopcyslr.jpg,,,,,,,<,Face,,,,,1,,,,,,,o
254,18,Presentation,5,00210940128fb_sunabanoxjtqxamkucc.jpg,00887960530_sunalcrtwiycqobgelp.jpg,,,,,,,>,Place,,,,,1,,,,,,,o
255,18,Presentation,5,00129931230fb_sunaamsdyakblkfoydx.jpg,00730960620fa_sunaekgzpfilgjxpeyq.jpg,,,,,,,>,Face,,,,,1,,,,,,,o
256,18,Presentation,5,00780960530fa_sunagetqixeypsysbpn.jpg,00803941205fa_sunagvxkjokqimstxpe.jpg,,,,,,,>,Place,,,,,1,,,,,,,o
257,18,Presentation,5,00811960530fa_sunahedfrhtcwpneund.jpg,00839940307fa_sunaipyohrqlwngaqif.jpg,,,,,,,<,Place,,,,,1,,,,,,,x
258,18,Presentation,5,00101931230fb_sunaajqmsaavkmgbsth.jpg,00892960530fa_sunalntxqqadigcletd.jpg,,,,,,,<,Face,,,,,0,,,,,,,o
259,18,Presentation,5,00245940128fa_sunabeyhmxodahoieyk.jpg,01207940128fa_sundbixjudsgeuuehrn.jpg,,,,,,,<,Place,,,,,1,,,,,,,x
260,18,Memory,5,,,,,,,sunaeoghzrjarigmwua.jpg,,,,,,,,,,,,,,,
261,18,Memory,5,,,,,,,00780960530fa.jpg,,,,,,,,,,,,,,,
262,18,Memory,5,,,,,,,sunacvzhvcksnwqcqbw.jpg,,,,,,,,,,,,,,,
263,18,Memory,5,,,,,,,00245940128fa.jpg,,,,,,,,,,,,,,,
264,18,Memory,5,,,,,,,sunabckqabszusgcykj.jpg,,,,,,,,,,,,,,,
265,18,Memory,5,,,,,,,00080931230fb.jpg,,,,,,,,,,,,,,,
266,18,Memory,5,,,,,,,00803941205fa.jpg,,,,,,,,,,,,,,,
267,18,Memory,5,,,,,,,sunaeouogqolxvggaoq.jpg,,,,,,,,,,,,,,,
268,18,Memory,5,,,,,,,00096931230fa.jpg,,,,,,,,,,,,,,,
269,18,Memory,5,,,,,,,sunagetqixeypsysbpn.jpg,,,,,,,,,,,,,,,
270,18,Memory,5,,,,,,,00576941031fa.jpg,,,,,,,,,,,,,,,
271,18,Memory,5,,,,,,,00227940128fa.jpg,,,,,,,,,,,,,,,
272,18,Memory,5,,,,,,,sunaafjszryxyavjzln.jpg,,,,,,,,,,,,,,,
273,18,Memory,5,,,,,,,sunafowswglhxcsufpo.jpg,,,,,,,,,,,,,,,
274,18,Memory,5,,,,,,,sunaanlwnpqndclffxt.jpg,,,,,,,,,,,,,,,
275,18,Memory,5,,,,,,,sunabeyhmxodahoieyk.jpg,,,,,,,,,,,,,,,
276,18,Memory,5,,,,,,,sunagvxkjokqimstxpe.jpg,,,,,,,,,,,,,,,
277,18,Memory,5,,,,,,,sunabrlndkruqokhury.jpg,,,,,,,,,,,,,,,
278,18,Memory,5,,,,,,,00762941201fa.jpg,,,,,,,,,,,,,,,
279,18,Memory,5,,,,,,,sunaipyohrqlwngaqif.jpg,,,,,,,,,,,,,,,
280,18,Memory,5,,,,,,,sunaivflshbyfrfzhqb.jpg,,,,,,,,,,,,,,,
281,18,Memory,5,,,,,,,sunapwjkcxdaeqehfql.jpg,,,,,,,,,,,,,,,
282,18,Memory,5,,,,,,,00743941201fa.jpg,,,,,,,,,,,,,,,
283,18,Memory,5,,,,,,,00839940307fa.jpg,,,,,,,,,,,,,,,
284,18,Memory,5,,,,,,,00581940928fa.jpg,,,,,,,,,,,,,,,
285,18,Memory,5,,,,,,,sunafgzgbisbopcyslr.jpg,,,,,,,,,,,,,,,
286,18,Memory,5,,,,,,,00294940422fb.jpg,,,,,,,,,,,,,,,
287,18,Memory,5,,,,,,,00976960627fa.jpg,,,,,,,,,,,,,,,
288,18,Memory,5,,,,,,,00851940307fa.jpg,,,,,,,,,,,,,,,
289,18,Memory,5,,,,,,,00933960627fa.jpg,,,,,,,,,,,,,,,
290,18,Memory,5,,,,,,,00771941205fa.jpg,,,,,,,,,,,,,,,
291,18,Memory,5,,,,,,,00847940307fa.jpg,,,,,,,,,,,,,,,
292,18,Memory,5,,,,,,,sunaivdjruhkrfywfed.jpg,,,,,,,,,,,,,,,
293,18,Memory,5,,,,,,,sunacvjlsylseoghjup.jpg,,,,,,,,,,,,,,,
294,18,Memory,5,,,,,,,00133931230fa.jpg,,,,,,,,,,,,,,,
295,18,Memory,5,,,,,,,sunabanoxjtqxamkucc.jpg,,,,,,,,,,,,,,,
296,18,Memory,5,,,,,,,00745941205fa.jpg,,,,,,,,,,,,,,,
297,18,Memory,5,,,,,,,sunbbhqyyzmsxhsbjmp.jpg,,,,,,,,,,,,,,,
298,18,Memory,5,,,,,,,sunaaiqiqcggrskoqgy.jpg,,,,,,,,,,,,,,,
299,18,Memory,5,,,,,,,00210940128fb.jpg,,,,,,,,,,,,,,,
300,18,Presentation,6,00913960530fa_sunaooffzffbhcpirmm.jpg,01011960627fa_sundahdxwmcdluscvot.jpg,,,,,,,<,Place,,,,,0,,,,,,,x
301,18,Presentation,6,00305940422fa_sunabtrnbvpppgczjim.jpg,00147931230fb_sunaatpkocdkocwxpkb.jpg,,,,,,,>,Face,,,,,1,,,,,,,x
302,18,Presentation,6,00694941121fa_sunadrmfzmstgdjdcod.jpg,00794960620fa_sunagtqhhwxjeuxdebe.jpg,,,,,,,<,Place,,,,,1,,,,,,,x
303,18,Presentation,6,00900960530fa_sunamlotskmmsjeogby.jpg,00313940422fa_sunabwjvmoaddlyxfjr.jpg,,,,,,,>,Place,,,,,1,,,,,,,x
304,18,Presentation,6,00908960530fa_sunanwjjyqqwzqrqagd.jpg,00809960620fa_sunahbvlpavurqoxdeq.jpg,,,,,,,>,Face,,,,,1,,,,,,,o
305,18,Presentation,6,00630941031fa_sunadakkdovnuzlycvp.jpg,00728941205fa_sunaejnvnpltdmhbcsi.jpg,,,,,,,<,Face,,,,,1,,,,,,,x
306,18,Presentation,6,00958960627fa_sunavspxmxubqaeidjt.jpg,00650941031fa_sunadikxpvqeabxrvvc.jpg,,,,,,,<,Place,,,,,1,,,,,,,x
307,18,Presentation,6,00481940519fa_sunabxsuqbleluwczoy.jpg,00184940128fa_sunaavtbadenwnzeutj.jpg,,,,,,,>,Place,,,,,1,,,,,,,o
308,18,Presentation,6,00810941205fa_sunahctntqrunhdxhtb.jpg,00782941205fa_sunagfvluwixdsozaql.jpg,,,,,,,<,Face,,,,,1,,,,,,,x
309,18,Presentation,6,00938960627fa_sunaqyylsngywqzwfmx.jpg,00953960627fa_sunatstrpjxhvtbaczf.jpg,,,,,,,>,Face,,,,,1,,,,,,,o
310,18,Memory,6,,,,,,,sunacdnquypmsshhsbk.jpg,,,,,,,,,,,,,,,
311,18,Memory,6,,,,,,,sunadakkdovnuzlycvp.jpg,,,,,,,,,,,,,,,
312,18,Memory,6,,,,,,,00989960627fa.jpg,,,,,,,,,,,,,,,
313,18,Memory,6,,,,,,,sunadrmfzmstgdjdcod.jpg,,,,,,,,,,,,,,,
314,18,Memory,6,,,,,,,sunaaexpnawiehinlpy.jpg,,,,,,,,,,,,,,,
315,18,Memory,6,,,,,,,sunahctntqrunhdxhtb.jpg,,,,,,,,,,,,,,,
316,18,Memory,6,,,,,,,sunaangbuylfvckqqoo.jpg,,,,,,,,,,,,,,,
317,18,Memory,6,,,,,,,sunaavtbadenwnzeutj.jpg,,,,,,,,,,,,,,,
318,18,Memory,6,,,,,,,sunbondbduabvijnmch.jpg,,,,,,,,,,,,,,,
319,18,Memory,6,,,,,,,sunamlotskmmsjeogby.jpg,,,,,,,,,,,,,,,
320,18,Memory,6,,,,,,,00630941031fa.jpg,,,,,,,,,,,,,,,
321,18,Memory,6,,,,,,,00062931230fb.jpg,,,,,,,,,,,,,,,
322,18,Memory,6,,,,,,,sunatstrpjxhvtbaczf.jpg,,,,,,,,,,,,,,,
323,18,Memory,6,,,,,,,sunanwjjyqqwzqrqagd.jpg,,,,,,,,,,,,,,,
324,18,Memory,6,,,,,,,sunbpflsdaxnddnwcqi.jpg,,,,,,,,,,,,,,,
325,18,Memory,6,,,,,,,00071940128fa.jpg,,,,,,,,,,,,,,,
326,18,Memory,6,,,,,,,00313940422fa.jpg,,,,,,,,,,,,,,,
327,18,Memory,6,,,,,,,sunaajuzribjrizdshh.jpg,,,,,,,,,,,,,,,
328,18,Memory,6,,,,,,,sunacxtcahkymosigud.jpg,,,,,,,,,,,,,,,
329,18,Memory,6,,,,,,,00990960627fa.jpg,,,,,,,,,,,,,,,
330,18,Memory,6,,,,,,,sunarfdklgdnjgeqfjg.jpg,,,,,,,,,,,,,,,
331,18,Memory,6,,,,,,,00908960530fa.jpg,,,,,,,,,,,,,,,
332,18,Memory,6,,,,,,,sunabueyoajufbkraki.jpg,,,,,,,,,,,,,,,
333,18,Memory,6,,,,,,,00598941031fa.jpg,,,,,,,,,,,,,,,
334,18,Memory,6,,,,,,,sunaatpkocdkocwxpkb.jpg,,,,,,,,,,,,,,,
335,18,Memory,6,,,,,,,00109931230fa.jpg,,,,,,,,,,,,,,,
336,18,Memory,6,,,,,,,00694941121fa.jpg,,,,,,,,,,,,,,,
337,18,Memory,6,,,,,,,00540940519fa.jpg,,,,,,,,,,,,,,,
338,18,Memory,6,,,,,,,sunaaelotvjgibjtjhs.jpg,,,,,,,,,,,,,,,
339,18,Memory,6,,,,,,,00306940422fa.jpg,,,,,,,,,,,,,,,
340,18,Memory,6,,,,,,,00953960627fa.jpg,,,,,,,,,,,,,,,
341,18,Memory,6,,,,,,,sunabwjvmoaddlyxfjr.jpg,,,,,,,,,,,,,,,
342,18,Memory,6,,,,,,,00184940128fa.jpg,,,,,,,,,,,,,,,
343,18,Memory,6,,,,,,,sunahbvlpavurqoxdeq.jpg,,,,,,,,,,,,,,,
344,18,Memory,6,,,,,,,00147931230fb.jpg,,,,,,,,,,,,,,,
345,18,Memory,6,,,,,,,00942960627fa.jpg,,,,,,,,,,,,,,,
346,18,Memory,6,,,,,,,00131931230fb.jpg,,,,,,,,,,,,,,,
347,18,Memory,6,,,,,,,00810941205fa.jpg,,,,,,,,,,,,,,,
348,18,Memory,6,,,,,,,00809960620fa.jpg,,,,,,,,,,,,,,,
349,18,Memory,6,,,,,,,00900960530fa.jpg,,,,,,,,,,,,,,,
350,18,Presentation,7,00098931230fa_sunaajpqmulidejvjsr.jpg,00950960627fa_sunasrjlmglmjzbmqxb.jpg,,,,,,,<,Face,,,,,1,,,,,,,o
351,18,Presentation,7,00571940928fa_sunacuatpqpqhyjhjqk.jpg,00880960530fa_sunakmnfgklupjijsgf.jpg,,,,,,,<,Place,,,,,1,,,,,,,x
352,18,Presentation,7,00638941031fa_sunadfktsqjthoglcsm.jpg,00869940307fa_sunajoveqhiprwqgoco.jpg,,,,,,,>,Face,,,,,0,,,,,,,o
353,18,Presentation,7,00073931230fa_sunaafbmtoniaasysgu.jpg,00126931230fb_sunaamdjwemxpmmtypi.jpg,,,,,,,>,Place,,,,,1,,,,,,,o
354,18,Presentation,7,00996960627fa_sunbpvgllfdejxcpjqp.jpg,00529940519fa_sunacbeefkxpymwevpk.jpg,,,,,,,<,Face,,,,,1,,,,,,,o
355,18,Presentation,7,00069931230fb_sunaaeowapdkwzqpgqr.jpg,00145931230fb_sunaatjesvdupctftmn.jpg,,,,,,,>,Face,,,,,1,,,,,,,o
356,18,Presentation,7,00876960620fa_sunajwqkfsykceonyig.jpg,00871940307_sunajrujcsdxmfbssmc.jpg,,,,,,,>,Place,,,,,1,,,,,,,x
357,18,Presentation,7,00090931230fa_sunaahedjlmtqekgyvj.jpg,00095931230fa_sunaahzooisqkwlxwoz.jpg,,,,,,,<,Place,,,,,1,,,,,,,o
358,18,Presentation,7,00816941205fa_sunahmhrncocyhsjpxk.jpg,00967960627fa_sunbaejotfklekvpxcz.jpg,,,,,,,<,Face,,,,,1,,,,,,,o
359,18,Presentation,7,00968960627fa_sunbagfpovqwbuexqdn.jpg,00909960530_sunaobtizabegtwfwul.jpg,,,,,,,>,Place,,,,,1,,,,,,,o
360,18,Memory,7,,,,,,,00880960530fa.jpg,,,,,,,,,,,,,,,
361,18,Memory,7,,,,,,,sunajwqkfsykceonyig.jpg,,,,,,,,,,,,,,,
362,18,Memory,7,,,,,,,sunaamdjwemxpmmtypi.jpg,,,,,,,,,,,,,,,
363,18,Memory,7,,,,,,,sunagmwxxwymwojbvgi.jpg,,,,,,,,,,,,,,,
364,18,Memory,7,,,,,,,00825940307fa.jpg,,,,,,,,,,,,,,,
365,18,Memory,7,,,,,,,sunacsaovnjezqwbykf.jpg,,,,,,,,,,,,,,,
366,18,Memory,7,,,,,,,00069931230fb.jpg,,,,,,,,,,,,,,,
367,18,Memory,7,,,,,,,00638941031fa.jpg,,,,,,,,,,,,,,,
368,18,Memory,7,,,,,,,sunacycdoztxoluxjyk.jpg,,,,,,,,,,,,,,,
369,18,Memory,7,,,,,,,00136931230fb.jpg,,,,,,,,,,,,,,,
370,18,Memory,7,,,,,,,00264940128fb.jpg,,,,,,,,,,,,,,,
371,18,Memory,7,,,,,,,sunakmnfgklupjijsgf.jpg,,,,,,,,,,,,,,,
372,18,Memory,7,,,,,,,00775941205fa.jpg,,,,,,,,,,,,,,,
373,18,Memory,7,,,,,,,sunabjzyxcjnmztdonj.jpg,,,,,,,,,,,,,,,
374,18,Memory,7,,,,,,,00866940307fa.jpg,,,,,,,,,,,,,,,
375,18,Memory,7,,,,,,,sunadfktsqjthoglcsm.jpg,,,,,,,,,,,,,,,
376,18,Memory,7,,,,,,,sunafvwfsmqkjrutjta.jpg,,,,,,,,,,,,,,,
377,18,Memory,7,,,,,,,00126931230fb.jpg,,,,,,,,,,,,,,,
378,18,Memory,7,,,,,,,sunajbwkywmsqkldfml.jpg,,,,,,,,,,,,,,,
379,18,Memory,7,,,,,,,00609940928fa.jpg,,,,,,,,,,,,,,,
380,18,Memory,7,,,,,,,sunaahzooisqkwlxwoz.jpg,,,,,,,,,,,,,,,
381,18,Memory,7,,,,,,,sunaanptmsknhirrzed.jpg,,,,,,,,,,,,,,,
382,18,Memory,7,,,,,,,sunabctlikybqabezjv.jpg,,,,,,,,,,,,,,,
383,18,Memory,7,,,,,,,sunaaeowapdkwzqpgqr.jpg,,,,,,,,,,,,,,,
384,18,Memory,7,,,,,,,sunajrujcsdxmfbssmc.jpg,,,,,,,,,,,,,,,
385,18,Memory,7,,,,,,,sunahrltmuwbiehihpe.jpg,,,,,,,,,,,,,,,
386,18,Memory,7,,,,,,,00877960530fa.jpg,,,,,,,,,,,,,,,
387,18,Memory,7,,,,,,,00816941205fa.jpg,,,,,,,,,,,,,,,
388,18,Memory,7,,,,,,,00095931230fa.jpg,,,,,,,,,,,,,,,
389,18,Memory,7,,,,,,,00564941031fa.jpg,,,,,,,,,,,,,,,
390,18,Memory,7,,,,,,,00239940128fa.jpg,,,,,,,,,,,,,,,
391,18,Memory,7,,,,,,,sunajoveqhiprwqgoco.jpg,,,,,,,,,,,,,,,
392,18,Memory,7,,,,,,,00876960620fa.jpg,,,,,,,,,,,,,,,
393,18,Memory,7,,,,,,,sunaahedjlmtqekgyvj.jpg,,,,,,,,,,,,,,,
394,18,Memory,7,,,,,,,00869940307fa.jpg,,,,,,,,,,,,,,,
395,18,Memory,7,,,,,,,sunahmhrncocyhsjpxk.jpg,,,,,,,,,,,,,,,
396,18,Memory,7,,,,,,,00787941205fa.jpg,,,,,,,,,,,,,,,
397,18,Memory,7,,,,,,,00090931230fa.jpg,,,,,,,,,,,,,,,
398,18,Memory,7,,,,,,,00871940307.jpg,,,,,,,,,,,,,,,
399,18,Memory,7,,,,,,,sunajxpkuhbizeveguy.jpg,,,,,,,,,,,,,,,
