,Subject,Trial Type,Run,Cued Composite,Uncued Composite,Cued Face,Cued Place,Uncued Face,Uncued Place,Memory Image,Category,Cued Side,Cued Category,Attention Reaction Time (s),Familiarity Reaction Time (s),Familiarity Rating,Attention Level,Cue Validity,Post Invalid Cue,Pre Invalid Cue,Attention Button
0,;alfkjgkj,Presentation,0,00939960627fa_sunarceibpcyacbmfga.jpg,00144931230fb_sunaathajvxrgptwhoj.jpg,00939960627fa.jpg,sunarceibpcyacbmfga.jpg,00144931230fb.jpg,sunaathajvxrgptwhoj.jpg,,,>,Place,,,,,1,,,
1,;alfkjgkj,Presentation,0,00789960620fa_sunagpancjmxqfazssf.jpg,00988960627fa_sunbmaiocftdtvnzgap.jpg,00789960620fa.jpg,sunagpancjmxqfazssf.jpg,00988960627fa.jpg,sunbmaiocftdtvnzgap.jpg,,,>,Place,,,,,1,,,
2,;alfkjgkj,Presentation,0,00663941121fa_sunadnjjzohjhbohlwq.jpg,00997960627fa_sunbtpilbhhbmhmeuzq.jpg,00663941121fa.jpg,sunadnjjzohjhbohlwq.jpg,00997960627fa.jpg,sunbtpilbhhbmhmeuzq.jpg,,,>,Place,,,,,1,,,
3,;alfkjgkj,Presentation,0,00562941031fa_sunacjnahdmqfnjfwqx.jpg,00985960627fa_sunbgklxeqjhdbyfhhy.jpg,00562941031fa.jpg,sunacjnahdmqfnjfwqx.jpg,00985960627fa.jpg,sunbgklxeqjhdbyfhhy.jpg,,,>,Place,,,,,1,,,
4,;alfkjgkj,Presentation,0,00913960530fa_sunaooffzffbhcpirmm.jpg,00705960530fa_sunaduslxfzlbxlllnz.jpg,00913960530fa.jpg,sunaooffzffbhcpirmm.jpg,00705960530fa.jpg,sunaduslxfzlbxlllnz.jpg,,,>,Place,,,,,1,,,
5,;alfkjgkj,Presentation,0,00681941121fa_sunadqmjrhfjyuzyvdd.jpg,00809960620fa_sunahbvlpavurqoxdeq.jpg,00681941121fa.jpg,sunadqmjrhfjyuzyvdd.jpg,00809960620fa.jpg,sunahbvlpavurqoxdeq.jpg,,,>,Place,,,,,1,,,
6,;alfkjgkj,Presentation,0,01010960627fa_suncnkvbhypnivcohyx.jpg,00891960530fa_sunalkiibhqpxfamlll.jpg,01010960627fa.jpg,suncnkvbhypnivcohyx.jpg,00891960530fa.jpg,sunalkiibhqpxfamlll.jpg,,,>,Place,,,,,1,,,
7,;alfkjgkj,Presentation,0,00073931230fa_sunaafbmtoniaasysgu.jpg,00766960620fa_sunafijbgncijwykrnl.jpg,00073931230fa.jpg,sunaafbmtoniaasysgu.jpg,00766960620fa.jpg,sunafijbgncijwykrnl.jpg,,,>,Place,,,,,0,,,
8,;alfkjgkj,Presentation,0,00218940128fa_sunabbwggenhfbftyvi.jpg,00071940128fa_sunaaexpnawiehinlpy.jpg,00218940128fa.jpg,sunabbwggenhfbftyvi.jpg,00071940128fa.jpg,sunaaexpnawiehinlpy.jpg,,,>,Place,,,,,1,,,
9,;alfkjgkj,Presentation,0,01009960627fa_sunbxzweleltykebgan.jpg,00942960627fa_sunarfdklgdnjgeqfjg.jpg,01009960627fa.jpg,sunbxzweleltykebgan.jpg,00942960627fa.jpg,sunarfdklgdnjgeqfjg.jpg,,,>,Place,,,,,1,,,
10,;alfkjgkj,Memory,0,,,,,,,00773941201fa.jpg,,,,,,,,,,,
11,;alfkjgkj,Memory,0,,,,,,,sunabzjxlmkwnwzimua.jpg,,,,,,,,,,,
12,;alfkjgkj,Memory,0,,,,,,,sunajjxttslobudoqbv.jpg,,,,,,,,,,,
13,;alfkjgkj,Memory,0,,,,,,,01000960627fa.jpg,,,,,,,,,,,
14,;alfkjgkj,Memory,0,,,,,,,sunbbfqwjpdxniyhies.jpg,,,,,,,,,,,
15,;alfkjgkj,Memory,0,,,,,,,sunahuynahneraqftyz.jpg,,,,,,,,,,,
16,;alfkjgkj,Memory,0,,,,,,,sunanaacmmosxrfwmvl.jpg,,,,,,,,,,,
17,;alfkjgkj,Memory,0,,,,,,,00648941031fa.jpg,,,,,,,,,,,
18,;alfkjgkj,Memory,0,,,,,,,00752960620fa.jpg,,,,,,,,,,,
19,;alfkjgkj,Memory,0,,,,,,,00663941121fa.jpg,,,,,,,,,,,
20,;alfkjgkj,Memory,0,,,,,,,sunaiwfobocrruqznsv.jpg,,,,,,,,,,,
21,;alfkjgkj,Memory,0,,,,,,,00908960530fa.jpg,,,,,,,,,,,
22,;alfkjgkj,Memory,0,,,,,,,sunanwjjyqqwzqrqagd.jpg,,,,,,,,,,,
23,;alfkjgkj,Memory,0,,,,,,,00129931230fb.jpg,,,,,,,,,,,
24,;alfkjgkj,Memory,0,,,,,,,00970960627fa.jpg,,,,,,,,,,,
25,;alfkjgkj,Memory,0,,,,,,,sunadfktsqjthoglcsm.jpg,,,,,,,,,,,
26,;alfkjgkj,Memory,0,,,,,,,00270940422fb.jpg,,,,,,,,,,,
27,;alfkjgkj,Memory,0,,,,,,,sunadbdqzigzwipuipr.jpg,,,,,,,,,,,
28,;alfkjgkj,Memory,0,,,,,,,sunaazzyhbvqjpmazjq.jpg,,,,,,,,,,,
29,;alfkjgkj,Memory,0,,,,,,,00986960627fa.jpg,,,,,,,,,,,
30,;alfkjgkj,Memory,0,,,,,,,00185940422fb.jpg,,,,,,,,,,,
31,;alfkjgkj,Memory,0,,,,,,,sunaaylzyqlqrsmfwif.jpg,,,,,,,,,,,
32,;alfkjgkj,Memory,0,,,,,,,00564940928fa.jpg,,,,,,,,,,,
33,;alfkjgkj,Memory,0,,,,,,,00554940519fa.jpg,,,,,,,,,,,
34,;alfkjgkj,Memory,0,,,,,,,sunahrltmuwbiehihpe.jpg,,,,,,,,,,,
35,;alfkjgkj,Memory,0,,,,,,,sunaakmxzhuceuiryah.jpg,,,,,,,,,,,
36,;alfkjgkj,Memory,0,,,,,,,sunavxokzybtomhbmvm.jpg,,,,,,,,,,,
37,;alfkjgkj,Memory,0,,,,,,,sunafowswglhxcsufpo.jpg,,,,,,,,,,,
38,;alfkjgkj,Memory,0,,,,,,,00681941121fa.jpg,,,,,,,,,,,
39,;alfkjgkj,Memory,0,,,,,,,00720960620fa.jpg,,,,,,,,,,,
40,;alfkjgkj,Memory,0,,,,,,,00868960307fa.jpg,,,,,,,,,,,
41,;alfkjgkj,Memory,0,,,,,,,sunaaemixhfquhnxxlm.jpg,,,,,,,,,,,
42,;alfkjgkj,Memory,0,,,,,,,00529940519fa.jpg,,,,,,,,,,,
43,;alfkjgkj,Memory,0,,,,,,,00972960627fa.jpg,,,,,,,,,,,
44,;alfkjgkj,Memory,0,,,,,,,00955960627fb.jpg,,,,,,,,,,,
45,;alfkjgkj,Memory,0,,,,,,,00670941121fa.jpg,,,,,,,,,,,
46,;alfkjgkj,Memory,0,,,,,,,00069931230fb.jpg,,,,,,,,,,,
47,;alfkjgkj,Memory,0,,,,,,,sunbprywzqxjcezkbch.jpg,,,,,,,,,,,
48,;alfkjgkj,Memory,0,,,,,,,00540940519fa.jpg,,,,,,,,,,,
49,;alfkjgkj,Memory,0,,,,,,,sunaletopenvvozhpxc.jpg,,,,,,,,,,,
50,;alfkjgkj,Presentation,1,00235940128fb_sunabclssnoeuigtawp.jpg,00481940519fa_sunabxsuqbleluwczoy.jpg,00235940128fb.jpg,sunabclssnoeuigtawp.jpg,00481940519fa.jpg,sunabxsuqbleluwczoy.jpg,,,>,Face,,,,,1,,,
51,;alfkjgkj,Presentation,1,00938960627fa_sunaqyylsngywqzwfmx.jpg,00866940307fa_sunajbwkywmsqkldfml.jpg,00938960627fa.jpg,sunaqyylsngywqzwfmx.jpg,00866940307fa.jpg,sunajbwkywmsqkldfml.jpg,,,>,Face,,,,,1,,,
52,;alfkjgkj,Presentation,1,00296940422fa_sunabrwnslxalcohfre.jpg,01207940128fa_sundbixjudsgeuuehrn.jpg,00296940422fa.jpg,sunabrwnslxalcohfre.jpg,01207940128fa.jpg,sundbixjudsgeuuehrn.jpg,,,>,Face,,,,,1,,,
53,;alfkjgkj,Presentation,1,00184940128fa_sunaavtbadenwnzeutj.jpg,00786941205fa_sunagmhildamktmqjss.jpg,00184940128fa.jpg,sunaavtbadenwnzeutj.jpg,00786941205fa.jpg,sunagmhildamktmqjss.jpg,,,>,Face,,,,,1,,,
54,;alfkjgkj,Presentation,1,00792941205fa_sunagsiwrmuixqgdimb.jpg,00773960620fa_sunafvsxtzaizojicxx.jpg,00792941205fa.jpg,sunagsiwrmuixqgdimb.jpg,00773960620fa.jpg,sunafvsxtzaizojicxx.jpg,,,>,Face,,,,,0,,,
55,;alfkjgkj,Presentation,1,00554940519fa_sunacfdkbsrughwqwtt.jpg,00796941205fa_sunaguchqqnrtodtezq.jpg,00554940519fa.jpg,sunacfdkbsrughwqwtt.jpg,00796941205fa.jpg,sunaguchqqnrtodtezq.jpg,,,>,Face,,,,,1,,,
56,;alfkjgkj,Presentation,1,00498960627fa_sunabzjxlmkwnwzimua.jpg,00209940128fb_sunabaergayifsgacxt.jpg,00498960627fa.jpg,sunabzjxlmkwnwzimua.jpg,00209940128fb.jpg,sunabaergayifsgacxt.jpg,,,>,Face,,,,,1,,,
57,;alfkjgkj,Presentation,1,00260940128fa_sunabgfhvifeijihhjw.jpg,00818940307fa_sunahpblecxtmuzkmxb.jpg,00260940128fa.jpg,sunabgfhvifeijihhjw.jpg,00818940307fa.jpg,sunahpblecxtmuzkmxb.jpg,,,>,Face,,,,,1,,,
58,;alfkjgkj,Presentation,1,00221940128fa_sunabcfpwlpolnutyju.jpg,00893960530Fa_sunaloffvbvysigxent.jpg,00221940128fa.jpg,sunabcfpwlpolnutyju.jpg,00893960530Fa.jpg,sunaloffvbvysigxent.jpg,,,>,Face,,,,,0,,,
59,;alfkjgkj,Presentation,1,00290940422fa_sunabqowuarvqqcnipn.jpg,00961960627fa_sunawotxrevnqvamsfp.jpg,00290940422fa.jpg,sunabqowuarvqqcnipn.jpg,00961960627fa.jpg,sunawotxrevnqvamsfp.jpg,,,>,Face,,,,,1,,,
60,;alfkjgkj,Memory,1,,,,,,,00973960627fa.jpg,,,,,,,,,,,
61,;alfkjgkj,Memory,1,,,,,,,sunaecpkgfewqqreqwe.jpg,,,,,,,,,,,
62,;alfkjgkj,Memory,1,,,,,,,00848940307fa.jpg,,,,,,,,,,,
63,;alfkjgkj,Memory,1,,,,,,,sunapqkyghktgtosuuk.jpg,,,,,,,,,,,
64,;alfkjgkj,Memory,1,,,,,,,00719941201fa.jpg,,,,,,,,,,,
65,;alfkjgkj,Memory,1,,,,,,,sunaamdjwemxpmmtypi.jpg,,,,,,,,,,,
66,;alfkjgkj,Memory,1,,,,,,,00761960627fa.jpg,,,,,,,,,,,
67,;alfkjgkj,Memory,1,,,,,,,sunadakkdovnuzlycvp.jpg,,,,,,,,,,,
68,;alfkjgkj,Memory,1,,,,,,,sunaeomlfaabhpswasy.jpg,,,,,,,,,,,
69,;alfkjgkj,Memory,1,,,,,,,00557940519fa.jpg,,,,,,,,,,,
70,;alfkjgkj,Memory,1,,,,,,,00149931230fa.jpg,,,,,,,,,,,
71,;alfkjgkj,Memory,1,,,,,,,sunadfndyrtqqiasoig.jpg,,,,,,,,,,,
72,;alfkjgkj,Memory,1,,,,,,,sunabyvpwkgsjtijdwj.jpg,,,,,,,,,,,
73,;alfkjgkj,Memory,1,,,,,,,sunabxsbfwjccqxxzxq.jpg,,,,,,,,,,,
74,;alfkjgkj,Memory,1,,,,,,,00913960530fa.jpg,,,,,,,,,,,
75,;alfkjgkj,Memory,1,,,,,,,sunaqyylsngywqzwfmx.jpg,,,,,,,,,,,
76,;alfkjgkj,Memory,1,,,,,,,00144931230fb.jpg,,,,,,,,,,,
77,;alfkjgkj,Memory,1,,,,,,,sunaooffzffbhcpirmm.jpg,,,,,,,,,,,
78,;alfkjgkj,Memory,1,,,,,,,00296940422fa.jpg,,,,,,,,,,,
79,;alfkjgkj,Memory,1,,,,,,,00768941205fa.jpg,,,,,,,,,,,
80,;alfkjgkj,Memory,1,,,,,,,sunahgtbwgsmtqeodwh.jpg,,,,,,,,,,,
81,;alfkjgkj,Memory,1,,,,,,,00800941205fb.jpg,,,,,,,,,,,
82,;alfkjgkj,Memory,1,,,,,,,00146960620fb.jpg,,,,,,,,,,,
83,;alfkjgkj,Memory,1,,,,,,,00805941205fa.jpg,,,,,,,,,,,
84,;alfkjgkj,Memory,1,,,,,,,00921960627fa.jpg,,,,,,,,,,,
85,;alfkjgkj,Memory,1,,,,,,,sunagwzdbtlixdhgolm.jpg,,,,,,,,,,,
86,;alfkjgkj,Memory,1,,,,,,,00214940128fa.jpg,,,,,,,,,,,
87,;alfkjgkj,Memory,1,,,,,,,00809960620fa.jpg,,,,,,,,,,,
88,;alfkjgkj,Memory,1,,,,,,,sunbaejotfklekvpxcz.jpg,,,,,,,,,,,
89,;alfkjgkj,Memory,1,,,,,,,00987960627fa.jpg,,,,,,,,,,,
90,;alfkjgkj,Memory,1,,,,,,,sunadflbrkckmepztql.jpg,,,,,,,,,,,
91,;alfkjgkj,Memory,1,,,,,,,sunacxtcahkymosigud.jpg,,,,,,,,,,,
92,;alfkjgkj,Memory,1,,,,,,,00784941205fb.jpg,,,,,,,,,,,
93,;alfkjgkj,Memory,1,,,,,,,sunbloeoiozwjjsiamp.jpg,,,,,,,,,,,
94,;alfkjgkj,Memory,1,,,,,,,00633940928fa.jpg,,,,,,,,,,,
95,;alfkjgkj,Memory,1,,,,,,,sunabyfxcxhdebvdyfd.jpg,,,,,,,,,,,
96,;alfkjgkj,Memory,1,,,,,,,sunahawfngukizslzsd.jpg,,,,,,,,,,,
97,;alfkjgkj,Memory,1,,,,,,,sunawksfbacycuhbrsc.jpg,,,,,,,,,,,
98,;alfkjgkj,Memory,1,,,,,,,00911960530fa.jpg,,,,,,,,,,,
99,;alfkjgkj,Memory,1,,,,,,,00771941205fa.jpg,,,,,,,,,,,
100,;alfkjgkj,Presentation,2,00915960620fa_sunapileznnbbmrwoei.jpg,00063931230fa_sunaaelyvurpntclgau.jpg,00915960620fa.jpg,sunapileznnbbmrwoei.jpg,00063931230fa.jpg,sunaaelyvurpntclgau.jpg,,,<,Face,,,,,1,,,
101,;alfkjgkj,Presentation,2,00086931230fa_sunaafynehyrzpsoaml.jpg,00978960627fa_sunbddbivbptlrlauhy.jpg,00086931230fa.jpg,sunaafynehyrzpsoaml.jpg,00978960627fa.jpg,sunbddbivbptlrlauhy.jpg,,,<,Face,,,,,1,,,
102,;alfkjgkj,Presentation,2,00308940422fb_sunabwfvcqqidycwypa.jpg,00675941121fa_sunadoxcchtmsxewsau.jpg,00308940422fb.jpg,sunabwfvcqqidycwypa.jpg,00675941121fa.jpg,sunadoxcchtmsxewsau.jpg,,,<,Face,,,,,1,,,
103,;alfkjgkj,Presentation,2,00124931230fa_sunaalhlvzmjmitybdn.jpg,00747941201fa_sunaeutbrtswvsozxyk.jpg,00124931230fa.jpg,sunaalhlvzmjmitybdn.jpg,00747941201fa.jpg,sunaeutbrtswvsozxyk.jpg,,,<,Face,,,,,1,,,
104,;alfkjgkj,Presentation,2,00841940307fa_sunaisiwfgppimtnmxl.jpg,00676941121fa_sunadpnqovzckyikrjo.jpg,00841940307fa.jpg,sunaisiwfgppimtnmxl.jpg,00676941121fa.jpg,sunadpnqovzckyikrjo.jpg,,,<,Face,,,,,1,,,
105,;alfkjgkj,Presentation,2,01011960627fa_sundahdxwmcdluscvot.jpg,00568940928fa_sunacsdhbbsybcyxnel.jpg,01011960627fa.jpg,sundahdxwmcdluscvot.jpg,00568940928fa.jpg,sunacsdhbbsybcyxnel.jpg,,,<,Face,,,,,1,,,
106,;alfkjgkj,Presentation,2,00142931230fb_sunaapxkpvrhpjplsok.jpg,00062931230fb_sunaaelotvjgibjtjhs.jpg,00142931230fb.jpg,sunaapxkpvrhpjplsok.jpg,00062931230fb.jpg,sunaaelotvjgibjtjhs.jpg,,,<,Face,,,,,1,,,
107,;alfkjgkj,Presentation,2,00761960627fa_sunafgdqbclkwfocdhg.jpg,00952960627fa_sunathzzbcwjykldrem.jpg,00761960627fa.jpg,sunafgdqbclkwfocdhg.jpg,00952960627fa.jpg,sunathzzbcwjykldrem.jpg,,,<,Face,,,,,1,,,
108,;alfkjgkj,Presentation,2,01003960627fb_sunbwdrdvsweerwsdrj.jpg,00725941201fa_sunaefgzwiramypjvtd.jpg,01003960627fb.jpg,sunbwdrdvsweerwsdrj.jpg,00725941201fa.jpg,sunaefgzwiramypjvtd.jpg,,,<,Face,,,,,1,,,
109,;alfkjgkj,Presentation,2,00884960530fa_sunakodkcslgqhqlgwl.jpg,00968960627fa_sunbagfpovqwbuexqdn.jpg,00884960530fa.jpg,sunakodkcslgqhqlgwl.jpg,00968960627fa.jpg,sunbagfpovqwbuexqdn.jpg,,,<,Face,,,,,1,,,
110,;alfkjgkj,Memory,2,,,,,,,00993960627fa.jpg,,,,,,,,,,,
111,;alfkjgkj,Memory,2,,,,,,,sunaauglwmctnkxyird.jpg,,,,,,,,,,,
112,;alfkjgkj,Memory,2,,,,,,,sunaapxkpvrhpjplsok.jpg,,,,,,,,,,,
113,;alfkjgkj,Memory,2,,,,,,,00700941121fa.jpg,,,,,,,,,,,
114,;alfkjgkj,Memory,2,,,,,,,00866940307fa.jpg,,,,,,,,,,,
115,;alfkjgkj,Memory,2,,,,,,,00158931230fb.jpg,,,,,,,,,,,
116,;alfkjgkj,Memory,2,,,,,,,00978960627fa.jpg,,,,,,,,,,,
117,;alfkjgkj,Memory,2,,,,,,,00266940128fb.jpg,,,,,,,,,,,
118,;alfkjgkj,Memory,2,,,,,,,sunaamsdyakblkfoydx.jpg,,,,,,,,,,,
119,;alfkjgkj,Memory,2,,,,,,,sunaafynehyrzpsoaml.jpg,,,,,,,,,,,
120,;alfkjgkj,Memory,2,,,,,,,sunanainkqdvktzoxyl.jpg,,,,,,,,,,,
121,;alfkjgkj,Memory,2,,,,,,,sunaayehfdqcyxggsej.jpg,,,,,,,,,,,
122,;alfkjgkj,Memory,2,,,,,,,00482940519fa.jpg,,,,,,,,,,,
123,;alfkjgkj,Memory,2,,,,,,,sunbfyvfqiimvdaxlqn.jpg,,,,,,,,,,,
124,;alfkjgkj,Memory,2,,,,,,,00581940928fa.jpg,,,,,,,,,,,
125,;alfkjgkj,Memory,2,,,,,,,00857940307fa.jpg,,,,,,,,,,,
126,;alfkjgkj,Memory,2,,,,,,,sunapileznnbbmrwoei.jpg,,,,,,,,,,,
127,;alfkjgkj,Memory,2,,,,,,,00242940128fa.jpg,,,,,,,,,,,
128,;alfkjgkj,Memory,2,,,,,,,00819940307fa.jpg,,,,,,,,,,,
129,;alfkjgkj,Memory,2,,,,,,,00306940422fa.jpg,,,,,,,,,,,
130,;alfkjgkj,Memory,2,,,,,,,sunarpsxqkduedrrzyi.jpg,,,,,,,,,,,
131,;alfkjgkj,Memory,2,,,,,,,sunaeuzwggvibufclwf.jpg,,,,,,,,,,,
132,;alfkjgkj,Memory,2,,,,,,,00910960530fa.jpg,,,,,,,,,,,
133,;alfkjgkj,Memory,2,,,,,,,00725941201fa.jpg,,,,,,,,,,,
134,;alfkjgkj,Memory,2,,,,,,,00825940307fa.jpg,,,,,,,,,,,
135,;alfkjgkj,Memory,2,,,,,,,00783941205fa.jpg,,,,,,,,,,,
136,;alfkjgkj,Memory,2,,,,,,,sunadnjjzohjhbohlwq.jpg,,,,,,,,,,,
137,;alfkjgkj,Memory,2,,,,,,,00750941201fa.jpg,,,,,,,,,,,
138,;alfkjgkj,Memory,2,,,,,,,00782941205fa.jpg,,,,,,,,,,,
139,;alfkjgkj,Memory,2,,,,,,,00147931230fb.jpg,,,,,,,,,,,
140,;alfkjgkj,Memory,2,,,,,,,00218940128fa.jpg,,,,,,,,,,,
141,;alfkjgkj,Memory,2,,,,,,,sunaatpeezlljqaxlhj.jpg,,,,,,,,,,,
142,;alfkjgkj,Memory,2,,,,,,,00505960627fa.jpg,,,,,,,,,,,
143,;alfkjgkj,Memory,2,,,,,,,sunafkmnlytenlsywia.jpg,,,,,,,,,,,
144,;alfkjgkj,Memory,2,,,,,,,sunahmhrncocyhsjpxk.jpg,,,,,,,,,,,
145,;alfkjgkj,Memory,2,,,,,,,sunawotxrevnqvamsfp.jpg,,,,,,,,,,,
146,;alfkjgkj,Memory,2,,,,,,,sunaooaqzputrowwbsw.jpg,,,,,,,,,,,
147,;alfkjgkj,Memory,2,,,,,,,sunbxzweleltykebgan.jpg,,,,,,,,,,,
148,;alfkjgkj,Memory,2,,,,,,,00101931230fb.jpg,,,,,,,,,,,
149,;alfkjgkj,Memory,2,,,,,,,00208940128fa.jpg,,,,,,,,,,,
150,;alfkjgkj,Presentation,3,00741941201fa_sunaemcowdozyphwknd.jpg,00306940422fa_sunabueyoajufbkraki.jpg,00741941201fa.jpg,sunaemcowdozyphwknd.jpg,00306940422fa.jpg,sunabueyoajufbkraki.jpg,,,<,Place,,,,,0,,,
151,;alfkjgkj,Presentation,3,00576941031fa_sunacvjlsylseoghjup.jpg,00914960620fa_sunaozisvwfbmlkfhzv.jpg,00576941031fa.jpg,sunacvjlsylseoghjup.jpg,00914960620fa.jpg,sunaozisvwfbmlkfhzv.jpg,,,<,Place,,,,,1,,,
152,;alfkjgkj,Presentation,3,00901960530fa_sunammbnoambmhdxdwd.jpg,00070940307fa_sunaaeplwsfslcbtojr.jpg,00901960530fa.jpg,sunammbnoambmhdxdwd.jpg,00070940307fa.jpg,sunaaeplwsfslcbtojr.jpg,,,<,Place,,,,,1,,,
153,;alfkjgkj,Presentation,3,00138931230fa_sunaapfaivxqoynnwwp.jpg,00193940928fa_sunaaxjpzcnxligjtjq.jpg,00138931230fa.jpg,sunaapfaivxqoynnwwp.jpg,00193940928fa.jpg,sunaaxjpzcnxligjtjq.jpg,,,<,Place,,,,,1,,,
154,;alfkjgkj,Presentation,3,00816941205fa_sunahmhrncocyhsjpxk.jpg,00903960620fa_sunanainkqdvktzoxyl.jpg,00816941205fa.jpg,sunahmhrncocyhsjpxk.jpg,00903960620fa.jpg,sunanainkqdvktzoxyl.jpg,,,<,Place,,,,,1,,,
155,;alfkjgkj,Presentation,3,00848940307fa_sunaivdylrawbmhryfp.jpg,00120931230fa_sunaakxgygjfqrzpyoz.jpg,00848940307fa.jpg,sunaivdylrawbmhryfp.jpg,00120931230fa.jpg,sunaakxgygjfqrzpyoz.jpg,,,<,Place,,,,,1,,,
156,;alfkjgkj,Presentation,3,00185940422fb_sunaawqdbpihmlbwyyn.jpg,00662941121fa_sunadkazmlajmohnwfl.jpg,00185940422fb.jpg,sunaawqdbpihmlbwyyn.jpg,00662941121fa.jpg,sunadkazmlajmohnwfl.jpg,,,<,Place,,,,,1,,,
157,;alfkjgkj,Presentation,3,00264940128fb_sunabjzyxcjnmztdonj.jpg,00065931230fb_sunaaemixhfquhnxxlm.jpg,00264940128fb.jpg,sunabjzyxcjnmztdonj.jpg,00065931230fb.jpg,sunaaemixhfquhnxxlm.jpg,,,<,Place,,,,,1,,,
158,;alfkjgkj,Presentation,3,00267940128fb_sunablfqiwfqomjarht.jpg,00123931230fb_sunaalcrrdbjgdztbiz.jpg,00267940128fb.jpg,sunablfqiwfqomjarht.jpg,00123931230fb.jpg,sunaalcrrdbjgdztbiz.jpg,,,<,Place,,,,,1,,,
159,;alfkjgkj,Presentation,3,00892960530fa_sunalntxqqadigcletd.jpg,00288940422fa_sunabppokiyglaxpcha.jpg,00892960530fa.jpg,sunalntxqqadigcletd.jpg,00288940422fa.jpg,sunabppokiyglaxpcha.jpg,,,<,Place,,,,,1,,,
160,;alfkjgkj,Memory,3,,,,,,,sunabrwnslxalcohfre.jpg,,,,,,,,,,,
161,;alfkjgkj,Memory,3,,,,,,,00498960627fa.jpg,,,,,,,,,,,
162,;alfkjgkj,Memory,3,,,,,,,00126931230fb.jpg,,,,,,,,,,,
163,;alfkjgkj,Memory,3,,,,,,,sunaajayojuslbbnneg.jpg,,,,,,,,,,,
164,;alfkjgkj,Memory,3,,,,,,,00999960627fa.jpg,,,,,,,,,,,
165,;alfkjgkj,Memory,3,,,,,,,sunajoveqhiprwqgoco.jpg,,,,,,,,,,,
166,;alfkjgkj,Memory,3,,,,,,,00902960530fa.jpg,,,,,,,,,,,
167,;alfkjgkj,Memory,3,,,,,,,sunabzuqsrgcsonqlkz.jpg,,,,,,,,,,,
168,;alfkjgkj,Memory,3,,,,,,,sunacjkmnpawfzbyvae.jpg,,,,,,,,,,,
169,;alfkjgkj,Memory,3,,,,,,,00961960627fa.jpg,,,,,,,,,,,
170,;alfkjgkj,Memory,3,,,,,,,00870940307fa.jpg,,,,,,,,,,,
171,;alfkjgkj,Memory,3,,,,,,,sunafbwnojpqeyzssoe.jpg,,,,,,,,,,,
172,;alfkjgkj,Memory,3,,,,,,,sunafxokyavhgptyfye.jpg,,,,,,,,,,,
173,;alfkjgkj,Memory,3,,,,,,,00889960530fa.jpg,,,,,,,,,,,
174,;alfkjgkj,Memory,3,,,,,,,sunakwlvxjpddialozd.jpg,,,,,,,,,,,
175,;alfkjgkj,Memory,3,,,,,,,sunahtfxgsrmkiulnwk.jpg,,,,,,,,,,,
176,;alfkjgkj,Memory,3,,,,,,,00744941201fa.jpg,,,,,,,,,,,
177,;alfkjgkj,Memory,3,,,,,,,sunaemcowdozyphwknd.jpg,,,,,,,,,,,
178,;alfkjgkj,Memory,3,,,,,,,00086931230fa.jpg,,,,,,,,,,,
179,;alfkjgkj,Memory,3,,,,,,,sunaakqepfoeqomfgxf.jpg,,,,,,,,,,,
180,;alfkjgkj,Memory,3,,,,,,,sunagountlxpzkytsmp.jpg,,,,,,,,,,,
181,;alfkjgkj,Memory,3,,,,,,,00743941201fa.jpg,,,,,,,,,,,
182,;alfkjgkj,Memory,3,,,,,,,sunaygrtwrwfezqjizr.jpg,,,,,,,,,,,
183,;alfkjgkj,Memory,3,,,,,,,00116931230fa.jpg,,,,,,,,,,,
184,;alfkjgkj,Memory,3,,,,,,,sunaathajvxrgptwhoj.jpg,,,,,,,,,,,
185,;alfkjgkj,Memory,3,,,,,,,sunaddtdkycxbqlpfqa.jpg,,,,,,,,,,,
186,;alfkjgkj,Memory,3,,,,,,,00630941031fa.jpg,,,,,,,,,,,
187,;alfkjgkj,Memory,3,,,,,,,00162931230fb.jpg,,,,,,,,,,,
188,;alfkjgkj,Memory,3,,,,,,,sunbbegcweqnetpdlrh.jpg,,,,,,,,,,,
189,;alfkjgkj,Memory,3,,,,,,,00638941031fa.jpg,,,,,,,,,,,
190,;alfkjgkj,Memory,3,,,,,,,sunbvzmgrdvaakxusbu.jpg,,,,,,,,,,,
191,;alfkjgkj,Memory,3,,,,,,,sunagsiwrmuixqgdimb.jpg,,,,,,,,,,,
192,;alfkjgkj,Memory,3,,,,,,,sunaalcrrdbjgdztbiz.jpg,,,,,,,,,,,
193,;alfkjgkj,Memory,3,,,,,,,00816941205fa.jpg,,,,,,,,,,,
194,;alfkjgkj,Memory,3,,,,,,,sunbddbivbptlrlauhy.jpg,,,,,,,,,,,
195,;alfkjgkj,Memory,3,,,,,,,sunaaexqbtdswxrqjvz.jpg,,,,,,,,,,,
196,;alfkjgkj,Memory,3,,,,,,,sunabcuurugvxwparpk.jpg,,,,,,,,,,,
197,;alfkjgkj,Memory,3,,,,,,,sunaaelyvurpntclgau.jpg,,,,,,,,,,,
198,;alfkjgkj,Memory,3,,,,,,,sunaakxjfbrrequcjmx.jpg,,,,,,,,,,,
199,;alfkjgkj,Memory,3,,,,,,,sunaapllqyqlykszopd.jpg,,,,,,,,,,,
200,;alfkjgkj,Presentation,4,00779941205fa_sunagdzlvkqtpnfxfcg.jpg,00581940928fa_sunacvzhvcksnwqcqbw.jpg,00779941205fa.jpg,sunagdzlvkqtpnfxfcg.jpg,00581940928fa.jpg,sunacvzhvcksnwqcqbw.jpg,,,>,Face,,,,,1,,,
201,;alfkjgkj,Presentation,4,00960960627fa_sunawksfbacycuhbrsc.jpg,00294940422fb_sunabrlndkruqokhury.jpg,00960960627fa.jpg,sunawksfbacycuhbrsc.jpg,00294940422fb.jpg,sunabrlndkruqokhury.jpg,,,>,Face,,,,,1,,,
202,;alfkjgkj,Presentation,4,01002960627fb_sunbwaafjdebjzttuvq.jpg,00864940307fa_sunajawzbrlrwafowen.jpg,01002960627fb.jpg,sunbwaafjdebjzttuvq.jpg,00864940307fa.jpg,sunajawzbrlrwafowen.jpg,,,>,Face,,,,,1,,,
203,;alfkjgkj,Presentation,4,00728941205fa_sunaejnvnpltdmhbcsi.jpg,00973960627fa_sunbbgtoeuzierkkajt.jpg,00728941205fa.jpg,sunaejnvnpltdmhbcsi.jpg,00973960627fa.jpg,sunbbgtoeuzierkkajt.jpg,,,>,Face,,,,,0,,,
204,;alfkjgkj,Presentation,4,00140931230fb_sunaapllqyqlykszopd.jpg,00751960620fa_sunaezuszgtxnmsxdbk.jpg,00140931230fb.jpg,sunaapllqyqlykszopd.jpg,00751960620fa.jpg,sunaezuszgtxnmsxdbk.jpg,,,>,Face,,,,,1,,,
205,;alfkjgkj,Presentation,4,00754941201fa_sunaffgsyyvoqdlkmnk.jpg,00889960530fa_sunaletopenvvozhpxc.jpg,00754941201fa.jpg,sunaffgsyyvoqdlkmnk.jpg,00889960530fa.jpg,sunaletopenvvozhpxc.jpg,,,>,Face,,,,,0,,,
206,;alfkjgkj,Presentation,4,00543940519fa_sunacepzfrmtkiqonpy.jpg,00953960627fa_sunatstrpjxhvtbaczf.jpg,00543940519fa.jpg,sunacepzfrmtkiqonpy.jpg,00953960627fa.jpg,sunatstrpjxhvtbaczf.jpg,,,>,Face,,,,,1,,,
207,;alfkjgkj,Presentation,4,00670941121fa_sunadochqcucscehsgk.jpg,00631940928fa_sunadbdqzigzwipuipr.jpg,00670941121fa.jpg,sunadochqcucscehsgk.jpg,00631940928fa.jpg,sunadbdqzigzwipuipr.jpg,,,>,Face,,,,,1,,,
208,;alfkjgkj,Presentation,4,00936960627fa_sunaqgjuuwvdcyiccjt.jpg,00760960620fa_sunaffstbkappprzxnv.jpg,00936960627fa.jpg,sunaqgjuuwvdcyiccjt.jpg,00760960620fa.jpg,sunaffstbkappprzxnv.jpg,,,>,Face,,,,,1,,,
209,;alfkjgkj,Presentation,4,00743941201fa_sunaeoghzrjarigmwua.jpg,00878960530fa_sunakgbnzxmfohgehnu.jpg,00743941201fa.jpg,sunaeoghzrjarigmwua.jpg,00878960530fa.jpg,sunakgbnzxmfohgehnu.jpg,,,>,Face,,,,,1,,,
210,;alfkjgkj,Memory,4,,,,,,,00947960627fa.jpg,,,,,,,,,,,
211,;alfkjgkj,Memory,4,,,,,,,00746941201fa.jpg,,,,,,,,,,,
212,;alfkjgkj,Memory,4,,,,,,,00943960627fa.jpg,,,,,,,,,,,
213,;alfkjgkj,Memory,4,,,,,,,00938960627fa.jpg,,,,,,,,,,,
214,;alfkjgkj,Memory,4,,,,,,,sunadvithllcgmfxsrn.jpg,,,,,,,,,,,
215,;alfkjgkj,Memory,4,,,,,,,00071941031fa.jpg,,,,,,,,,,,
216,;alfkjgkj,Memory,4,,,,,,,sunagjzcrjvmxzqzljx.jpg,,,,,,,,,,,
217,;alfkjgkj,Memory,4,,,,,,,sunapqkpqdfvxlbqwyo.jpg,,,,,,,,,,,
218,;alfkjgkj,Memory,4,,,,,,,00829940307fa.jpg,,,,,,,,,,,
219,;alfkjgkj,Memory,4,,,,,,,00807941205fa.jpg,,,,,,,,,,,
220,;alfkjgkj,Memory,4,,,,,,,00647941031fa.jpg,,,,,,,,,,,
221,;alfkjgkj,Memory,4,,,,,,,00115931230fa.jpg,,,,,,,,,,,
222,;alfkjgkj,Memory,4,,,,,,,00092931230fa.jpg,,,,,,,,,,,
223,;alfkjgkj,Memory,4,,,,,,,sunapwjkcxdaeqehfql.jpg,,,,,,,,,,,
224,;alfkjgkj,Memory,4,,,,,,,00264940128fb.jpg,,,,,,,,,,,
225,;alfkjgkj,Memory,4,,,,,,,00559940519fa.jpg,,,,,,,,,,,
226,;alfkjgkj,Memory,4,,,,,,,00142931230fb.jpg,,,,,,,,,,,
227,;alfkjgkj,Memory,4,,,,,,,00922960627fa.jpg,,,,,,,,,,,
228,;alfkjgkj,Memory,4,,,,,,,sunaanlwnpqndclffxt.jpg,,,,,,,,,,,
229,;alfkjgkj,Memory,4,,,,,,,sunalkiibhqpxfamlll.jpg,,,,,,,,,,,
230,;alfkjgkj,Memory,4,,,,,,,sunacvzhvcksnwqcqbw.jpg,,,,,,,,,,,
231,;alfkjgkj,Memory,4,,,,,,,00090931230fa.jpg,,,,,,,,,,,
232,;alfkjgkj,Memory,4,,,,,,,sunajbwkywmsqkldfml.jpg,,,,,,,,,,,
233,;alfkjgkj,Memory,4,,,,,,,00988960627fa.jpg,,,,,,,,,,,
234,;alfkjgkj,Memory,4,,,,,,,00828940307fa.jpg,,,,,,,,,,,
235,;alfkjgkj,Memory,4,,,,,,,sunagfvluwixdsozaql.jpg,,,,,,,,,,,
236,;alfkjgkj,Memory,4,,,,,,,00903960620fa.jpg,,,,,,,,,,,
237,;alfkjgkj,Memory,4,,,,,,,00636941031fa.jpg,,,,,,,,,,,
238,;alfkjgkj,Memory,4,,,,,,,00479940519fa.jpg,,,,,,,,,,,
239,;alfkjgkj,Memory,4,,,,,,,00723941201fa.jpg,,,,,,,,,,,
240,;alfkjgkj,Memory,4,,,,,,,01004960627fa.jpg,,,,,,,,,,,
241,;alfkjgkj,Memory,4,,,,,,,00063931230fa.jpg,,,,,,,,,,,
242,;alfkjgkj,Memory,4,,,,,,,00265940128fb.jpg,,,,,,,,,,,
243,;alfkjgkj,Memory,4,,,,,,,sunaajqmsaavkmgbsth.jpg,,,,,,,,,,,
244,;alfkjgkj,Memory,4,,,,,,,00971960627fa.jpg,,,,,,,,,,,
245,;alfkjgkj,Memory,4,,,,,,,00933960627fa.jpg,,,,,,,,,,,
246,;alfkjgkj,Memory,4,,,,,,,00983960627fa.jpg,,,,,,,,,,,
247,;alfkjgkj,Memory,4,,,,,,,sunaloffvbvysigxent.jpg,,,,,,,,,,,
248,;alfkjgkj,Memory,4,,,,,,,sunbgzjryivyczuvkvm.jpg,,,,,,,,,,,
249,;alfkjgkj,Memory,4,,,,,,,00728941205fa.jpg,,,,,,,,,,,
250,;alfkjgkj,Presentation,5,00280940422fb_sunabohxbskznglnrhv.jpg,00262940128fa_sunabizydfotqddlnjp.jpg,00280940422fb.jpg,sunabohxbskznglnrhv.jpg,00262940128fa.jpg,sunabizydfotqddlnjp.jpg,,,<,Face,,,,,1,,,
251,;alfkjgkj,Presentation,5,00116931230fa_sunaakqepfoeqomfgxf.jpg,00620940928fa_sunacypmnujalygkunp.jpg,00116931230fa.jpg,sunaakqepfoeqomfgxf.jpg,00620940928fa.jpg,sunacypmnujalygkunp.jpg,,,<,Face,,,,,1,,,
252,;alfkjgkj,Presentation,5,00650941031fa_sunadikxpvqeabxrvvc.jpg,00794960620fa_sunagtqhhwxjeuxdebe.jpg,00650941031fa.jpg,sunadikxpvqeabxrvvc.jpg,00794960620fa.jpg,sunagtqhhwxjeuxdebe.jpg,,,<,Face,,,,,1,,,
253,;alfkjgkj,Presentation,5,00153931230fa_sunaauhozyxzeeqstxi.jpg,00147931230fb_sunaatpkocdkocwxpkb.jpg,00153931230fa.jpg,sunaauhozyxzeeqstxi.jpg,00147931230fb.jpg,sunaatpkocdkocwxpkb.jpg,,,<,Face,,,,,1,,,
254,;alfkjgkj,Presentation,5,00791941205fa_sunagrmyoovzukhxmlo.jpg,00197940128fa_sunaaylzyqlqrsmfwif.jpg,00791941205fa.jpg,sunagrmyoovzukhxmlo.jpg,00197940128fa.jpg,sunaaylzyqlqrsmfwif.jpg,,,<,Face,,,,,1,,,
255,;alfkjgkj,Presentation,5,00967960627fa_sunbaejotfklekvpxcz.jpg,00768941205fa_sunafkmnlytenlsywia.jpg,00967960627fa.jpg,sunbaejotfklekvpxcz.jpg,00768941205fa.jpg,sunafkmnlytenlsywia.jpg,,,<,Face,,,,,1,,,
256,;alfkjgkj,Presentation,5,00801941205fa_sunagvprlbprarvgdvj.jpg,00976960627fa_sunbbhqyyzmsxhsbjmp.jpg,00801941205fa.jpg,sunagvprlbprarvgdvj.jpg,00976960627fa.jpg,sunbbhqyyzmsxhsbjmp.jpg,,,<,Face,,,,,1,,,
257,;alfkjgkj,Presentation,5,00776941205fa_sunafxokyavhgptyfye.jpg,00876960620fa_sunajwqkfsykceonyig.jpg,00776941205fa.jpg,sunafxokyavhgptyfye.jpg,00876960620fa.jpg,sunajwqkfsykceonyig.jpg,,,<,Face,,,,,0,,,
258,;alfkjgkj,Presentation,5,00819940307fa_sunahqldjibofgsfdgb.jpg,00630941031fa_sunadakkdovnuzlycvp.jpg,00819940307fa.jpg,sunahqldjibofgsfdgb.jpg,00630941031fa.jpg,sunadakkdovnuzlycvp.jpg,,,<,Face,,,,,1,,,
259,;alfkjgkj,Presentation,5,00647941031fa_sunadflbrkckmepztql.jpg,00146960620fb_sunaatpeezlljqaxlhj.jpg,00647941031fa.jpg,sunadflbrkckmepztql.jpg,00146960620fb.jpg,sunaatpeezlljqaxlhj.jpg,,,<,Face,,,,,0,,,
260,;alfkjgkj,Memory,5,,,,,,,sunadqmjrhfjyuzyvdd.jpg,,,,,,,,,,,
261,;alfkjgkj,Memory,5,,,,,,,sunaedtgwjvvziytspa.jpg,,,,,,,,,,,
262,;alfkjgkj,Memory,5,,,,,,,sunahbvlpavurqoxdeq.jpg,,,,,,,,,,,
263,;alfkjgkj,Memory,5,,,,,,,sunabxsuqbleluwczoy.jpg,,,,,,,,,,,
264,;alfkjgkj,Memory,5,,,,,,,sunaanptmsknhirrzed.jpg,,,,,,,,,,,
265,;alfkjgkj,Memory,5,,,,,,,00960960627fa.jpg,,,,,,,,,,,
266,;alfkjgkj,Memory,5,,,,,,,00163931230fb.jpg,,,,,,,,,,,
267,;alfkjgkj,Memory,5,,,,,,,sunaaexpnawiehinlpy.jpg,,,,,,,,,,,
268,;alfkjgkj,Memory,5,,,,,,,sunaiozxhxgtfrmoagh.jpg,,,,,,,,,,,
269,;alfkjgkj,Memory,5,,,,,,,sunbbgtoeuzierkkajt.jpg,,,,,,,,,,,
270,;alfkjgkj,Memory,5,,,,,,,sunbvbrvgbpanfrawft.jpg,,,,,,,,,,,
271,;alfkjgkj,Memory,5,,,,,,,sunadochqcucscehsgk.jpg,,,,,,,,,,,
272,;alfkjgkj,Memory,5,,,,,,,sunabllobxadqcyttej.jpg,,,,,,,,,,,
273,;alfkjgkj,Memory,5,,,,,,,00959960627fa.jpg,,,,,,,,,,,
274,;alfkjgkj,Memory,5,,,,,,,sunasmmcxdddtmtazwx.jpg,,,,,,,,,,,
275,;alfkjgkj,Memory,5,,,,,,,sunaflojskatpeqyzqp.jpg,,,,,,,,,,,
276,;alfkjgkj,Memory,5,,,,,,,sunayaepykrqvenaqqy.jpg,,,,,,,,,,,
277,;alfkjgkj,Memory,5,,,,,,,00812941205fa.jpg,,,,,,,,,,,
278,;alfkjgkj,Memory,5,,,,,,,sunajrgtewnualfcerj.jpg,,,,,,,,,,,
279,;alfkjgkj,Memory,5,,,,,,,00133931230fa.jpg,,,,,,,,,,,
280,;alfkjgkj,Memory,5,,,,,,,sunaetydippjxikifsb.jpg,,,,,,,,,,,
281,;alfkjgkj,Memory,5,,,,,,,sunaaeplwsfslcbtojr.jpg,,,,,,,,,,,
282,;alfkjgkj,Memory,5,,,,,,,sunabbafjowbzcvbucc.jpg,,,,,,,,,,,
283,;alfkjgkj,Memory,5,,,,,,,00741941201fa.jpg,,,,,,,,,,,
284,;alfkjgkj,Memory,5,,,,,,,00102931230fa.jpg,,,,,,,,,,,
285,;alfkjgkj,Memory,5,,,,,,,00123931230fb.jpg,,,,,,,,,,,
286,;alfkjgkj,Memory,5,,,,,,,sunafcofuuzebuadceo.jpg,,,,,,,,,,,
287,;alfkjgkj,Memory,5,,,,,,,sunafvcflzhlqloapyo.jpg,,,,,,,,,,,
288,;alfkjgkj,Memory,5,,,,,,,sunadtlxenqqxsyjvix.jpg,,,,,,,,,,,
289,;alfkjgkj,Memory,5,,,,,,,sunaajspcoepticvplv.jpg,,,,,,,,,,,
290,;alfkjgkj,Memory,5,,,,,,,00070940307fa.jpg,,,,,,,,,,,
291,;alfkjgkj,Memory,5,,,,,,,sunakgbnzxmfohgehnu.jpg,,,,,,,,,,,
292,;alfkjgkj,Memory,5,,,,,,,sunauburywlkjszngcq.jpg,,,,,,,,,,,
293,;alfkjgkj,Memory,5,,,,,,,sunachtuarilwyqnvjx.jpg,,,,,,,,,,,
294,;alfkjgkj,Memory,5,,,,,,,sunaejnvnpltdmhbcsi.jpg,,,,,,,,,,,
295,;alfkjgkj,Memory,5,,,,,,,00122931230fa.jpg,,,,,,,,,,,
296,;alfkjgkj,Memory,5,,,,,,,sunaivdylrawbmhryfp.jpg,,,,,,,,,,,
297,;alfkjgkj,Memory,5,,,,,,,sunahqldjibofgsfdgb.jpg,,,,,,,,,,,
298,;alfkjgkj,Memory,5,,,,,,,sunabueyoajufbkraki.jpg,,,,,,,,,,,
299,;alfkjgkj,Memory,5,,,,,,,00676941121fa.jpg,,,,,,,,,,,
300,;alfkjgkj,Presentation,6,00972960627fa_sunbbfqwjpdxniyhies.jpg,00746941201fa_sunaetydippjxikifsb.jpg,00972960627fa.jpg,sunbbfqwjpdxniyhies.jpg,00746941201fa.jpg,sunaetydippjxikifsb.jpg,,,>,Place,,,,,1,,,
301,;alfkjgkj,Presentation,6,00795941205fa_sunagtumacdlmciqamz.jpg,00965960627fa_sunaydywdmvlfddbxbk.jpg,00795941205fa.jpg,sunagtumacdlmciqamz.jpg,00965960627fa.jpg,sunaydywdmvlfddbxbk.jpg,,,>,Place,,,,,1,,,
302,;alfkjgkj,Presentation,6,00782941205fa_sunagfvluwixdsozaql.jpg,00633940928fa_sunadbhmrgrrpyzglxs.jpg,00782941205fa.jpg,sunagfvluwixdsozaql.jpg,00633940928fa.jpg,sunadbhmrgrrpyzglxs.jpg,,,>,Place,,,,,1,,,
303,;alfkjgkj,Presentation,6,00827940307fa_sunahtfxgsrmkiulnwk.jpg,00909960530_sunaobtizabegtwfwul.jpg,00827940307fa.jpg,sunahtfxgsrmkiulnwk.jpg,00909960530.jpg,sunaobtizabegtwfwul.jpg,,,>,Place,,,,,1,,,
304,;alfkjgkj,Presentation,6,00854940307fa_sunaiwduelojtwaqeyh.jpg,00720960620fa_sunaecpkgfewqqreqwe.jpg,00854940307fa.jpg,sunaiwduelojtwaqeyh.jpg,00720960620fa.jpg,sunaecpkgfewqqreqwe.jpg,,,>,Place,,,,,1,,,
305,;alfkjgkj,Presentation,6,00996960627fa_sunbpvgllfdejxcpjqp.jpg,00762941201fa_sunafgzgbisbopcyslr.jpg,00996960627fa.jpg,sunbpvgllfdejxcpjqp.jpg,00762941201fa.jpg,sunafgzgbisbopcyslr.jpg,,,>,Place,,,,,1,,,
306,;alfkjgkj,Presentation,6,00082931230fa_sunaafvitpexrpvumsa.jpg,00983960627fa_sunbfyvfqiimvdaxlqn.jpg,00082931230fa.jpg,sunaafvitpexrpvumsa.jpg,00983960627fa.jpg,sunbfyvfqiimvdaxlqn.jpg,,,>,Place,,,,,1,,,
307,;alfkjgkj,Presentation,6,00529940519fa_sunacbeefkxpymwevpk.jpg,00648941031fa_sunadfndyrtqqiasoig.jpg,00529940519fa.jpg,sunacbeefkxpymwevpk.jpg,00648941031fa.jpg,sunadfndyrtqqiasoig.jpg,,,>,Place,,,,,1,,,
308,;alfkjgkj,Presentation,6,00081941031fa_sunaaftlyfudyzuhqzf.jpg,00834940307fa_sunaibnpvhkdpdnzcnz.jpg,00081941031fa.jpg,sunaaftlyfudyzuhqzf.jpg,00834940307fa.jpg,sunaibnpvhkdpdnzcnz.jpg,,,>,Place,,,,,1,,,
309,;alfkjgkj,Presentation,6,01000960627fa_sunbvzmgrdvaakxusbu.jpg,00871940307_sunajrujcsdxmfbssmc.jpg,01000960627fa.jpg,sunbvzmgrdvaakxusbu.jpg,00871940307.jpg,sunajrujcsdxmfbssmc.jpg,,,>,Place,,,,,1,,,
310,;alfkjgkj,Memory,6,,,,,,,sunaenwuebvlpdmntju.jpg,,,,,,,,,,,
311,;alfkjgkj,Memory,6,,,,,,,00786941205fa.jpg,,,,,,,,,,,
312,;alfkjgkj,Memory,6,,,,,,,sunaahedjlmtqekgyvj.jpg,,,,,,,,,,,
313,;alfkjgkj,Memory,6,,,,,,,sunabkngeblodihjvbk.jpg,,,,,,,,,,,
314,;alfkjgkj,Memory,6,,,,,,,sunagmhildamktmqjss.jpg,,,,,,,,,,,
315,;alfkjgkj,Memory,6,,,,,,,00827940307fa.jpg,,,,,,,,,,,
316,;alfkjgkj,Memory,6,,,,,,,00197940128fa.jpg,,,,,,,,,,,
317,;alfkjgkj,Memory,6,,,,,,,sunaeutbrtswvsozxyk.jpg,,,,,,,,,,,
318,;alfkjgkj,Memory,6,,,,,,,sunaatpkocdkocwxpkb.jpg,,,,,,,,,,,
319,;alfkjgkj,Memory,6,,,,,,,00979960627fa.jpg,,,,,,,,,,,
320,;alfkjgkj,Memory,6,,,,,,,01009960627fa.jpg,,,,,,,,,,,
321,;alfkjgkj,Memory,6,,,,,,,00915960620fa.jpg,,,,,,,,,,,
322,;alfkjgkj,Memory,6,,,,,,,00788941205fa.jpg,,,,,,,,,,,
323,;alfkjgkj,Memory,6,,,,,,,00990960627fa.jpg,,,,,,,,,,,
324,;alfkjgkj,Memory,6,,,,,,,00963960627fa.jpg,,,,,,,,,,,
325,;alfkjgkj,Memory,6,,,,,,,00097931230fa.jpg,,,,,,,,,,,
326,;alfkjgkj,Memory,6,,,,,,,sunaprnrbmgkomdbchr.jpg,,,,,,,,,,,
327,;alfkjgkj,Memory,6,,,,,,,sunaofikylqtxphvdem.jpg,,,,,,,,,,,
328,;alfkjgkj,Memory,6,,,,,,,sunagcinxkccdtrjmlv.jpg,,,,,,,,,,,
329,;alfkjgkj,Memory,6,,,,,,,sunabbwggenhfbftyvi.jpg,,,,,,,,,,,
330,;alfkjgkj,Memory,6,,,,,,,00136931230fb.jpg,,,,,,,,,,,
331,;alfkjgkj,Memory,6,,,,,,,00967960627fa.jpg,,,,,,,,,,,
332,;alfkjgkj,Memory,6,,,,,,,sunbwtlihsuptkrckid.jpg,,,,,,,,,,,
333,;alfkjgkj,Memory,6,,,,,,,sunaalhlvzmjmitybdn.jpg,,,,,,,,,,,
334,;alfkjgkj,Memory,6,,,,,,,00065931230fb.jpg,,,,,,,,,,,
335,;alfkjgkj,Memory,6,,,,,,,sunaaheqzstzxuadglu.jpg,,,,,,,,,,,
336,;alfkjgkj,Memory,6,,,,,,,sunacdnquypmsshhsbk.jpg,,,,,,,,,,,
337,;alfkjgkj,Memory,6,,,,,,,00071940128fa.jpg,,,,,,,,,,,
338,;alfkjgkj,Memory,6,,,,,,,00194940128fb.jpg,,,,,,,,,,,
339,;alfkjgkj,Memory,6,,,,,,,sunagjeesomrwjsfqie.jpg,,,,,,,,,,,
340,;alfkjgkj,Memory,6,,,,,,,00966960627fa.jpg,,,,,,,,,,,
341,;alfkjgkj,Memory,6,,,,,,,00893960530Fa.jpg,,,,,,,,,,,
342,;alfkjgkj,Memory,6,,,,,,,00154931230fa.jpg,,,,,,,,,,,
343,;alfkjgkj,Memory,6,,,,,,,sunacmpqqfbsvlzinzl.jpg,,,,,,,,,,,
344,;alfkjgkj,Memory,6,,,,,,,00753941201fa.jpg,,,,,,,,,,,
345,;alfkjgkj,Memory,6,,,,,,,00314940422fa.jpg,,,,,,,,,,,
346,;alfkjgkj,Memory,6,,,,,,,00140931230fb.jpg,,,,,,,,,,,
347,;alfkjgkj,Memory,6,,,,,,,sunbdycacjfaujxitbw.jpg,,,,,,,,,,,
348,;alfkjgkj,Memory,6,,,,,,,sunacfdkbsrughwqwtt.jpg,,,,,,,,,,,
349,;alfkjgkj,Memory,6,,,,,,,00878960530fa.jpg,,,,,,,,,,,
350,;alfkjgkj,Presentation,7,00763941205fa_sunafhmnhsdurlvddpw.jpg,00096931230fa_sunaaiqiqcggrskoqgy.jpg,00763941205fa.jpg,sunafhmnhsdurlvddpw.jpg,00096931230fa.jpg,sunaaiqiqcggrskoqgy.jpg,,,<,Place,,,,,1,,,
351,;alfkjgkj,Presentation,7,00931960627fa_sunaptrqvaooxfvktvw.jpg,00097931230fa_sunaajayojuslbbnneg.jpg,00931960627fa.jpg,sunaptrqvaooxfvktvw.jpg,00097931230fa.jpg,sunaajayojuslbbnneg.jpg,,,<,Place,,,,,1,,,
352,;alfkjgkj,Presentation,7,00971960627fa_sunbbegcweqnetpdlrh.jpg,00908960530fa_sunanwjjyqqwzqrqagd.jpg,00971960627fa.jpg,sunbbegcweqnetpdlrh.jpg,00908960530fa.jpg,sunanwjjyqqwzqrqagd.jpg,,,<,Place,,,,,1,,,
353,;alfkjgkj,Presentation,7,00723941201fa_sunaedtgwjvvziytspa.jpg,00077931230fb_sunaafgqutfaishsxyu.jpg,00723941201fa.jpg,sunaedtgwjvvziytspa.jpg,00077931230fb.jpg,sunaafgqutfaishsxyu.jpg,,,<,Place,,,,,1,,,
354,;alfkjgkj,Presentation,7,00194940128fb_sunaayehfdqcyxggsej.jpg,01007960627fa_sunbxarcshsnqsefemx.jpg,00194940128fb.jpg,sunaayehfdqcyxggsej.jpg,01007960627fa.jpg,sunbxarcshsnqsefemx.jpg,,,<,Place,,,,,1,,,
355,;alfkjgkj,Presentation,7,00598940928fa_sunacxeheuiigkcgquf.jpg,00986960627fa_sunbgzjryivyczuvkvm.jpg,00598940928fa.jpg,sunacxeheuiigkcgquf.jpg,00986960627fa.jpg,sunbgzjryivyczuvkvm.jpg,,,<,Place,,,,,1,,,
356,;alfkjgkj,Presentation,7,00163931230fb_sunaavodbcpygkggnfp.jpg,00126931230fb_sunaamdjwemxpmmtypi.jpg,00163931230fb.jpg,sunaavodbcpygkggnfp.jpg,00126931230fb.jpg,sunaamdjwemxpmmtypi.jpg,,,<,Place,,,,,1,,,
357,;alfkjgkj,Presentation,7,00227940128fa_sunabckqabszusgcykj.jpg,00263940128fb_sunabjuovqvyfuzvqwt.jpg,00227940128fa.jpg,sunabckqabszusgcykj.jpg,00263940128fb.jpg,sunabjuovqvyfuzvqwt.jpg,,,<,Place,,,,,1,,,
358,;alfkjgkj,Presentation,7,00125931230fa_sunaalltyvjhbzhkmvg.jpg,00874940307fa_sunajtrfunvzdfticna.jpg,00125931230fa.jpg,sunaalltyvjhbzhkmvg.jpg,00874940307fa.jpg,sunajtrfunvzdfticna.jpg,,,<,Place,,,,,1,,,
359,;alfkjgkj,Presentation,7,01004960627fa_sunbwtlihsuptkrckid.jpg,00929960627fa_sunaprnrbmgkomdbchr.jpg,01004960627fa.jpg,sunbwtlihsuptkrckid.jpg,00929960627fa.jpg,sunaprnrbmgkomdbchr.jpg,,,<,Place,,,,,1,,,
360,;alfkjgkj,Memory,7,,,,,,,00891960530fa.jpg,,,,,,,,,,,
361,;alfkjgkj,Memory,7,,,,,,,sunaauueuhhvklldjik.jpg,,,,,,,,,,,
362,;alfkjgkj,Memory,7,,,,,,,00631940928fa.jpg,,,,,,,,,,,
363,;alfkjgkj,Memory,7,,,,,,,00869940307fa.jpg,,,,,,,,,,,
364,;alfkjgkj,Memory,7,,,,,,,sunadbhmrgrrpyzglxs.jpg,,,,,,,,,,,
365,;alfkjgkj,Memory,7,,,,,,,00742941201fa.jpg,,,,,,,,,,,
366,;alfkjgkj,Memory,7,,,,,,,sunabjzyxcjnmztdonj.jpg,,,,,,,,,,,
367,;alfkjgkj,Memory,7,,,,,,,00483940519fa.jpg,,,,,,,,,,,
368,;alfkjgkj,Memory,7,,,,,,,sunahwgbqkqcrwprgvh.jpg,,,,,,,,,,,
369,;alfkjgkj,Memory,7,,,,,,,sunabkmdplkdbvxriff.jpg,,,,,,,,,,,
370,;alfkjgkj,Memory,7,,,,,,,sunbpflsdaxnddnwcqi.jpg,,,,,,,,,,,
371,;alfkjgkj,Memory,7,,,,,,,00929960627fa.jpg,,,,,,,,,,,
372,;alfkjgkj,Memory,7,,,,,,,00838940307fa.jpg,,,,,,,,,,,
373,;alfkjgkj,Memory,7,,,,,,,sunaawqdbpihmlbwyyn.jpg,,,,,,,,,,,
374,;alfkjgkj,Memory,7,,,,,,,00124931230fa.jpg,,,,,,,,,,,
375,;alfkjgkj,Memory,7,,,,,,,00481940519fa.jpg,,,,,,,,,,,
376,;alfkjgkj,Memory,7,,,,,,,sunabwmcbaxwioksdgw.jpg,,,,,,,,,,,
377,;alfkjgkj,Memory,7,,,,,,,00885960530fa.jpg,,,,,,,,,,,
378,;alfkjgkj,Memory,7,,,,,,,00777941205fa.jpg,,,,,,,,,,,
379,;alfkjgkj,Memory,7,,,,,,,00705941205fa.jpg,,,,,,,,,,,
380,;alfkjgkj,Memory,7,,,,,,,sunaefgzwiramypjvtd.jpg,,,,,,,,,,,
381,;alfkjgkj,Memory,7,,,,,,,00776941205fa.jpg,,,,,,,,,,,
382,;alfkjgkj,Memory,7,,,,,,,sunaaeowapdkwzqpgqr.jpg,,,,,,,,,,,
383,;alfkjgkj,Memory,7,,,,,,,sunacbeefkxpymwevpk.jpg,,,,,,,,,,,
384,;alfkjgkj,Memory,7,,,,,,,sunagvjurcwdbixvnyi.jpg,,,,,,,,,,,
385,;alfkjgkj,Memory,7,,,,,,,sunafgdqbclkwfocdhg.jpg,,,,,,,,,,,
386,;alfkjgkj,Memory,7,,,,,,,sunaekgzpfilgjxpeyq.jpg,,,,,,,,,,,
387,;alfkjgkj,Memory,7,,,,,,,00598941031fa.jpg,,,,,,,,,,,
388,;alfkjgkj,Memory,7,,,,,,,00792941205fa.jpg,,,,,,,,,,,
389,;alfkjgkj,Memory,7,,,,,,,00747941201fa.jpg,,,,,,,,,,,
390,;alfkjgkj,Memory,7,,,,,,,sunadsgmtznewzyasnk.jpg,,,,,,,,,,,
391,;alfkjgkj,Memory,7,,,,,,,sunbmaiocftdtvnzgap.jpg,,,,,,,,,,,
392,;alfkjgkj,Memory,7,,,,,,,sunadpnqovzckyikrjo.jpg,,,,,,,,,,,
393,;alfkjgkj,Memory,7,,,,,,,sunbasypfgzjtomktmu.jpg,,,,,,,,,,,
394,;alfkjgkj,Memory,7,,,,,,,sunaavjinpnkappuonm.jpg,,,,,,,,,,,
395,;alfkjgkj,Memory,7,,,,,,,sunaavodbcpygkggnfp.jpg,,,,,,,,,,,
396,;alfkjgkj,Memory,7,,,,,,,00730960620fa.jpg,,,,,,,,,,,
397,;alfkjgkj,Memory,7,,,,,,,sunaavchcbptaerhcfy.jpg,,,,,,,,,,,
398,;alfkjgkj,Memory,7,,,,,,,sunaeoghzrjarigmwua.jpg,,,,,,,,,,,
399,;alfkjgkj,Memory,7,,,,,,,00770941201fa.jpg,,,,,,,,,,,
