,Subject,Trial Type,Run,Cued Composite,Uncued Composite,Cued Face,Cued Place,Uncued Face,Uncued Place,Memory Image,Category,Cued Side,Cued Category,Attention Reaction Time (s),Familiarity Reaction Time (s),Familiarity Rating,Attention Level,Cue Validity,Post Invalid Cue,Pre Invalid Cue,Attention Button,Rating History,Stimulus Onset,Stimulus End,Attention Probe
0,0,Presentation,0,00985960627fa_sunbgklxeqjhdbyfhhy.jpg,00973960627fa_sunbbgtoeuzierkkajt.jpg,00985960627fa.jpg,sunbgklxeqjhdbyfhhy.jpg,00973960627fa.jpg,sunbbgtoeuzierkkajt.jpg,,,>,Place,,,,,0,,,,,,,x
1,0,Presentation,0,00950960627fa_sunasrjlmglmjzbmqxb.jpg,00913960530fa_sunaooffzffbhcpirmm.jpg,00950960627fa.jpg,sunasrjlmglmjzbmqxb.jpg,00913960530fa.jpg,sunaooffzffbhcpirmm.jpg,,,>,Place,,,,,1,,,,,,,x
2,0,Presentation,0,00670941121fa_sunadochqcucscehsgk.jpg,00313940422fa_sunabwjvmoaddlyxfjr.jpg,00670941121fa.jpg,sunadochqcucscehsgk.jpg,00313940422fa.jpg,sunabwjvmoaddlyxfjr.jpg,,,>,Face,,,,,1,,,,,,,x
3,0,Presentation,0,00559940519fa_sunacjkmnpawfzbyvae.jpg,00794960620fa_sunagtqhhwxjeuxdebe.jpg,00559940519fa.jpg,sunacjkmnpawfzbyvae.jpg,00794960620fa.jpg,sunagtqhhwxjeuxdebe.jpg,,,<,Face,,,,,1,,,,,,,o
4,0,Presentation,0,00960960627fa_sunawksfbacycuhbrsc.jpg,00305940422fa_sunabtrnbvpppgczjim.jpg,00960960627fa.jpg,sunawksfbacycuhbrsc.jpg,00305940422fa.jpg,sunabtrnbvpppgczjim.jpg,,,<,Place,,,,,1,,,,,,,o
5,0,Presentation,0,00483940519fa_sunabyvpwkgsjtijdwj.jpg,00292940422fb_sunabrjdpmoedcdjbpo.jpg,00483940519fa.jpg,sunabyvpwkgsjtijdwj.jpg,00292940422fb.jpg,sunabrjdpmoedcdjbpo.jpg,,,<,Face,,,,,0,,,,,,,o
6,0,Presentation,0,00129931230fb_sunaamsdyakblkfoydx.jpg,00828940307fa_sunahuynahneraqftyz.jpg,00129931230fb.jpg,sunaamsdyakblkfoydx.jpg,00828940307fa.jpg,sunahuynahneraqftyz.jpg,,,<,Place,,,,,1,,,,,,,o
7,0,Presentation,0,00634940928fa_sunadcphrizvfpljiqt.jpg,00609940928fa_sunacycdoztxoluxjyk.jpg,00634940928fa.jpg,sunadcphrizvfpljiqt.jpg,00609940928fa.jpg,sunacycdoztxoluxjyk.jpg,,,>,Face,,,,,1,,,,,,,x
8,0,Presentation,0,00564940928fa_sunacmpqqfbsvlzinzl.jpg,00097931230fa_sunaajayojuslbbnneg.jpg,00564940928fa.jpg,sunacmpqqfbsvlzinzl.jpg,00097931230fa.jpg,sunaajayojuslbbnneg.jpg,,,>,Face,,,,,1,,,,,,,o
9,0,Presentation,0,00481940519fa_sunabxsuqbleluwczoy.jpg,00965960627fa_sunaydywdmvlfddbxbk.jpg,00481940519fa.jpg,sunabxsuqbleluwczoy.jpg,00965960627fa.jpg,sunaydywdmvlfddbxbk.jpg,,,<,Place,,,,,1,,,,,,,o
10,0,Memory,0,,,,,,,sunaydywdmvlfddbxbk.jpg,,,,,,,,,,,,,,,
11,0,Memory,0,,,,,,,00097931230fa.jpg,,,,,,,,,,,,,,,
12,0,Memory,0,,,,,,,00292940422fb.jpg,,,,,,,,,,,,,,,
13,0,Memory,0,,,,,,,00129931230fb.jpg,,,,,,,,,,,,,,,
14,0,Memory,0,,,,,,,sunaajayojuslbbnneg.jpg,,,,,,,,,,,,,,,
15,0,Memory,0,,,,,,,sunasrjlmglmjzbmqxb.jpg,,,,,,,,,,,,,,,
16,0,Memory,0,,,,,,,sunapmfmzadmosuogaz.jpg,,,,,,,,,,,,,,,
17,0,Memory,0,,,,,,,00789960620fa.jpg,,,,,,,,,,,,,,,
18,0,Memory,0,,,,,,,00564940928fa.jpg,,,,,,,,,,,,,,,
19,0,Memory,0,,,,,,,sunaamsdyakblkfoydx.jpg,,,,,,,,,,,,,,,
20,0,Memory,0,,,,,,,sunaooffzffbhcpirmm.jpg,,,,,,,,,,,,,,,
21,0,Memory,0,,,,,,,sunadzuvtmtmgupotmf.jpg,,,,,,,,,,,,,,,
22,0,Memory,0,,,,,,,00926960627Fa.jpg,,,,,,,,,,,,,,,
23,0,Memory,0,,,,,,,00976960627fa.jpg,,,,,,,,,,,,,,,
24,0,Memory,0,,,,,,,sunawksfbacycuhbrsc.jpg,,,,,,,,,,,,,,,
25,0,Memory,0,,,,,,,00960960627fa.jpg,,,,,,,,,,,,,,,
26,0,Memory,0,,,,,,,sunagvprlbprarvgdvj.jpg,,,,,,,,,,,,,,,
27,0,Memory,0,,,,,,,00481940519fa.jpg,,,,,,,,,,,,,,,
28,0,Memory,0,,,,,,,sunbbhqyyzmsxhsbjmp.jpg,,,,,,,,,,,,,,,
29,0,Memory,0,,,,,,,00792941205fa.jpg,,,,,,,,,,,,,,,
30,0,Memory,0,,,,,,,sunagsiwrmuixqgdimb.jpg,,,,,,,,,,,,,,,
31,0,Memory,0,,,,,,,00801941205fa.jpg,,,,,,,,,,,,,,,
32,0,Memory,0,,,,,,,sunadakkdovnuzlycvp.jpg,,,,,,,,,,,,,,,
33,0,Memory,0,,,,,,,00950960627fa.jpg,,,,,,,,,,,,,,,
34,0,Memory,0,,,,,,,sunaibnpvhkdpdnzcnz.jpg,,,,,,,,,,,,,,,
35,0,Memory,0,,,,,,,00834940307fa.jpg,,,,,,,,,,,,,,,
36,0,Memory,0,,,,,,,00719960620fa.jpg,,,,,,,,,,,,,,,
37,0,Memory,0,,,,,,,sunbbgtoeuzierkkajt.jpg,,,,,,,,,,,,,,,
38,0,Memory,0,,,,,,,00126931230fb.jpg,,,,,,,,,,,,,,,
39,0,Memory,0,,,,,,,sunabxsuqbleluwczoy.jpg,,,,,,,,,,,,,,,
40,0,Memory,0,,,,,,,00919960620fa.jpg,,,,,,,,,,,,,,,
41,0,Memory,0,,,,,,,sunabrjdpmoedcdjbpo.jpg,,,,,,,,,,,,,,,
42,0,Memory,0,,,,,,,00965960627fa.jpg,,,,,,,,,,,,,,,
43,0,Memory,0,,,,,,,00973960627fa.jpg,,,,,,,,,,,,,,,
44,0,Memory,0,,,,,,,sunacmpqqfbsvlzinzl.jpg,,,,,,,,,,,,,,,
45,0,Memory,0,,,,,,,sunaamdjwemxpmmtypi.jpg,,,,,,,,,,,,,,,
46,0,Memory,0,,,,,,,sunagpancjmxqfazssf.jpg,,,,,,,,,,,,,,,
47,0,Memory,0,,,,,,,sunapqwoeotxshkukbh.jpg,,,,,,,,,,,,,,,
48,0,Memory,0,,,,,,,00913960530fa.jpg,,,,,,,,,,,,,,,
49,0,Memory,0,,,,,,,00630941031fa.jpg,,,,,,,,,,,,,,,
50,0,Presentation,1,00874940307fa_sunajtrfunvzdfticna.jpg,00265940128fb_sunabkmdplkdbvxriff.jpg,00874940307fa.jpg,sunajtrfunvzdfticna.jpg,00265940128fb.jpg,sunabkmdplkdbvxriff.jpg,,,>,Place,,,,,1,,,,,,,o
51,0,Presentation,1,00773941201fa_sunafvcflzhlqloapyo.jpg,00783941205fa_sunagjeesomrwjsfqie.jpg,00773941201fa.jpg,sunafvcflzhlqloapyo.jpg,00783941205fa.jpg,sunagjeesomrwjsfqie.jpg,,,>,Place,,,,,1,,,,,,,x
52,0,Presentation,1,00777941205fa_sunagcinxkccdtrjmlv.jpg,00977960627fa_sunbbxkanhzjgbwyxqs.jpg,00777941205fa.jpg,sunagcinxkccdtrjmlv.jpg,00977960627fa.jpg,sunbbxkanhzjgbwyxqs.jpg,,,<,Face,,,,,1,,,,,,,o
53,0,Presentation,1,00638941031fa_sunadfktsqjthoglcsm.jpg,00730960620fa_sunaekgzpfilgjxpeyq.jpg,00638941031fa.jpg,sunadfktsqjthoglcsm.jpg,00730960620fa.jpg,sunaekgzpfilgjxpeyq.jpg,,,>,Face,,,,,1,,,,,,,o
54,0,Presentation,1,00095931230fa_sunaahzooisqkwlxwoz.jpg,00630940928fa_sunaczwgyukesaajxnx.jpg,00095931230fa.jpg,sunaahzooisqkwlxwoz.jpg,00630940928fa.jpg,sunaczwgyukesaajxnx.jpg,,,>,Face,,,,,1,,,,,,,o
55,0,Presentation,1,00822940307fa_sunahqrxievfeusiqlt.jpg,00812941205fa_sunahgtbwgsmtqeodwh.jpg,00822940307fa.jpg,sunahqrxievfeusiqlt.jpg,00812941205fa.jpg,sunahgtbwgsmtqeodwh.jpg,,,<,Place,,,,,1,,,,,,,o
56,0,Presentation,1,00894960620fa_sunalqmfgeadpqsyzpd.jpg,00109931230fa_sunaajuzribjrizdshh.jpg,00894960620fa.jpg,sunalqmfgeadpqsyzpd.jpg,00109931230fa.jpg,sunaajuzribjrizdshh.jpg,,,>,Place,,,,,1,,,,,,,o
57,0,Presentation,1,00982960627fa_sunbesrwkdsffeogeqq.jpg,00903960620fa_sunanainkqdvktzoxyl.jpg,00982960627fa.jpg,sunbesrwkdsffeogeqq.jpg,00903960620fa.jpg,sunanainkqdvktzoxyl.jpg,,,<,Place,,,,,1,,,,,,,o
58,0,Presentation,1,00663941121fa_sunadnjjzohjhbohlwq.jpg,00902960530fa_sunanaacmmosxrfwmvl.jpg,00663941121fa.jpg,sunadnjjzohjhbohlwq.jpg,00902960530fa.jpg,sunanaacmmosxrfwmvl.jpg,,,<,Face,,,,,1,,,,,,,o
59,0,Presentation,1,00943960627fa_sunarpsxqkduedrrzyi.jpg,00935960627fa_sunaqbmgkgqucajzrkp.jpg,00943960627fa.jpg,sunarpsxqkduedrrzyi.jpg,00935960627fa.jpg,sunaqbmgkgqucajzrkp.jpg,,,<,Face,,,,,1,,,,,,,x
60,0,Memory,1,,,,,,,sunagufzbeteqdjxais.jpg,,,,,,,,,,,,,,,
61,0,Memory,1,,,,,,,00290940422fa.jpg,,,,,,,,,,,,,,,
62,0,Memory,1,,,,,,,00730960620fa.jpg,,,,,,,,,,,,,,,
63,0,Memory,1,,,,,,,00803941205fa.jpg,,,,,,,,,,,,,,,
64,0,Memory,1,,,,,,,00822940307fa.jpg,,,,,,,,,,,,,,,
65,0,Memory,1,,,,,,,sunahqldjibofgsfdgb.jpg,,,,,,,,,,,,,,,
66,0,Memory,1,,,,,,,00819940307fa.jpg,,,,,,,,,,,,,,,
67,0,Memory,1,,,,,,,00482940519fa.jpg,,,,,,,,,,,,,,,
68,0,Memory,1,,,,,,,sunadnjjzohjhbohlwq.jpg,,,,,,,,,,,,,,,
69,0,Memory,1,,,,,,,sunaixpqndlwhwjtjek.jpg,,,,,,,,,,,,,,,
70,0,Memory,1,,,,,,,sunahqrxievfeusiqlt.jpg,,,,,,,,,,,,,,,
71,0,Memory,1,,,,,,,sunagjeesomrwjsfqie.jpg,,,,,,,,,,,,,,,
72,0,Memory,1,,,,,,,00663941121fa.jpg,,,,,,,,,,,,,,,
73,0,Memory,1,,,,,,,00797960620fa.jpg,,,,,,,,,,,,,,,
74,0,Memory,1,,,,,,,sunaajuzribjrizdshh.jpg,,,,,,,,,,,,,,,
75,0,Memory,1,,,,,,,00943960627fa.jpg,,,,,,,,,,,,,,,
76,0,Memory,1,,,,,,,sunabyfxcxhdebvdyfd.jpg,,,,,,,,,,,,,,,
77,0,Memory,1,,,,,,,00993960627fa.jpg,,,,,,,,,,,,,,,
78,0,Memory,1,,,,,,,sunadfktsqjthoglcsm.jpg,,,,,,,,,,,,,,,
79,0,Memory,1,,,,,,,sunacvjlsylseoghjup.jpg,,,,,,,,,,,,,,,
80,0,Memory,1,,,,,,,sunaaexqbtdswxrqjvz.jpg,,,,,,,,,,,,,,,
81,0,Memory,1,,,,,,,00576941031fa.jpg,,,,,,,,,,,,,,,
82,0,Memory,1,,,,,,,sunavhxgmgrqsaptynb.jpg,,,,,,,,,,,,,,,
83,0,Memory,1,,,,,,,sunahgtbwgsmtqeodwh.jpg,,,,,,,,,,,,,,,
84,0,Memory,1,,,,,,,00638941031fa.jpg,,,,,,,,,,,,,,,
85,0,Memory,1,,,,,,,00874940307fa.jpg,,,,,,,,,,,,,,,
86,0,Memory,1,,,,,,,00071941031fa.jpg,,,,,,,,,,,,,,,
87,0,Memory,1,,,,,,,sunbprywzqxjcezkbch.jpg,,,,,,,,,,,,,,,
88,0,Memory,1,,,,,,,sunabqowuarvqqcnipn.jpg,,,,,,,,,,,,,,,
89,0,Memory,1,,,,,,,00858940307fa.jpg,,,,,,,,,,,,,,,
90,0,Memory,1,,,,,,,sunagvxkjokqimstxpe.jpg,,,,,,,,,,,,,,,
91,0,Memory,1,,,,,,,sunajtrfunvzdfticna.jpg,,,,,,,,,,,,,,,
92,0,Memory,1,,,,,,,00783941205fa.jpg,,,,,,,,,,,,,,,
93,0,Memory,1,,,,,,,sunaczwgyukesaajxnx.jpg,,,,,,,,,,,,,,,
94,0,Memory,1,,,,,,,sunarpsxqkduedrrzyi.jpg,,,,,,,,,,,,,,,
95,0,Memory,1,,,,,,,00630940928fa.jpg,,,,,,,,,,,,,,,
96,0,Memory,1,,,,,,,sunaekgzpfilgjxpeyq.jpg,,,,,,,,,,,,,,,
97,0,Memory,1,,,,,,,00812941205fa.jpg,,,,,,,,,,,,,,,
98,0,Memory,1,,,,,,,00957960627fa.jpg,,,,,,,,,,,,,,,
99,0,Memory,1,,,,,,,00109931230fa.jpg,,,,,,,,,,,,,,,
100,0,Presentation,2,00796941205fa_sunaguchqqnrtodtezq.jpg,00791941205fa_sunagrmyoovzukhxmlo.jpg,00796941205fa.jpg,sunaguchqqnrtodtezq.jpg,00791941205fa.jpg,sunagrmyoovzukhxmlo.jpg,,,<,Face,,,,,1,,,,,,,o
101,0,Presentation,2,00061931230fb_sunaaekxzjzrfgtkwjf.jpg,00062931230fb_sunaaelotvjgibjtjhs.jpg,00061931230fb.jpg,sunaaekxzjzrfgtkwjf.jpg,00062931230fb.jpg,sunaaelotvjgibjtjhs.jpg,,,>,Place,,,,,1,,,,,,,x
102,0,Presentation,2,00816941205fa_sunahmhrncocyhsjpxk.jpg,00280940422fb_sunabohxbskznglnrhv.jpg,00816941205fa.jpg,sunahmhrncocyhsjpxk.jpg,00280940422fb.jpg,sunabohxbskznglnrhv.jpg,,,>,Face,,,,,1,,,,,,,x
103,0,Presentation,2,00910960530fa_sunaofikylqtxphvdem.jpg,00931960627fa_sunaptrqvaooxfvktvw.jpg,00910960530fa.jpg,sunaofikylqtxphvdem.jpg,00931960627fa.jpg,sunaptrqvaooxfvktvw.jpg,,,>,Place,,,,,1,,,,,,,o
104,0,Presentation,2,00887960530_sunalcrtwiycqobgelp.jpg,00296940422fa_sunabrwnslxalcohfre.jpg,00887960530.jpg,sunalcrtwiycqobgelp.jpg,00296940422fa.jpg,sunabrwnslxalcohfre.jpg,,,<,Place,,,,,1,,,,,,,o
105,0,Presentation,2,00862940307fa_sunaizgnnplsvajzhkc.jpg,00210940128fb_sunabanoxjtqxamkucc.jpg,00862940307fa.jpg,sunaizgnnplsvajzhkc.jpg,00210940128fb.jpg,sunabanoxjtqxamkucc.jpg,,,>,Place,,,,,1,,,,,,,x
106,0,Presentation,2,00562941031fa_sunacjnahdmqfnjfwqx.jpg,00705941205fa_sunadtlxenqqxsyjvix.jpg,00562941031fa.jpg,sunacjnahdmqfnjfwqx.jpg,00705941205fa.jpg,sunadtlxenqqxsyjvix.jpg,,,<,Face,,,,,1,,,,,,,x
107,0,Presentation,2,00316940422fa_sunabxmguapjekttvwm.jpg,00880960530fa_sunakmnfgklupjijsgf.jpg,00316940422fa.jpg,sunabxmguapjekttvwm.jpg,00880960530fa.jpg,sunakmnfgklupjijsgf.jpg,,,<,Place,,,,,1,,,,,,,x
108,0,Presentation,2,00811960530fa_sunahedfrhtcwpneund.jpg,00144931230fb_sunaathajvxrgptwhoj.jpg,00811960530fa.jpg,sunahedfrhtcwpneund.jpg,00144931230fb.jpg,sunaathajvxrgptwhoj.jpg,,,<,Face,,,,,1,,,,,,,x
109,0,Presentation,2,00937960627fa_sunaqsolmfydodnakub.jpg,00986960627fa_sunbgzjryivyczuvkvm.jpg,00937960627fa.jpg,sunaqsolmfydodnakub.jpg,00986960627fa.jpg,sunbgzjryivyczuvkvm.jpg,,,>,Face,,,,,0,,,,,,,x
110,0,Memory,2,,,,,,,sunbaoizrfijvhpnnjn.jpg,,,,,,,,,,,,,,,
111,0,Memory,2,,,,,,,00810941205fa.jpg,,,,,,,,,,,,,,,
112,0,Memory,2,,,,,,,00986960627fa.jpg,,,,,,,,,,,,,,,
113,0,Memory,2,,,,,,,00811960530fa.jpg,,,,,,,,,,,,,,,
114,0,Memory,2,,,,,,,00990960627fa.jpg,,,,,,,,,,,,,,,
115,0,Memory,2,,,,,,,00218940128fa.jpg,,,,,,,,,,,,,,,
116,0,Memory,2,,,,,,,00280940422fb.jpg,,,,,,,,,,,,,,,
117,0,Memory,2,,,,,,,00144931230fb.jpg,,,,,,,,,,,,,,,
118,0,Memory,2,,,,,,,sunakodkcslgqhqlgwl.jpg,,,,,,,,,,,,,,,
119,0,Memory,2,,,,,,,sunaofikylqtxphvdem.jpg,,,,,,,,,,,,,,,
120,0,Memory,2,,,,,,,sunabanoxjtqxamkucc.jpg,,,,,,,,,,,,,,,
121,0,Memory,2,,,,,,,00862940307fa.jpg,,,,,,,,,,,,,,,
122,0,Memory,2,,,,,,,00239940128fa.jpg,,,,,,,,,,,,,,,
123,0,Memory,2,,,,,,,00848940307fa.jpg,,,,,,,,,,,,,,,
124,0,Memory,2,,,,,,,00910960530fa.jpg,,,,,,,,,,,,,,,
125,0,Memory,2,,,,,,,sunaaxjpzcnxligjtjq.jpg,,,,,,,,,,,,,,,
126,0,Memory,2,,,,,,,00193940928fa.jpg,,,,,,,,,,,,,,,
127,0,Memory,2,,,,,,,sunabctlikybqabezjv.jpg,,,,,,,,,,,,,,,
128,0,Memory,2,,,,,,,00969960627fa.jpg,,,,,,,,,,,,,,,
129,0,Memory,2,,,,,,,sunaathajvxrgptwhoj.jpg,,,,,,,,,,,,,,,
130,0,Memory,2,,,,,,,sunbgzjryivyczuvkvm.jpg,,,,,,,,,,,,,,,
131,0,Memory,2,,,,,,,00210940128fb.jpg,,,,,,,,,,,,,,,
132,0,Memory,2,,,,,,,sunahmhrncocyhsjpxk.jpg,,,,,,,,,,,,,,,
133,0,Memory,2,,,,,,,sunahedfrhtcwpneund.jpg,,,,,,,,,,,,,,,
134,0,Memory,2,,,,,,,00816941205fa.jpg,,,,,,,,,,,,,,,
135,0,Memory,2,,,,,,,sunahctntqrunhdxhtb.jpg,,,,,,,,,,,,,,,
136,0,Memory,2,,,,,,,sunaizgnnplsvajzhkc.jpg,,,,,,,,,,,,,,,
137,0,Memory,2,,,,,,,sunabohxbskznglnrhv.jpg,,,,,,,,,,,,,,,
138,0,Memory,2,,,,,,,sunabbwggenhfbftyvi.jpg,,,,,,,,,,,,,,,
139,0,Memory,2,,,,,,,00884960530fa.jpg,,,,,,,,,,,,,,,
140,0,Memory,2,,,,,,,00788941205fa.jpg,,,,,,,,,,,,,,,
141,0,Memory,2,,,,,,,00887960530.jpg,,,,,,,,,,,,,,,
142,0,Memory,2,,,,,,,sunapwjkcxdaeqehfql.jpg,,,,,,,,,,,,,,,
143,0,Memory,2,,,,,,,00933960627fa.jpg,,,,,,,,,,,,,,,
144,0,Memory,2,,,,,,,sunakmnfgklupjijsgf.jpg,,,,,,,,,,,,,,,
145,0,Memory,2,,,,,,,sunbpflsdaxnddnwcqi.jpg,,,,,,,,,,,,,,,
146,0,Memory,2,,,,,,,sunagountlxpzkytsmp.jpg,,,,,,,,,,,,,,,
147,0,Memory,2,,,,,,,sunalcrtwiycqobgelp.jpg,,,,,,,,,,,,,,,
148,0,Memory,2,,,,,,,00880960530fa.jpg,,,,,,,,,,,,,,,
149,0,Memory,2,,,,,,,sunaivdylrawbmhryfp.jpg,,,,,,,,,,,,,,,
150,0,Presentation,3,00589940928fa_sunacwggadqsfpovdjv.jpg,00705960530fa_sunaduslxfzlbxlllnz.jpg,00589940928fa.jpg,sunacwggadqsfpovdjv.jpg,00705960530fa.jpg,sunaduslxfzlbxlllnz.jpg,,,>,Place,,,,,1,,,,,,,o
151,0,Presentation,3,00905960530fa_sunanmoqeyprjjjfxjt.jpg,01007960627fa_sunbxarcshsnqsefemx.jpg,00905960530fa.jpg,sunanmoqeyprjjjfxjt.jpg,01007960627fa.jpg,sunbxarcshsnqsefemx.jpg,,,>,Face,,,,,1,,,,,,,o
152,0,Presentation,3,00955960627fb_sunauburywlkjszngcq.jpg,00082931230fa_sunaafvitpexrpvumsa.jpg,00955960627fb.jpg,sunauburywlkjszngcq.jpg,00082931230fa.jpg,sunaafvitpexrpvumsa.jpg,,,>,Place,,,,,1,,,,,,,x
153,0,Presentation,3,00785941205fa_sunaglqunwuycxydmyu.jpg,00959960627fa_sunavxokzybtomhbmvm.jpg,00785941205fa.jpg,sunaglqunwuycxydmyu.jpg,00959960627fa.jpg,sunavxokzybtomhbmvm.jpg,,,<,Place,,,,,0,,,,,,,x
154,0,Presentation,3,01009960627fa_sunbxzweleltykebgan.jpg,00124931230fa_sunaalhlvzmjmitybdn.jpg,01009960627fa.jpg,sunbxzweleltykebgan.jpg,00124931230fa.jpg,sunaalhlvzmjmitybdn.jpg,,,>,Face,,,,,1,,,,,,,x
155,0,Presentation,3,00772941201fa_sunafpfpiiujzoesnqg.jpg,00647941031fa_sunadflbrkckmepztql.jpg,00772941201fa.jpg,sunafpfpiiujzoesnqg.jpg,00647941031fa.jpg,sunadflbrkckmepztql.jpg,,,<,Place,,,,,0,,,,,,,o
156,0,Presentation,3,00242940128fa_sunabcuurugvxwparpk.jpg,00214940128fa_sunabbafjowbzcvbucc.jpg,00242940128fa.jpg,sunabcuurugvxwparpk.jpg,00214940128fa.jpg,sunabbafjowbzcvbucc.jpg,,,<,Face,,,,,1,,,,,,,x
157,0,Presentation,3,00871940307_sunajrujcsdxmfbssmc.jpg,00744941201fa_sunaeomlfaabhpswasy.jpg,00871940307.jpg,sunajrujcsdxmfbssmc.jpg,00744941201fa.jpg,sunaeomlfaabhpswasy.jpg,,,>,Face,,,,,1,,,,,,,x
158,0,Presentation,3,00754941201fa_sunaffgsyyvoqdlkmnk.jpg,00857940307fa_sunaiwfobocrruqznsv.jpg,00754941201fa.jpg,sunaffgsyyvoqdlkmnk.jpg,00857940307fa.jpg,sunaiwfobocrruqznsv.jpg,,,<,Face,,,,,1,,,,,,,o
159,0,Presentation,3,00185940422fb_sunaawqdbpihmlbwyyn.jpg,00071940128fa_sunaaexpnawiehinlpy.jpg,00185940422fb.jpg,sunaawqdbpihmlbwyyn.jpg,00071940128fa.jpg,sunaaexpnawiehinlpy.jpg,,,<,Place,,,,,1,,,,,,,x
160,0,Memory,3,,,,,,,00146960620fb.jpg,,,,,,,,,,,,,,,
161,0,Memory,3,,,,,,,00785941205fa.jpg,,,,,,,,,,,,,,,
162,0,Memory,3,,,,,,,sunaglqunwuycxydmyu.jpg,,,,,,,,,,,,,,,
163,0,Memory,3,,,,,,,00760960620fa.jpg,,,,,,,,,,,,,,,
164,0,Memory,3,,,,,,,sunaakxjfbrrequcjmx.jpg,,,,,,,,,,,,,,,
165,0,Memory,3,,,,,,,00705960530fa.jpg,,,,,,,,,,,,,,,
166,0,Memory,3,,,,,,,sunaatpeezlljqaxlhj.jpg,,,,,,,,,,,,,,,
167,0,Memory,3,,,,,,,sunadfndyrtqqiasoig.jpg,,,,,,,,,,,,,,,
168,0,Memory,3,,,,,,,sunaeisnjeetzmkbuad.jpg,,,,,,,,,,,,,,,
169,0,Memory,3,,,,,,,00953960627fa.jpg,,,,,,,,,,,,,,,
170,0,Memory,3,,,,,,,sunaafvitpexrpvumsa.jpg,,,,,,,,,,,,,,,
171,0,Memory,3,,,,,,,00082931230fa.jpg,,,,,,,,,,,,,,,
172,0,Memory,3,,,,,,,sunaalhlvzmjmitybdn.jpg,,,,,,,,,,,,,,,
173,0,Memory,3,,,,,,,sunafpfpiiujzoesnqg.jpg,,,,,,,,,,,,,,,
174,0,Memory,3,,,,,,,00162931230fb.jpg,,,,,,,,,,,,,,,
175,0,Memory,3,,,,,,,00124931230fa.jpg,,,,,,,,,,,,,,,
176,0,Memory,3,,,,,,,sunacwggadqsfpovdjv.jpg,,,,,,,,,,,,,,,
177,0,Memory,3,,,,,,,sunafbwnojpqeyzssoe.jpg,,,,,,,,,,,,,,,
178,0,Memory,3,,,,,,,00727941205fa.jpg,,,,,,,,,,,,,,,
179,0,Memory,3,,,,,,,01009960627fa.jpg,,,,,,,,,,,,,,,
180,0,Memory,3,,,,,,,sunaduslxfzlbxlllnz.jpg,,,,,,,,,,,,,,,
181,0,Memory,3,,,,,,,00130931230fa.jpg,,,,,,,,,,,,,,,
182,0,Memory,3,,,,,,,sunaffstbkappprzxnv.jpg,,,,,,,,,,,,,,,
183,0,Memory,3,,,,,,,sunatstrpjxhvtbaczf.jpg,,,,,,,,,,,,,,,
184,0,Memory,3,,,,,,,00122931230fa.jpg,,,,,,,,,,,,,,,
185,0,Memory,3,,,,,,,sunbxzweleltykebgan.jpg,,,,,,,,,,,,,,,
186,0,Memory,3,,,,,,,00149931230fa.jpg,,,,,,,,,,,,,,,
187,0,Memory,3,,,,,,,sunaamvxnvouicstkjb.jpg,,,,,,,,,,,,,,,
188,0,Memory,3,,,,,,,sunaavjinpnkappuonm.jpg,,,,,,,,,,,,,,,
189,0,Memory,3,,,,,,,00071940128fa.jpg,,,,,,,,,,,,,,,
190,0,Memory,3,,,,,,,sunaiwfobocrruqznsv.jpg,,,,,,,,,,,,,,,
191,0,Memory,3,,,,,,,00772941201fa.jpg,,,,,,,,,,,,,,,
192,0,Memory,3,,,,,,,00752960620fa.jpg,,,,,,,,,,,,,,,
193,0,Memory,3,,,,,,,sunanmoqeyprjjjfxjt.jpg,,,,,,,,,,,,,,,
194,0,Memory,3,,,,,,,00648941031fa.jpg,,,,,,,,,,,,,,,
195,0,Memory,3,,,,,,,00905960530fa.jpg,,,,,,,,,,,,,,,
196,0,Memory,3,,,,,,,sunaauglwmctnkxyird.jpg,,,,,,,,,,,,,,,
197,0,Memory,3,,,,,,,00589940928fa.jpg,,,,,,,,,,,,,,,
198,0,Memory,3,,,,,,,sunaaexpnawiehinlpy.jpg,,,,,,,,,,,,,,,
199,0,Memory,3,,,,,,,00857940307fa.jpg,,,,,,,,,,,,,,,
200,0,Presentation,4,00761960627fa_sunafgdqbclkwfocdhg.jpg,00825940307fa_sunahrltmuwbiehihpe.jpg,00761960627fa.jpg,sunafgdqbclkwfocdhg.jpg,00825940307fa.jpg,sunahrltmuwbiehihpe.jpg,,,>,Face,,,,,1,,,,,,,o
201,0,Presentation,4,00787941205fa_sunagmwxxwymwojbvgi.jpg,00961960627fa_sunawotxrevnqvamsfp.jpg,00787941205fa.jpg,sunagmwxxwymwojbvgi.jpg,00961960627fa.jpg,sunawotxrevnqvamsfp.jpg,,,<,Face,,,,,1,,,,,,,x
202,0,Presentation,4,00966960627fa_sunaygrtwrwfezqjizr.jpg,00851940307fa_sunaivflshbyfrfzhqb.jpg,00966960627fa.jpg,sunaygrtwrwfezqjizr.jpg,00851940307fa.jpg,sunaivflshbyfrfzhqb.jpg,,,<,Place,,,,,1,,,,,,,x
203,0,Presentation,4,00581940928fa_sunacvzhvcksnwqcqbw.jpg,00635941031fa_sunaddsaeicthrfbkhe.jpg,00581940928fa.jpg,sunacvzhvcksnwqcqbw.jpg,00635941031fa.jpg,sunaddsaeicthrfbkhe.jpg,,,<,Face,,,,,1,,,,,,,x
204,0,Presentation,4,00158931230fb_sunaavchcbptaerhcfy.jpg,00778941205fa_sunagcthdfirrcawoic.jpg,00158931230fb.jpg,sunaavchcbptaerhcfy.jpg,00778941205fa.jpg,sunagcthdfirrcawoic.jpg,,,<,Place,,,,,1,,,,,,,o
205,0,Presentation,4,00999960627fa_sunbvbrvgbpanfrawft.jpg,00900960530fa_sunamlotskmmsjeogby.jpg,00999960627fa.jpg,sunbvbrvgbpanfrawft.jpg,00900960530fa.jpg,sunamlotskmmsjeogby.jpg,,,>,Face,,,,,1,,,,,,,x
206,0,Presentation,4,00911960530fa_sunaooaqzputrowwbsw.jpg,00983960627fa_sunbfyvfqiimvdaxlqn.jpg,00911960530fa.jpg,sunaooaqzputrowwbsw.jpg,00983960627fa.jpg,sunbfyvfqiimvdaxlqn.jpg,,,<,Place,,,,,1,,,,,,,x
207,0,Presentation,4,00818940307fa_sunahpblecxtmuzkmxb.jpg,00063931230fa_sunaaelyvurpntclgau.jpg,00818940307fa.jpg,sunahpblecxtmuzkmxb.jpg,00063931230fa.jpg,sunaaelyvurpntclgau.jpg,,,>,Place,,,,,1,,,,,,,x
208,0,Presentation,4,00970960627fa_sunbasypfgzjtomktmu.jpg,00145931230fb_sunaatjesvdupctftmn.jpg,00970960627fa.jpg,sunbasypfgzjtomktmu.jpg,00145931230fb.jpg,sunaatjesvdupctftmn.jpg,,,>,Face,,,,,1,,,,,,,x
209,0,Presentation,4,00548940519fa_sunacerqowiaeoqkmsq.jpg,00073931230fa_sunaafbmtoniaasysgu.jpg,00548940519fa.jpg,sunacerqowiaeoqkmsq.jpg,00073931230fa.jpg,sunaafbmtoniaasysgu.jpg,,,>,Place,,,,,1,,,,,,,x
210,0,Memory,4,,,,,,,00966960627fa.jpg,,,,,,,,,,,,,,,
211,0,Memory,4,,,,,,,sunbasypfgzjtomktmu.jpg,,,,,,,,,,,,,,,
212,0,Memory,4,,,,,,,00548940519fa.jpg,,,,,,,,,,,,,,,
213,0,Memory,4,,,,,,,01011960627fa.jpg,,,,,,,,,,,,,,,
214,0,Memory,4,,,,,,,sunajxpkuhbizeveguy.jpg,,,,,,,,,,,,,,,
215,0,Memory,4,,,,,,,00804960530fa.jpg,,,,,,,,,,,,,,,
216,0,Memory,4,,,,,,,sunbvbrvgbpanfrawft.jpg,,,,,,,,,,,,,,,
217,0,Memory,4,,,,,,,sunajbwkywmsqkldfml.jpg,,,,,,,,,,,,,,,
218,0,Memory,4,,,,,,,sunacerqowiaeoqkmsq.jpg,,,,,,,,,,,,,,,
219,0,Memory,4,,,,,,,00787941205fa.jpg,,,,,,,,,,,,,,,
220,0,Memory,4,,,,,,,sunagmwxxwymwojbvgi.jpg,,,,,,,,,,,,,,,
221,0,Memory,4,,,,,,,sunammbnoambmhdxdwd.jpg,,,,,,,,,,,,,,,
222,0,Memory,4,,,,,,,sunahrltmuwbiehihpe.jpg,,,,,,,,,,,,,,,
223,0,Memory,4,,,,,,,00138931230fa.jpg,,,,,,,,,,,,,,,
224,0,Memory,4,,,,,,,00970960627fa.jpg,,,,,,,,,,,,,,,
225,0,Memory,4,,,,,,,sunagwswhkvnsmuszlz.jpg,,,,,,,,,,,,,,,
226,0,Memory,4,,,,,,,sunadrmfzmstgdjdcod.jpg,,,,,,,,,,,,,,,
227,0,Memory,4,,,,,,,00635941031fa.jpg,,,,,,,,,,,,,,,
228,0,Memory,4,,,,,,,00778941205fa.jpg,,,,,,,,,,,,,,,
229,0,Memory,4,,,,,,,00900960530fa.jpg,,,,,,,,,,,,,,,
230,0,Memory,4,,,,,,,sunamlotskmmsjeogby.jpg,,,,,,,,,,,,,,,
231,0,Memory,4,,,,,,,sunawotxrevnqvamsfp.jpg,,,,,,,,,,,,,,,
232,0,Memory,4,,,,,,,00961960627fa.jpg,,,,,,,,,,,,,,,
233,0,Memory,4,,,,,,,sunaddsaeicthrfbkhe.jpg,,,,,,,,,,,,,,,
234,0,Memory,4,,,,,,,00999960627fa.jpg,,,,,,,,,,,,,,,
235,0,Memory,4,,,,,,,sunahbvlpavurqoxdeq.jpg,,,,,,,,,,,,,,,
236,0,Memory,4,,,,,,,00944960627fa.jpg,,,,,,,,,,,,,,,
237,0,Memory,4,,,,,,,00825940307fa.jpg,,,,,,,,,,,,,,,
238,0,Memory,4,,,,,,,00866940307fa.jpg,,,,,,,,,,,,,,,
239,0,Memory,4,,,,,,,sundahdxwmcdluscvot.jpg,,,,,,,,,,,,,,,
240,0,Memory,4,,,,,,,00838940307fa.jpg,,,,,,,,,,,,,,,
241,0,Memory,4,,,,,,,sunagcthdfirrcawoic.jpg,,,,,,,,,,,,,,,
242,0,Memory,4,,,,,,,sunaygrtwrwfezqjizr.jpg,,,,,,,,,,,,,,,
243,0,Memory,4,,,,,,,00877960530fa.jpg,,,,,,,,,,,,,,,
244,0,Memory,4,,,,,,,sunaapfaivxqoynnwwp.jpg,,,,,,,,,,,,,,,
245,0,Memory,4,,,,,,,00694941121fa.jpg,,,,,,,,,,,,,,,
246,0,Memory,4,,,,,,,00809960620fa.jpg,,,,,,,,,,,,,,,
247,0,Memory,4,,,,,,,sunasbbntuiheekqyaq.jpg,,,,,,,,,,,,,,,
248,0,Memory,4,,,,,,,sunaiozxhxgtfrmoagh.jpg,,,,,,,,,,,,,,,
249,0,Memory,4,,,,,,,00901960530fa.jpg,,,,,,,,,,,,,,,
250,0,Presentation,5,00507940519fa_sunacacflqoyxhsqzhe.jpg,00929960627fa_sunaprnrbmgkomdbchr.jpg,00507940519fa.jpg,sunacacflqoyxhsqzhe.jpg,00929960627fa.jpg,sunaprnrbmgkomdbchr.jpg,,,>,Place,,,,,1,,,,,,,x
251,0,Presentation,5,00800941205fb_sunagvjurcwdbixvnyi.jpg,00140931230fb_sunaapllqyqlykszopd.jpg,00800941205fb.jpg,sunagvjurcwdbixvnyi.jpg,00140931230fb.jpg,sunaapllqyqlykszopd.jpg,,,>,Place,,,,,1,,,,,,,o
252,0,Presentation,5,00308940422fb_sunabwfvcqqidycwypa.jpg,00779941205fa_sunagdzlvkqtpnfxfcg.jpg,00308940422fb.jpg,sunabwfvcqqidycwypa.jpg,00779941205fa.jpg,sunagdzlvkqtpnfxfcg.jpg,,,<,Place,,,,,1,,,,,,,x
253,0,Presentation,5,00479940519fa_sunabxsbfwjccqxxzxq.jpg,00070940307fa_sunaaeplwsfslcbtojr.jpg,00479940519fa.jpg,sunabxsbfwjccqxxzxq.jpg,00070940307fa.jpg,sunaaeplwsfslcbtojr.jpg,,,>,Face,,,,,1,,,,,,,x
254,0,Presentation,5,00747941201fa_sunaeutbrtswvsozxyk.jpg,00815941205fa_sunahiphsekjihkafsl.jpg,00747941201fa.jpg,sunaeutbrtswvsozxyk.jpg,00815941205fa.jpg,sunahiphsekjihkafsl.jpg,,,<,Face,,,,,1,,,,,,,o
255,0,Presentation,5,00314940422fa_sunabwmcbaxwioksdgw.jpg,00768941205fa_sunafkmnlytenlsywia.jpg,00314940422fa.jpg,sunabwmcbaxwioksdgw.jpg,00768941205fa.jpg,sunafkmnlytenlsywia.jpg,,,>,Face,,,,,1,,,,,,,o
256,0,Presentation,5,00805941205fa_sunagwzdbtlixdhgolm.jpg,00847940307fa_sunaivdjruhkrfywfed.jpg,00805941205fa.jpg,sunagwzdbtlixdhgolm.jpg,00847940307fa.jpg,sunaivdjruhkrfywfed.jpg,,,<,Place,,,,,1,,,,,,,x
257,0,Presentation,5,00774941201fa_sunafvtpfczkzopbgue.jpg,00065931230fb_sunaaemixhfquhnxxlm.jpg,00774941201fa.jpg,sunafvtpfczkzopbgue.jpg,00065931230fb.jpg,sunaaemixhfquhnxxlm.jpg,,,>,Face,,,,,1,,,,,,,o
258,0,Presentation,5,00700941121fa_sunadsgmtznewzyasnk.jpg,00276940422fa_sunabmytpyhsgigllxu.jpg,00700941121fa.jpg,sunadsgmtznewzyasnk.jpg,00276940422fa.jpg,sunabmytpyhsgigllxu.jpg,,,<,Face,,,,,1,,,,,,,x
259,0,Presentation,5,00081941031fa_sunaaftlyfudyzuhqzf.jpg,00795941205fa_sunagtumacdlmciqamz.jpg,00081941031fa.jpg,sunaaftlyfudyzuhqzf.jpg,00795941205fa.jpg,sunagtumacdlmciqamz.jpg,,,<,Place,,,,,1,,,,,,,x
260,0,Memory,5,,,,,,,00929960627fa.jpg,,,,,,,,,,,,,,,
261,0,Memory,5,,,,,,,sunabzuqsrgcsonqlkz.jpg,,,,,,,,,,,,,,,
262,0,Memory,5,,,,,,,sunaloffvbvysigxent.jpg,,,,,,,,,,,,,,,
263,0,Memory,5,,,,,,,00108960530fa.jpg,,,,,,,,,,,,,,,
264,0,Memory,5,,,,,,,sunaahedjlmtqekgyvj.jpg,,,,,,,,,,,,,,,
265,0,Memory,5,,,,,,,00598941031fa.jpg,,,,,,,,,,,,,,,
266,0,Memory,5,,,,,,,sunacacflqoyxhsqzhe.jpg,,,,,,,,,,,,,,,
267,0,Memory,5,,,,,,,sunagtumacdlmciqamz.jpg,,,,,,,,,,,,,,,
268,0,Memory,5,,,,,,,00700941121fa.jpg,,,,,,,,,,,,,,,
269,0,Memory,5,,,,,,,00507940519fa.jpg,,,,,,,,,,,,,,,
270,0,Memory,5,,,,,,,sunaeutbrtswvsozxyk.jpg,,,,,,,,,,,,,,,
271,0,Memory,5,,,,,,,00211940128fa.jpg,,,,,,,,,,,,,,,
272,0,Memory,5,,,,,,,00952960627fa.jpg,,,,,,,,,,,,,,,
273,0,Memory,5,,,,,,,00747941201fa.jpg,,,,,,,,,,,,,,,
274,0,Memory,5,,,,,,,00133931230fa.jpg,,,,,,,,,,,,,,,
275,0,Memory,5,,,,,,,sunathzzbcwjykldrem.jpg,,,,,,,,,,,,,,,
276,0,Memory,5,,,,,,,00076931230fa.jpg,,,,,,,,,,,,,,,
277,0,Memory,5,,,,,,,00893960530Fa.jpg,,,,,,,,,,,,,,,
278,0,Memory,5,,,,,,,00505960627fa.jpg,,,,,,,,,,,,,,,
279,0,Memory,5,,,,,,,sunaanlwnpqndclffxt.jpg,,,,,,,,,,,,,,,
280,0,Memory,5,,,,,,,sunaprnrbmgkomdbchr.jpg,,,,,,,,,,,,,,,
281,0,Memory,5,,,,,,,sunagvjurcwdbixvnyi.jpg,,,,,,,,,,,,,,,
282,0,Memory,5,,,,,,,sunabasphceswhwwqvv.jpg,,,,,,,,,,,,,,,
283,0,Memory,5,,,,,,,sunaajtnvzzpsjdzres.jpg,,,,,,,,,,,,,,,
284,0,Memory,5,,,,,,,sunagutjvdvnhxejerz.jpg,,,,,,,,,,,,,,,
285,0,Memory,5,,,,,,,sunagdzlvkqtpnfxfcg.jpg,,,,,,,,,,,,,,,
286,0,Memory,5,,,,,,,00847940307fa.jpg,,,,,,,,,,,,,,,
287,0,Memory,5,,,,,,,sunaafewhewbxmjiurz.jpg,,,,,,,,,,,,,,,
288,0,Memory,5,,,,,,,00800941205fb.jpg,,,,,,,,,,,,,,,
289,0,Memory,5,,,,,,,00276940422fa.jpg,,,,,,,,,,,,,,,
290,0,Memory,5,,,,,,,00090931230fa.jpg,,,,,,,,,,,,,,,
291,0,Memory,5,,,,,,,00795941205fa.jpg,,,,,,,,,,,,,,,
292,0,Memory,5,,,,,,,sunacxtcahkymosigud.jpg,,,,,,,,,,,,,,,
293,0,Memory,5,,,,,,,sunabmytpyhsgigllxu.jpg,,,,,,,,,,,,,,,
294,0,Memory,5,,,,,,,sunaivdjruhkrfywfed.jpg,,,,,,,,,,,,,,,
295,0,Memory,5,,,,,,,00799941205fa.jpg,,,,,,,,,,,,,,,
296,0,Memory,5,,,,,,,00779941205fa.jpg,,,,,,,,,,,,,,,
297,0,Memory,5,,,,,,,sunafvtpfczkzopbgue.jpg,,,,,,,,,,,,,,,
298,0,Memory,5,,,,,,,sunadsgmtznewzyasnk.jpg,,,,,,,,,,,,,,,
299,0,Memory,5,,,,,,,00774941201fa.jpg,,,,,,,,,,,,,,,
300,0,Presentation,6,00827940307fa_sunahtfxgsrmkiulnwk.jpg,00543940519fa_sunacepzfrmtkiqonpy.jpg,00827940307fa.jpg,sunahtfxgsrmkiulnwk.jpg,00543940519fa.jpg,sunacepzfrmtkiqonpy.jpg,,,<,Face,,,,,1,,,,,,,o
301,0,Presentation,6,00154931230fa_sunaauueuhhvklldjik.jpg,00942960627fa_sunarfdklgdnjgeqfjg.jpg,00154931230fa.jpg,sunaauueuhhvklldjik.jpg,00942960627fa.jpg,sunarfdklgdnjgeqfjg.jpg,,,>,Face,,,,,1,,,,,,,o
302,0,Presentation,6,00921960627fa_sunapqkpqdfvxlbqwyo.jpg,00949960627fb_sunasnqkkyhilqkxiqm.jpg,00921960627fa.jpg,sunapqkpqdfvxlbqwyo.jpg,00949960627fb.jpg,sunasnqkkyhilqkxiqm.jpg,,,<,Place,,,,,0,,,,,,,x
303,0,Presentation,6,00786941205fa_sunagmhildamktmqjss.jpg,00676941121fa_sunadpnqovzckyikrjo.jpg,00786941205fa.jpg,sunagmhildamktmqjss.jpg,00676941121fa.jpg,sunadpnqovzckyikrjo.jpg,,,>,Face,,,,,1,,,,,,,o
304,0,Presentation,6,00868960307fa_sunajjxttslobudoqbv.jpg,00086931230fa_sunaafynehyrzpsoaml.jpg,00868960307fa.jpg,sunajjxttslobudoqbv.jpg,00086931230fa.jpg,sunaafynehyrzpsoaml.jpg,,,<,Place,,,,,1,,,,,,,o
305,0,Presentation,6,00132931230fb_sunaanjcbzdvtvblsdy.jpg,00302940422fa_sunabtlfmiwtljmoues.jpg,00132931230fb.jpg,sunaanjcbzdvtvblsdy.jpg,00302940422fa.jpg,sunabtlfmiwtljmoues.jpg,,,>,Place,,,,,1,,,,,,,x
306,0,Presentation,6,00753941201fa_sunafcofuuzebuadceo.jpg,00235940128fb_sunabclssnoeuigtawp.jpg,00753941201fa.jpg,sunafcofuuzebuadceo.jpg,00235940128fb.jpg,sunabclssnoeuigtawp.jpg,,,>,Place,,,,,1,,,,,,,x
307,0,Presentation,6,00194940128fb_sunaayehfdqcyxggsej.jpg,00746941201fa_sunaetydippjxikifsb.jpg,00194940128fb.jpg,sunaayehfdqcyxggsej.jpg,00746941201fa.jpg,sunaetydippjxikifsb.jpg,,,<,Place,,,,,1,,,,,,,o
308,0,Presentation,6,00728941205fa_sunaejnvnpltdmhbcsi.jpg,00984960627fa_sunbfzchmomnvzhbxdg.jpg,00728941205fa.jpg,sunaejnvnpltdmhbcsi.jpg,00984960627fa.jpg,sunbfzchmomnvzhbxdg.jpg,,,>,Face,,,,,1,,,,,,,o
309,0,Presentation,6,00227940128fa_sunabckqabszusgcykj.jpg,00895960530fa_sunamczizlzavhzhpay.jpg,00227940128fa.jpg,sunabckqabszusgcykj.jpg,00895960530fa.jpg,sunamczizlzavhzhpay.jpg,,,<,Face,,,,,1,,,,,,,x
310,0,Memory,6,,,,,,,sunarfdklgdnjgeqfjg.jpg,,,,,,,,,,,,,,,
311,0,Memory,6,,,,,,,sunajjxttslobudoqbv.jpg,,,,,,,,,,,,,,,
312,0,Memory,6,,,,,,,00997960627fa.jpg,,,,,,,,,,,,,,,
313,0,Memory,6,,,,,,,00773960620fa.jpg,,,,,,,,,,,,,,,
314,0,Memory,6,,,,,,,sunaejnvnpltdmhbcsi.jpg,,,,,,,,,,,,,,,
315,0,Memory,6,,,,,,,00786941205fa.jpg,,,,,,,,,,,,,,,
316,0,Memory,6,,,,,,,sunamczizlzavhzhpay.jpg,,,,,,,,,,,,,,,
317,0,Memory,6,,,,,,,00102931230fa.jpg,,,,,,,,,,,,,,,
318,0,Memory,6,,,,,,,00676941121fa.jpg,,,,,,,,,,,,,,,
319,0,Memory,6,,,,,,,sunbdycacjfaujxitbw.jpg,,,,,,,,,,,,,,,
320,0,Memory,6,,,,,,,00125931230fa.jpg,,,,,,,,,,,,,,,
321,0,Memory,6,,,,,,,00208940128fa.jpg,,,,,,,,,,,,,,,
322,0,Memory,6,,,,,,,sunbfzchmomnvzhbxdg.jpg,,,,,,,,,,,,,,,
323,0,Memory,6,,,,,,,00728941205fa.jpg,,,,,,,,,,,,,,,
324,0,Memory,6,,,,,,,00086931230fa.jpg,,,,,,,,,,,,,,,
325,0,Memory,6,,,,,,,00633940928fa.jpg,,,,,,,,,,,,,,,
326,0,Memory,6,,,,,,,sunagmhildamktmqjss.jpg,,,,,,,,,,,,,,,
327,0,Memory,6,,,,,,,sunaazzyhbvqjpmazjq.jpg,,,,,,,,,,,,,,,
328,0,Memory,6,,,,,,,sunaafynehyrzpsoaml.jpg,,,,,,,,,,,,,,,
329,0,Memory,6,,,,,,,sunafcofuuzebuadceo.jpg,,,,,,,,,,,,,,,
330,0,Memory,6,,,,,,,sunafvsxtzaizojicxx.jpg,,,,,,,,,,,,,,,
331,0,Memory,6,,,,,,,sunadbhmrgrrpyzglxs.jpg,,,,,,,,,,,,,,,
332,0,Memory,6,,,,,,,sunadpnqovzckyikrjo.jpg,,,,,,,,,,,,,,,
333,0,Memory,6,,,,,,,sunaajspcoepticvplv.jpg,,,,,,,,,,,,,,,
334,0,Memory,6,,,,,,,00938960627fa.jpg,,,,,,,,,,,,,,,
335,0,Memory,6,,,,,,,00979960627fa.jpg,,,,,,,,,,,,,,,
336,0,Memory,6,,,,,,,00194940128fb.jpg,,,,,,,,,,,,,,,
337,0,Memory,6,,,,,,,sunaalltyvjhbzhkmvg.jpg,,,,,,,,,,,,,,,
338,0,Memory,6,,,,,,,sunaqyylsngywqzwfmx.jpg,,,,,,,,,,,,,,,
339,0,Memory,6,,,,,,,sunaangbuylfvckqqoo.jpg,,,,,,,,,,,,,,,
340,0,Memory,6,,,,,,,sunbwtlihsuptkrckid.jpg,,,,,,,,,,,,,,,
341,0,Memory,6,,,,,,,00984960627fa.jpg,,,,,,,,,,,,,,,
342,0,Memory,6,,,,,,,00942960627fa.jpg,,,,,,,,,,,,,,,
343,0,Memory,6,,,,,,,00131931230fb.jpg,,,,,,,,,,,,,,,
344,0,Memory,6,,,,,,,00895960530fa.jpg,,,,,,,,,,,,,,,
345,0,Memory,6,,,,,,,00868960307fa.jpg,,,,,,,,,,,,,,,
346,0,Memory,6,,,,,,,sunbtpilbhhbmhmeuzq.jpg,,,,,,,,,,,,,,,
347,0,Memory,6,,,,,,,01004960627fa.jpg,,,,,,,,,,,,,,,
348,0,Memory,6,,,,,,,00753941201fa.jpg,,,,,,,,,,,,,,,
349,0,Memory,6,,,,,,,sunaayehfdqcyxggsej.jpg,,,,,,,,,,,,,,,
350,0,Presentation,7,00967960627fa_sunbaejotfklekvpxcz.jpg,00892960530fa_sunalntxqqadigcletd.jpg,00967960627fa.jpg,sunbaejotfklekvpxcz.jpg,00892960530fa.jpg,sunalntxqqadigcletd.jpg,,,<,Place,,,,,1,,,,,,,x
351,0,Presentation,7,00720960620fa_sunaecpkgfewqqreqwe.jpg,00763941205fa_sunafhmnhsdurlvddpw.jpg,00720960620fa.jpg,sunaecpkgfewqqreqwe.jpg,00763941205fa.jpg,sunafhmnhsdurlvddpw.jpg,,,<,Place,,,,,1,,,,,,,x
352,0,Presentation,7,00723941201fa_sunaedtgwjvvziytspa.jpg,00266940128fb_sunabkngeblodihjvbk.jpg,00723941201fa.jpg,sunaedtgwjvvziytspa.jpg,00266940128fb.jpg,sunabkngeblodihjvbk.jpg,,,<,Place,,,,,0,,,,,,,o
353,0,Presentation,7,00294940422fb_sunabrlndkruqokhury.jpg,00751960620fa_sunaezuszgtxnmsxdbk.jpg,00294940422fb.jpg,sunabrlndkruqokhury.jpg,00751960620fa.jpg,sunaezuszgtxnmsxdbk.jpg,,,>,Face,,,,,1,,,,,,,o
354,0,Presentation,7,00780960530fa_sunagetqixeypsysbpn.jpg,01003960627fb_sunbwdrdvsweerwsdrj.jpg,00780960530fa.jpg,sunagetqixeypsysbpn.jpg,01003960627fb.jpg,sunbwdrdvsweerwsdrj.jpg,,,>,Place,,,,,1,,,,,,,o
355,0,Presentation,7,00836940307fa_sunainqelldeebvxtcz.jpg,00540940519fa_sunacdnquypmsshhsbk.jpg,00836940307fa.jpg,sunainqelldeebvxtcz.jpg,00540940519fa.jpg,sunacdnquypmsshhsbk.jpg,,,>,Face,,,,,1,,,,,,,o
356,0,Presentation,7,00598940928fa_sunacxeheuiigkcgquf.jpg,00989960627fa_sunbondbduabvijnmch.jpg,00598940928fa.jpg,sunacxeheuiigkcgquf.jpg,00989960627fa.jpg,sunbondbduabvijnmch.jpg,,,>,Place,,,,,1,,,,,,,x
357,0,Presentation,7,00869940307fa_sunajoveqhiprwqgoco.jpg,00793941205fa_sunagtjwilqjvxohypn.jpg,00869940307fa.jpg,sunajoveqhiprwqgoco.jpg,00793941205fa.jpg,sunagtjwilqjvxohypn.jpg,,,<,Face,,,,,1,,,,,,,o
358,0,Presentation,7,00675941121fa_sunadoxcchtmsxewsau.jpg,00922960627fa_sunapqkyghktgtosuuk.jpg,00675941121fa.jpg,sunadoxcchtmsxewsau.jpg,00922960627fa.jpg,sunapqkyghktgtosuuk.jpg,,,>,Face,,,,,0,,,,,,,o
359,0,Presentation,7,00835940307fa_sunaijsqpvodplbwxkf.jpg,00972960627fa_sunbbfqwjpdxniyhies.jpg,00835940307fa.jpg,sunaijsqpvodplbwxkf.jpg,00972960627fa.jpg,sunbbfqwjpdxniyhies.jpg,,,<,Face,,,,,1,,,,,,,o
360,0,Memory,7,,,,,,,sunaijsqpvodplbwxkf.jpg,,,,,,,,,,,,,,,
361,0,Memory,7,,,,,,,00120931230fa.jpg,,,,,,,,,,,,,,,
362,0,Memory,7,,,,,,,00967960627fa.jpg,,,,,,,,,,,,,,,
363,0,Memory,7,,,,,,,00835940307fa.jpg,,,,,,,,,,,,,,,
364,0,Memory,7,,,,,,,00743941201fa.jpg,,,,,,,,,,,,,,,
365,0,Memory,7,,,,,,,sunaeoghzrjarigmwua.jpg,,,,,,,,,,,,,,,
366,0,Memory,7,,,,,,,sunbbegcweqnetpdlrh.jpg,,,,,,,,,,,,,,,
367,0,Memory,7,,,,,,,00598940928fa.jpg,,,,,,,,,,,,,,,
368,0,Memory,7,,,,,,,suncnkvbhypnivcohyx.jpg,,,,,,,,,,,,,,,
369,0,Memory,7,,,,,,,sunabrlndkruqokhury.jpg,,,,,,,,,,,,,,,
370,0,Memory,7,,,,,,,00540940519fa.jpg,,,,,,,,,,,,,,,
371,0,Memory,7,,,,,,,00882960530fa.jpg,,,,,,,,,,,,,,,
372,0,Memory,7,,,,,,,sunaecpkgfewqqreqwe.jpg,,,,,,,,,,,,,,,
373,0,Memory,7,,,,,,,00266940128fb.jpg,,,,,,,,,,,,,,,
374,0,Memory,7,,,,,,,sunapqkyghktgtosuuk.jpg,,,,,,,,,,,,,,,
375,0,Memory,7,,,,,,,sunacxeheuiigkcgquf.jpg,,,,,,,,,,,,,,,
376,0,Memory,7,,,,,,,sunaatpkocdkocwxpkb.jpg,,,,,,,,,,,,,,,
377,0,Memory,7,,,,,,,00971960627fa.jpg,,,,,,,,,,,,,,,
378,0,Memory,7,,,,,,,00650941031fa.jpg,,,,,,,,,,,,,,,
379,0,Memory,7,,,,,,,00972960627fa.jpg,,,,,,,,,,,,,,,
380,0,Memory,7,,,,,,,sunaezuszgtxnmsxdbk.jpg,,,,,,,,,,,,,,,
381,0,Memory,7,,,,,,,00878960530fa.jpg,,,,,,,,,,,,,,,
382,0,Memory,7,,,,,,,00147931230fb.jpg,,,,,,,,,,,,,,,
383,0,Memory,7,,,,,,,01002960627fb.jpg,,,,,,,,,,,,,,,
384,0,Memory,7,,,,,,,sunaakxgygjfqrzpyoz.jpg,,,,,,,,,,,,,,,
385,0,Memory,7,,,,,,,00720960620fa.jpg,,,,,,,,,,,,,,,
386,0,Memory,7,,,,,,,sunbaejotfklekvpxcz.jpg,,,,,,,,,,,,,,,
387,0,Memory,7,,,,,,,00891960530fa.jpg,,,,,,,,,,,,,,,
388,0,Memory,7,,,,,,,sunacdnquypmsshhsbk.jpg,,,,,,,,,,,,,,,
389,0,Memory,7,,,,,,,sunaknlirqjqiwbbeeg.jpg,,,,,,,,,,,,,,,
390,0,Memory,7,,,,,,,sunakgbnzxmfohgehnu.jpg,,,,,,,,,,,,,,,
391,0,Memory,7,,,,,,,sunadikxpvqeabxrvvc.jpg,,,,,,,,,,,,,,,
392,0,Memory,7,,,,,,,00922960627fa.jpg,,,,,,,,,,,,,,,
393,0,Memory,7,,,,,,,00751960620fa.jpg,,,,,,,,,,,,,,,
394,0,Memory,7,,,,,,,sunbwaafjdebjzttuvq.jpg,,,,,,,,,,,,,,,
395,0,Memory,7,,,,,,,00294940422fb.jpg,,,,,,,,,,,,,,,
396,0,Memory,7,,,,,,,sunalkiibhqpxfamlll.jpg,,,,,,,,,,,,,,,
397,0,Memory,7,,,,,,,sunabkngeblodihjvbk.jpg,,,,,,,,,,,,,,,
398,0,Memory,7,,,,,,,01010960627fa.jpg,,,,,,,,,,,,,,,
399,0,Memory,7,,,,,,,sunbbfqwjpdxniyhies.jpg,,,,,,,,,,,,,,,
