,Subject,Trial Type,Run,Cued Composite,Uncued Composite,Cued Face,Cued Place,Uncued Face,Uncued Place,Memory Image,Category,Cued Side,Cued Category,Attention Reaction Time (s),Familiarity Reaction Time (s),Familiarity Rating,Attention Level,Cue Validity,Post Invalid Cue,Pre Invalid Cue,Attention Button,Rating History,Stimulus Onset,Stimulus End,Attention Probe
360,24,Memory,7,,,,,,,sunabanoxjtqxamkucc.jpg,,,,,0.0,,,,,,,,1539781211.917111,1539781214.250972,
361,24,Memory,7,,,,,,,00648941031fa.jpg,,,,,0.887,1.0,,,,,,,1539781215.718304,1539781218.152409,
362,24,Memory,7,,,,,,,sunadbhmrgrrpyzglxs.jpg,,,,,0.469,1.0,,,,,,,1539781219.619848,1539781221.969702,
363,24,Memory,7,,,,,,,00633940928fa.jpg,,,,,1.121,1.0,,,,,,,1539781223.403909,1539781225.754758,
364,24,Memory,7,,,,,,,00749941201fa.jpg,,,,,1.37,1.0,,,,,,,1539781227.237929,1539781229.790768,
365,24,Memory,7,,,,,,,sunadakkdovnuzlycvp.jpg,,,,,1.436,1.0,,,,,,,1539781231.188799,1539781233.640339,
366,24,Memory,7,,,,,,,00926960627Fa.jpg,,,,,1.487,1.0,,,,,,,1539781234.991563,1539781237.458041,
367,24,Memory,7,,,,,,,sunaivflshbyfrfzhqb.jpg,,,,,1.418,1.0,,,,,,,1539781238.858473,1539781241.477168,
368,24,Memory,7,,,,,,,sunaygrtwrwfezqjizr.jpg,,,,,1.337,1.0,,,,,,,1539781242.926858,1539781245.228704,
369,24,Memory,7,,,,,,,00077931230fb.jpg,,,,,0.886,1.0,,,,,,,1539781246.611447,1539781249.111398,
370,24,Memory,7,,,,,,,00742941201fa.jpg,,,,,1.522,1.0,,,,,,,1539781250.545569,1539781252.92954,
371,24,Memory,7,,,,,,,sunaafgqutfaishsxyu.jpg,,,,,1.202,1.0,,,,,,,1539781254.413733,1539781256.814592,
372,24,Memory,7,,,,,,,00933960627fa.jpg,,,,,1.57,1.0,,,,,,,1539781258.214411,1539781260.666628,
373,24,Memory,7,,,,,,,sunavhxgmgrqsaptynb.jpg,,,,,0.934,1.0,,,,,,,1539781262.050078,1539781264.298968,
374,24,Memory,7,,,,,,,sunabkmdplkdbvxriff.jpg,,,,,1.637,1.0,,,,,,,1539781265.718109,1539781268.085097,
375,24,Memory,7,,,,,,,sunapqwoeotxshkukbh.jpg,,,,,2.103,1.0,,,,,,,1539781269.435206,1539781271.836073,
376,24,Memory,7,,,,,,,00210940128fb.jpg,,,,,0.636,1.0,,,,,,,1539781273.369669,1539781275.654252,
377,24,Memory,7,,,,,,,sunanainkqdvktzoxyl.jpg,,,,,2.168,2.0,,,,,,,1539781277.187691,1539781279.555762,
378,24,Memory,7,,,,,,,00797960620fa.jpg,,,,,0.602,1.0,,,,,,,1539781280.988927,1539781283.373109,
379,24,Memory,7,,,,,,,00265940128fb.jpg,,,,,1.438,1.0,,,,,,,1539781284.724664,1539781287.208089,
380,24,Memory,7,,,,,,,sunagdzlvkqtpnfxfcg.jpg,,,,,1.603,1.0,,,,,,,1539781288.575106,1539781290.992216,
381,24,Memory,7,,,,,,,00630941031fa.jpg,,,,,1.269,1.0,,,,,,,1539781292.392818,1539781294.827055,
382,24,Memory,7,,,,,,,sunaenwuebvlpdmntju.jpg,,,,,0.937,1.0,,,,,,,1539781296.193762,1539781298.69428,
383,24,Memory,7,,,,,,,sunaeuvjbmdpknaqqaj.jpg,,,,,0.853,1.0,,,,,,,1539781300.128958,1539781302.512935,
384,24,Memory,7,,,,,,,00631940928fa.jpg,,,,,1.103,1.0,,,,,,,1539781303.91277,1539781306.330912,
385,24,Memory,7,,,,,,,00966960627fa.jpg,,,,,0.92,1.0,,,,,,,1539781307.747198,1539781310.132354,
386,24,Memory,7,,,,,,,00903960620fa.jpg,,,,,0.786,1.0,,,,,,,1539781311.532648,1539781313.881781,
387,24,Memory,7,,,,,,,sunadbdqzigzwipuipr.jpg,,,,,1.402,3.0,,,,,,,1539781315.283183,1539781317.717973,
388,24,Memory,7,,,,,,,sunafbwnojpqeyzssoe.jpg,,,,,1.353,3.0,,,,,,,1539781319.201515,1539781321.518182,
389,24,Memory,7,,,,,,,00868960307fa.jpg,,,,,0.637,1.0,,,,,,,1539781322.935959,1539781325.337042,
390,24,Memory,7,,,,,,,sunajjxttslobudoqbv.jpg,,,,,0.0,,,,,,,,1539781326.754413,1539781329.221366,
391,24,Memory,7,,,,,,,00851940307fa.jpg,,,,,2.204,1.0,,,,,,,1539781330.70547,1539781333.138815,
392,24,Memory,7,,,,,,,00752960620fa.jpg,,,,,0.0,,,,,,,,1539781334.539819,1539781336.872801,
393,24,Memory,7,,,,,,,00957960627fa.jpg,,,,,1.587,2.0,,,,,,,1539781338.223996,1539781340.541097,
394,24,Memory,7,,,,,,,sunapwjkcxdaeqehfql.jpg,,,,,1.284,3.0,,,,,,,1539781342.108172,1539781344.443264,
395,24,Memory,7,,,,,,,sunabrwnslxalcohfre.jpg,,,,,1.07,1.0,,,,,,,1539781345.927237,1539781348.360431,
396,24,Memory,7,,,,,,,sunagufzbeteqdjxais.jpg,,,,,1.286,1.0,,,,,,,1539781349.745505,1539781352.228884,
397,24,Memory,7,,,,,,,sunadfndyrtqqiasoig.jpg,,,,,0.0,,,,,,,,1539781353.645845,1539781356.030046,
398,24,Memory,7,,,,,,,00296940422fa.jpg,,,,,1.954,1.0,,,,,,,1539781357.430333,1539781359.748098,
399,24,Memory,7,,,,,,,00779941205fa.jpg,,,,,2.289,1.0,,,,,,,1539781361.164541,1539781363.565244,
