,Subject,Trial Type,Run,Cued Composite,Uncued Composite,Cued Face,Cued Place,Uncued Face,Uncued Place,Memory Image,Category,Cued Side,Cued Category,Attention Reaction Time (s),Familiarity Reaction Time (s),Familiarity Rating,Attention Level,Cue Validity,Post Invalid Cue,Pre Invalid Cue,Attention Button,Rating History,Stimulus Onset,Stimulus End,Attention Probe
160,2,Memory,3,,,,,,,00771941205fa.jpg,,,,,1.374,4.0,,,,,,,1550779997.897056,1550780000.05968,
161,2,Memory,3,,,,,,,sunapqwnqzxlsfvgsjm.jpg,,,,,0.956,1.0,,,,,,,1550780001.324819,1550780003.293058,
162,2,Memory,3,,,,,,,00871940307.jpg,,,,,1.339,1.0,,,,,,,1550780004.547325,1550780006.611034,
163,2,Memory,3,,,,,,,00925960627fa.jpg,,,,,0.953,4.0,,,,,,,1550780007.899718,1550780009.917254,
164,2,Memory,3,,,,,,,sunacsaovnjezqwbykf.jpg,,,,,1.287,4.0,,,,,,,1550780011.217286,1550780013.279734,
165,2,Memory,3,,,,,,,00290940422fa.jpg,,,,,0.807,1.0,,,,,,,1550780014.568988,1550780016.680863,
166,2,Memory,3,,,,,,,sunbaejotfklekvpxcz.jpg,,,,,1.349,1.0,,,,,,,1550780017.987034,1550780020.148773,
167,2,Memory,3,,,,,,,00876960620fa.jpg,,,,,1.02,4.0,,,,,,,1550780021.420447,1550780023.457971,
168,2,Memory,3,,,,,,,sunafowswglhxcsufpo.jpg,,,,,0.0,,,,,,,,1550780024.737754,1550780026.857489,
169,2,Memory,3,,,,,,,00263940128fb.jpg,,,,,0.902,4.0,,,,,,,1550780028.173252,1550780030.168624,
170,2,Memory,3,,,,,,,sunabwmcbaxwioksdgw.jpg,,,,,1.017,4.0,,,,,,,1550780031.457242,1550780033.506751,
171,2,Memory,3,,,,,,,00906960530fa.jpg,,,,,0.0,,,,,,,,1550780034.775157,1550780036.822333,
172,2,Memory,3,,,,,,,sunaeomlfaabhpswasy.jpg,,,,,0.748,4.0,,,,,,,1550780038.109423,1550780040.15503,
173,2,Memory,3,,,,,,,sunaahzooisqkwlxwoz.jpg,,,,,0.801,4.0,,,,,,,1550780041.443761,1550780043.415339,
174,2,Memory,3,,,,,,,sunaejnvnpltdmhbcsi.jpg,,,,,1.574,1.0,,,,,,,1550780044.678534,1550780046.789947,
175,2,Memory,3,,,,,,,00728941205fa.jpg,,,,,0.949,4.0,,,,,,,1550780048.063002,1550780050.109723,
176,2,Memory,3,,,,,,,00809960620fa.jpg,,,,,0.933,1.0,,,,,,,1550780051.380288,1550780053.477491,
177,2,Memory,3,,,,,,,sunajoveqhiprwqgoco.jpg,,,,,0.982,4.0,,,,,,,1550780054.747868,1550780056.710007,
178,2,Memory,3,,,,,,,sunbagfpovqwbuexqdn.jpg,,,,,1.352,4.0,,,,,,,1550780057.961206,1550780059.962802,
179,2,Memory,3,,,,,,,00742941201fa.jpg,,,,,1.608,1.0,,,,,,,1550780061.232881,1550780063.429994,
180,2,Memory,3,,,,,,,sunajrujcsdxmfbssmc.jpg,,,,,1.032,4.0,,,,,,,1550780064.701904,1550780066.835314,
181,2,Memory,3,,,,,,,00869940307fa.jpg,,,,,0.722,1.0,,,,,,,1550780068.119998,1550780070.121491,
182,2,Memory,3,,,,,,,00929960627fa.jpg,,,,,1.893,1.0,,,,,,,1550780071.403562,1550780073.516446,
183,2,Memory,3,,,,,,,00967960627fa.jpg,,,,,1.823,4.0,,,,,,,1550780074.788497,1550780076.890013,
184,2,Memory,3,,,,,,,sunabjuovqvyfuzvqwt.jpg,,,,,2.115,1.0,,,,,,,1550780078.173595,1550780080.354001,
185,2,Memory,3,,,,,,,00095931230fa.jpg,,,,,1.266,4.0,,,,,,,1550780081.656896,1550780083.719206,
186,2,Memory,3,,,,,,,00227940128fa.jpg,,,,,1.14,4.0,,,,,,,1550780084.99122,1550780087.061723,
187,2,Memory,3,,,,,,,sunantryfbloeaomfta.jpg,,,,,1.841,1.0,,,,,,,1550780088.309641,1550780090.35553,
188,2,Memory,3,,,,,,,sunajwqkfsykceonyig.jpg,,,,,1.088,1.0,,,,,,,1550780091.626779,1550780093.625437,
189,2,Memory,3,,,,,,,00564941031fa.jpg,,,,,0.958,1.0,,,,,,,1550780094.889333,1550780096.890467,
190,2,Memory,3,,,,,,,sunahbvlpavurqoxdeq.jpg,,,,,0.798,4.0,,,,,,,1550780098.163001,1550780100.191175,
191,2,Memory,3,,,,,,,sunaagcpoejbuzyvddd.jpg,,,,,0.908,4.0,,,,,,,1550780101.445793,1550780103.559148,
192,2,Memory,3,,,,,,,00089931230fa.jpg,,,,,1.783,1.0,,,,,,,1550780104.80915,1550780106.777416,
193,2,Memory,3,,,,,,,sunaprnrbmgkomdbchr.jpg,,,,,1.692,1.0,,,,,,,1550780108.082705,1550780110.42911,
194,2,Memory,3,,,,,,,00314940422fa.jpg,,,,,1.652,1.0,,,,,,,1550780111.699961,1550780113.813719,
195,2,Memory,3,,,,,,,sunabqowuarvqqcnipn.jpg,,,,,1.058,4.0,,,,,,,1550780115.066965,1550780117.113241,
196,2,Memory,3,,,,,,,sunabckqabszusgcykj.jpg,,,,,1.34,1.0,,,,,,,1550780118.385349,1550780120.520377,
197,2,Memory,3,,,,,,,sunaenwuebvlpdmntju.jpg,,,,,1.116,1.0,,,,,,,1550780121.802022,1550780123.949972,
198,2,Memory,3,,,,,,,00968960627fa.jpg,,,,,1.058,4.0,,,,,,,1550780125.237721,1550780127.220525,
199,2,Memory,3,,,,,,,00744941201fa.jpg,,,,,1.154,4.0,,,,,,,1550780128.506547,1550780130.751742,
