,Subject,Trial Type,Run,Cued Composite,Uncued Composite,Cued Face,Cued Place,Uncued Face,Uncued Place,Memory Image,Category,Cued Side,Cued Category,Attention Response Time (s),Familiarity Reaction Time (s),Familiarity Rating,Attention Level,Cue Validity,Post Invalid Cue,Pre Invalid Cue,Attention Button,Rating History,Stimulus Onset,Stimulus End,Attention Probe
0,35,Presentation,0,00999960627fa_sunbvbrvgbpanfrawft.jpg,00935960627fa_sunaqbmgkgqucajzrkp.jpg,00999960627fa.jpg,sunbvbrvgbpanfrawft.jpg,00935960627fa.jpg,sunaqbmgkgqucajzrkp.jpg,,,>,Place,,,,,1,,,,,,,o
1,35,Presentation,0,00124931230fa_sunaalhlvzmjmitybdn.jpg,00719941201fa_sunadvithllcgmfxsrn.jpg,00124931230fa.jpg,sunaalhlvzmjmitybdn.jpg,00719941201fa.jpg,sunadvithllcgmfxsrn.jpg,,,>,Place,,,,,1,,,,,,,x
2,35,Presentation,0,00264940128fb_sunabjzyxcjnmztdonj.jpg,00971960627fa_sunbbegcweqnetpdlrh.jpg,00264940128fb.jpg,sunabjzyxcjnmztdonj.jpg,00971960627fa.jpg,sunbbegcweqnetpdlrh.jpg,,,>,Place,,,,,1,,,,,,,x
3,35,Presentation,0,00142931230fb_sunaapxkpvrhpjplsok.jpg,00783941205fa_sunagjeesomrwjsfqie.jpg,00142931230fb.jpg,sunaapxkpvrhpjplsok.jpg,00783941205fa.jpg,sunagjeesomrwjsfqie.jpg,,,>,Place,,,,,1,,,,,,,o
4,35,Presentation,0,00968960627fa_sunbagfpovqwbuexqdn.jpg,00793941205fa_sunagtjwilqjvxohypn.jpg,00968960627fa.jpg,sunbagfpovqwbuexqdn.jpg,00793941205fa.jpg,sunagtjwilqjvxohypn.jpg,,,>,Place,,,,,1,,,,,,,x
5,35,Presentation,0,00931960627fa_sunaptrqvaooxfvktvw.jpg,00761960627fa_sunafgdqbclkwfocdhg.jpg,00931960627fa.jpg,sunaptrqvaooxfvktvw.jpg,00761960627fa.jpg,sunafgdqbclkwfocdhg.jpg,,,>,Place,,,,,0,,,,,,,o
6,35,Presentation,0,00901960530fa_sunammbnoambmhdxdwd.jpg,00835940307fa_sunaijsqpvodplbwxkf.jpg,00901960530fa.jpg,sunammbnoambmhdxdwd.jpg,00835940307fa.jpg,sunaijsqpvodplbwxkf.jpg,,,>,Place,,,,,1,,,,,,,x
7,35,Presentation,0,00635941031fa_sunaddsaeicthrfbkhe.jpg,00859940307fa_sunaiycurtqsfkvcaso.jpg,00635941031fa.jpg,sunaddsaeicthrfbkhe.jpg,00859940307fa.jpg,sunaiycurtqsfkvcaso.jpg,,,>,Place,,,,,1,,,,,,,o
8,35,Presentation,0,00838940307fa_sunaiozxhxgtfrmoagh.jpg,00122931230fa_sunaakxjfbrrequcjmx.jpg,00838940307fa.jpg,sunaiozxhxgtfrmoagh.jpg,00122931230fa.jpg,sunaakxjfbrrequcjmx.jpg,,,>,Place,,,,,1,,,,,,,x
9,35,Presentation,0,00947960627fa_sunasmmcxdddtmtazwx.jpg,00915960620fa_sunapileznnbbmrwoei.jpg,00947960627fa.jpg,sunasmmcxdddtmtazwx.jpg,00915960620fa.jpg,sunapileznnbbmrwoei.jpg,,,>,Place,,,,,1,,,,,,,o
10,35,Memory,0,,,,,,,00931960627fa.jpg,,,,,,,,,,,,,,,
11,35,Memory,0,,,,,,,00838940307fa.jpg,,,,,,,,,,,,,,,
12,35,Memory,0,,,,,,,sunabwmcbaxwioksdgw.jpg,,,,,,,,,,,,,,,
13,35,Memory,0,,,,,,,sunagtjwilqjvxohypn.jpg,,,,,,,,,,,,,,,
14,35,Memory,0,,,,,,,sunaaehaikpckyjsety.jpg,,,,,,,,,,,,,,,
15,35,Memory,0,,,,,,,sunaqsolmfydodnakub.jpg,,,,,,,,,,,,,,,
16,35,Memory,0,,,,,,,00060931230fa.jpg,,,,,,,,,,,,,,,
17,35,Memory,0,,,,,,,00935960627fa.jpg,,,,,,,,,,,,,,,
18,35,Memory,0,,,,,,,sunaaxjpzcnxligjtjq.jpg,,,,,,,,,,,,,,,
19,35,Memory,0,,,,,,,sunahtfxgsrmkiulnwk.jpg,,,,,,,,,,,,,,,
20,35,Memory,0,,,,,,,sunaiycurtqsfkvcaso.jpg,,,,,,,,,,,,,,,
21,35,Memory,0,,,,,,,sunaddsaeicthrfbkhe.jpg,,,,,,,,,,,,,,,
22,35,Memory,0,,,,,,,00314940422fa.jpg,,,,,,,,,,,,,,,
23,35,Memory,0,,,,,,,sunasmmcxdddtmtazwx.jpg,,,,,,,,,,,,,,,
24,35,Memory,0,,,,,,,00937960627fa.jpg,,,,,,,,,,,,,,,
25,35,Memory,0,,,,,,,00827940307fa.jpg,,,,,,,,,,,,,,,
26,35,Memory,0,,,,,,,sunanwjjyqqwzqrqagd.jpg,,,,,,,,,,,,,,,
27,35,Memory,0,,,,,,,00124931230fa.jpg,,,,,,,,,,,,,,,
28,35,Memory,0,,,,,,,sunaptrqvaooxfvktvw.jpg,,,,,,,,,,,,,,,
29,35,Memory,0,,,,,,,sunaknlirqjqiwbbeeg.jpg,,,,,,,,,,,,,,,
30,35,Memory,0,,,,,,,sunbbegcweqnetpdlrh.jpg,,,,,,,,,,,,,,,
31,35,Memory,0,,,,,,,sunaiozxhxgtfrmoagh.jpg,,,,,,,,,,,,,,,
32,35,Memory,0,,,,,,,sunabclssnoeuigtawp.jpg,,,,,,,,,,,,,,,
33,35,Memory,0,,,,,,,00947960627fa.jpg,,,,,,,,,,,,,,,
34,35,Memory,0,,,,,,,00971960627fa.jpg,,,,,,,,,,,,,,,
35,35,Memory,0,,,,,,,sunaalhlvzmjmitybdn.jpg,,,,,,,,,,,,,,,
36,35,Memory,0,,,,,,,00793941205fa.jpg,,,,,,,,,,,,,,,
37,35,Memory,0,,,,,,,sunagjeesomrwjsfqie.jpg,,,,,,,,,,,,,,,
38,35,Memory,0,,,,,,,00859940307fa.jpg,,,,,,,,,,,,,,,
39,35,Memory,0,,,,,,,00263940128fb.jpg,,,,,,,,,,,,,,,
40,35,Memory,0,,,,,,,sunaqbmgkgqucajzrkp.jpg,,,,,,,,,,,,,,,
41,35,Memory,0,,,,,,,00908960530fa.jpg,,,,,,,,,,,,,,,
42,35,Memory,0,,,,,,,sunajxpkuhbizeveguy.jpg,,,,,,,,,,,,,,,
43,35,Memory,0,,,,,,,00635941031fa.jpg,,,,,,,,,,,,,,,
44,35,Memory,0,,,,,,,00235940128fb.jpg,,,,,,,,,,,,,,,
45,35,Memory,0,,,,,,,00877960530fa.jpg,,,,,,,,,,,,,,,
46,35,Memory,0,,,,,,,sunabjuovqvyfuzvqwt.jpg,,,,,,,,,,,,,,,
47,35,Memory,0,,,,,,,00783941205fa.jpg,,,,,,,,,,,,,,,
48,35,Memory,0,,,,,,,00882960530fa.jpg,,,,,,,,,,,,,,,
49,35,Memory,0,,,,,,,00193940928fa.jpg,,,,,,,,,,,,,,,
50,35,Presentation,1,00097931230fa_sunaajayojuslbbnneg.jpg,00775941205fa_sunafvwfsmqkjrutjta.jpg,00097931230fa.jpg,sunaajayojuslbbnneg.jpg,00775941205fa.jpg,sunafvwfsmqkjrutjta.jpg,,,<,Place,,,,,1,,,,,,,x
51,35,Presentation,1,00885960530fa_sunakwlvxjpddialozd.jpg,00822940307fa_sunahqrxievfeusiqlt.jpg,00885960530fa.jpg,sunakwlvxjpddialozd.jpg,00822940307fa.jpg,sunahqrxievfeusiqlt.jpg,,,<,Place,,,,,1,,,,,,,o
52,35,Presentation,1,00800941205fb_sunagvjurcwdbixvnyi.jpg,00728941205fa_sunaejnvnpltdmhbcsi.jpg,00800941205fb.jpg,sunagvjurcwdbixvnyi.jpg,00728941205fa.jpg,sunaejnvnpltdmhbcsi.jpg,,,<,Place,,,,,1,,,,,,,x
53,35,Presentation,1,00194940128fb_sunaayehfdqcyxggsej.jpg,00829940307fa_sunahwgbqkqcrwprgvh.jpg,00194940128fb.jpg,sunaayehfdqcyxggsej.jpg,00829940307fa.jpg,sunahwgbqkqcrwprgvh.jpg,,,<,Place,,,,,0,,,,,,,x
54,35,Presentation,1,00933960627fa_sunapwjkcxdaeqehfql.jpg,00532960627fa_sunaccdtpgenvcbcbcf.jpg,00933960627fa.jpg,sunapwjkcxdaeqehfql.jpg,00532960627fa.jpg,sunaccdtpgenvcbcbcf.jpg,,,<,Place,,,,,1,,,,,,,o
55,35,Presentation,1,00819940307fa_sunahqldjibofgsfdgb.jpg,00093931230fa_sunaahwnmtqsrhocysw.jpg,00819940307fa.jpg,sunahqldjibofgsfdgb.jpg,00093931230fa.jpg,sunaahwnmtqsrhocysw.jpg,,,<,Place,,,,,1,,,,,,,o
56,35,Presentation,1,00198940128fb_sunaazezcsunmhttzxz.jpg,00479940519fa_sunabxsbfwjccqxxzxq.jpg,00198940128fb.jpg,sunaazezcsunmhttzxz.jpg,00479940519fa.jpg,sunabxsbfwjccqxxzxq.jpg,,,<,Place,,,,,1,,,,,,,o
57,35,Presentation,1,00789960620fa_sunagpancjmxqfazssf.jpg,00294940422fb_sunabrlndkruqokhury.jpg,00789960620fa.jpg,sunagpancjmxqfazssf.jpg,00294940422fb.jpg,sunabrlndkruqokhury.jpg,,,<,Place,,,,,1,,,,,,,o
58,35,Presentation,1,00077931230fb_sunaafgqutfaishsxyu.jpg,00801941205fa_sunagvprlbprarvgdvj.jpg,00077931230fb.jpg,sunaafgqutfaishsxyu.jpg,00801941205fa.jpg,sunagvprlbprarvgdvj.jpg,,,<,Place,,,,,0,,,,,,,x
59,35,Presentation,1,00950960627fa_sunasrjlmglmjzbmqxb.jpg,00638941031fa_sunadfktsqjthoglcsm.jpg,00950960627fa.jpg,sunasrjlmglmjzbmqxb.jpg,00638941031fa.jpg,sunadfktsqjthoglcsm.jpg,,,<,Place,,,,,1,,,,,,,o
60,35,Memory,1,,,,,,,00227940128fa.jpg,,,,,,,,,,,,,,,
61,35,Memory,1,,,,,,,sunbddbivbptlrlauhy.jpg,,,,,,,,,,,,,,,
62,35,Memory,1,,,,,,,00598940928fa.jpg,,,,,,,,,,,,,,,
63,35,Memory,1,,,,,,,sunasrjlmglmjzbmqxb.jpg,,,,,,,,,,,,,,,
64,35,Memory,1,,,,,,,00720960620fa.jpg,,,,,,,,,,,,,,,
65,35,Memory,1,,,,,,,00775941205fa.jpg,,,,,,,,,,,,,,,
66,35,Memory,1,,,,,,,00077931230fb.jpg,,,,,,,,,,,,,,,
67,35,Memory,1,,,,,,,sunabxsbfwjccqxxzxq.jpg,,,,,,,,,,,,,,,
68,35,Memory,1,,,,,,,00742941201fa.jpg,,,,,,,,,,,,,,,
69,35,Memory,1,,,,,,,sunafvwfsmqkjrutjta.jpg,,,,,,,,,,,,,,,
70,35,Memory,1,,,,,,,00972960627fa.jpg,,,,,,,,,,,,,,,
71,35,Memory,1,,,,,,,sunabckqabszusgcykj.jpg,,,,,,,,,,,,,,,
72,35,Memory,1,,,,,,,sunadsgmtznewzyasnk.jpg,,,,,,,,,,,,,,,
73,35,Memory,1,,,,,,,00479940519fa.jpg,,,,,,,,,,,,,,,
74,35,Memory,1,,,,,,,00532960627fa.jpg,,,,,,,,,,,,,,,
75,35,Memory,1,,,,,,,00978960627fa.jpg,,,,,,,,,,,,,,,
76,35,Memory,1,,,,,,,sunaayehfdqcyxggsej.jpg,,,,,,,,,,,,,,,
77,35,Memory,1,,,,,,,sunaccdtpgenvcbcbcf.jpg,,,,,,,,,,,,,,,
78,35,Memory,1,,,,,,,sunagvjurcwdbixvnyi.jpg,,,,,,,,,,,,,,,
79,35,Memory,1,,,,,,,sunaenwuebvlpdmntju.jpg,,,,,,,,,,,,,,,
80,35,Memory,1,,,,,,,00950960627fa.jpg,,,,,,,,,,,,,,,
81,35,Memory,1,,,,,,,00895960530fa.jpg,,,,,,,,,,,,,,,
82,35,Memory,1,,,,,,,sunbbfqwjpdxniyhies.jpg,,,,,,,,,,,,,,,
83,35,Memory,1,,,,,,,sunaafgqutfaishsxyu.jpg,,,,,,,,,,,,,,,
84,35,Memory,1,,,,,,,sunaecpkgfewqqreqwe.jpg,,,,,,,,,,,,,,,
85,35,Memory,1,,,,,,,00313940422fa.jpg,,,,,,,,,,,,,,,
86,35,Memory,1,,,,,,,00194940128fb.jpg,,,,,,,,,,,,,,,
87,35,Memory,1,,,,,,,sunaazezcsunmhttzxz.jpg,,,,,,,,,,,,,,,
88,35,Memory,1,,,,,,,00700941121fa.jpg,,,,,,,,,,,,,,,
89,35,Memory,1,,,,,,,00728941205fa.jpg,,,,,,,,,,,,,,,
90,35,Memory,1,,,,,,,00909960530.jpg,,,,,,,,,,,,,,,
91,35,Memory,1,,,,,,,sunabwjvmoaddlyxfjr.jpg,,,,,,,,,,,,,,,
92,35,Memory,1,,,,,,,sunamczizlzavhzhpay.jpg,,,,,,,,,,,,,,,
93,35,Memory,1,,,,,,,sunacxeheuiigkcgquf.jpg,,,,,,,,,,,,,,,
94,35,Memory,1,,,,,,,sunaejnvnpltdmhbcsi.jpg,,,,,,,,,,,,,,,
95,35,Memory,1,,,,,,,sunahqrxievfeusiqlt.jpg,,,,,,,,,,,,,,,
96,35,Memory,1,,,,,,,00800941205fb.jpg,,,,,,,,,,,,,,,
97,35,Memory,1,,,,,,,00198940128fb.jpg,,,,,,,,,,,,,,,
98,35,Memory,1,,,,,,,00822940307fa.jpg,,,,,,,,,,,,,,,
99,35,Memory,1,,,,,,,sunaobtizabegtwfwul.jpg,,,,,,,,,,,,,,,
100,35,Presentation,2,01005960627fa_sunbwyuesflwdpqtgoy.jpg,00306940422fa_sunabueyoajufbkraki.jpg,01005960627fa.jpg,sunbwyuesflwdpqtgoy.jpg,00306940422fa.jpg,sunabueyoajufbkraki.jpg,,,>,Face,,,,,1,,,,,,,x
101,35,Presentation,2,00891960530fa_sunalkiibhqpxfamlll.jpg,00905960530fa_sunanmoqeyprjjjfxjt.jpg,00891960530fa.jpg,sunalkiibhqpxfamlll.jpg,00905960530fa.jpg,sunanmoqeyprjjjfxjt.jpg,,,>,Face,,,,,1,,,,,,,o
102,35,Presentation,2,00119931230fb_sunaakvmbftkrgqhjun.jpg,00267940128fb_sunablfqiwfqomjarht.jpg,00119931230fb.jpg,sunaakvmbftkrgqhjun.jpg,00267940128fb.jpg,sunablfqiwfqomjarht.jpg,,,>,Face,,,,,1,,,,,,,o
103,35,Presentation,2,00086931230fa_sunaafynehyrzpsoaml.jpg,00790941205fa_sunagpjzsbltchlwvou.jpg,00086931230fa.jpg,sunaafynehyrzpsoaml.jpg,00790941205fa.jpg,sunagpjzsbltchlwvou.jpg,,,>,Face,,,,,1,,,,,,,o
104,35,Presentation,2,00564941031fa_sunacsaovnjezqwbykf.jpg,00631940928fa_sunadbdqzigzwipuipr.jpg,00564941031fa.jpg,sunacsaovnjezqwbykf.jpg,00631940928fa.jpg,sunadbdqzigzwipuipr.jpg,,,>,Face,,,,,1,,,,,,,x
105,35,Presentation,2,00818940307fa_sunahpblecxtmuzkmxb.jpg,00857940307fa_sunaiwfobocrruqznsv.jpg,00818940307fa.jpg,sunahpblecxtmuzkmxb.jpg,00857940307fa.jpg,sunaiwfobocrruqznsv.jpg,,,>,Face,,,,,1,,,,,,,x
106,35,Presentation,2,00936960627fa_sunaqgjuuwvdcyiccjt.jpg,00784941205fb_sunagjzcrjvmxzqzljx.jpg,00936960627fa.jpg,sunaqgjuuwvdcyiccjt.jpg,00784941205fb.jpg,sunagjzcrjvmxzqzljx.jpg,,,>,Face,,,,,1,,,,,,,o
107,35,Presentation,2,01009960627fa_sunbxzweleltykebgan.jpg,00197940128fa_sunaaylzyqlqrsmfwif.jpg,01009960627fa.jpg,sunbxzweleltykebgan.jpg,00197940128fa.jpg,sunaaylzyqlqrsmfwif.jpg,,,>,Face,,,,,1,,,,,,,o
108,35,Presentation,2,00133931230fa_sunaanlwnpqndclffxt.jpg,00815941205fa_sunahiphsekjihkafsl.jpg,00133931230fa.jpg,sunaanlwnpqndclffxt.jpg,00815941205fa.jpg,sunahiphsekjihkafsl.jpg,,,>,Face,,,,,1,,,,,,,o
109,35,Presentation,2,00065931230fb_sunaaemixhfquhnxxlm.jpg,00101931230fb_sunaajqmsaavkmgbsth.jpg,00065931230fb.jpg,sunaaemixhfquhnxxlm.jpg,00101931230fb.jpg,sunaajqmsaavkmgbsth.jpg,,,>,Face,,,,,1,,,,,,,o
110,35,Memory,2,,,,,,,sunaqgjuuwvdcyiccjt.jpg,,,,,,,,,,,,,,,
111,35,Memory,2,,,,,,,sunagpjzsbltchlwvou.jpg,,,,,,,,,,,,,,,
112,35,Memory,2,,,,,,,00790941205fa.jpg,,,,,,,,,,,,,,,
113,35,Memory,2,,,,,,,sunaaylzyqlqrsmfwif.jpg,,,,,,,,,,,,,,,
114,35,Memory,2,,,,,,,00197940128fa.jpg,,,,,,,,,,,,,,,
115,35,Memory,2,,,,,,,sunadbdqzigzwipuipr.jpg,,,,,,,,,,,,,,,
116,35,Memory,2,,,,,,,00483940519fa.jpg,,,,,,,,,,,,,,,
117,35,Memory,2,,,,,,,00133931230fa.jpg,,,,,,,,,,,,,,,
118,35,Memory,2,,,,,,,00065931230fb.jpg,,,,,,,,,,,,,,,
119,35,Memory,2,,,,,,,00210940128fb.jpg,,,,,,,,,,,,,,,
120,35,Memory,2,,,,,,,00751960620fa.jpg,,,,,,,,,,,,,,,
121,35,Memory,2,,,,,,,00086931230fa.jpg,,,,,,,,,,,,,,,
122,35,Memory,2,,,,,,,sunabueyoajufbkraki.jpg,,,,,,,,,,,,,,,
123,35,Memory,2,,,,,,,00811960530fa.jpg,,,,,,,,,,,,,,,
124,35,Memory,2,,,,,,,sunaapllqyqlykszopd.jpg,,,,,,,,,,,,,,,
125,35,Memory,2,,,,,,,00936960627fa.jpg,,,,,,,,,,,,,,,
126,35,Memory,2,,,,,,,sunabanoxjtqxamkucc.jpg,,,,,,,,,,,,,,,
127,35,Memory,2,,,,,,,sunahedfrhtcwpneund.jpg,,,,,,,,,,,,,,,
128,35,Memory,2,,,,,,,sunaanlwnpqndclffxt.jpg,,,,,,,,,,,,,,,
129,35,Memory,2,,,,,,,sunafkmnlytenlsywia.jpg,,,,,,,,,,,,,,,
130,35,Memory,2,,,,,,,sunaezuszgtxnmsxdbk.jpg,,,,,,,,,,,,,,,
131,35,Memory,2,,,,,,,00306940422fa.jpg,,,,,,,,,,,,,,,
132,35,Memory,2,,,,,,,sunaafynehyrzpsoaml.jpg,,,,,,,,,,,,,,,
133,35,Memory,2,,,,,,,00140931230fb.jpg,,,,,,,,,,,,,,,
134,35,Memory,2,,,,,,,sunapqkpqdfvxlbqwyo.jpg,,,,,,,,,,,,,,,
135,35,Memory,2,,,,,,,sunbloeoiozwjjsiamp.jpg,,,,,,,,,,,,,,,
136,35,Memory,2,,,,,,,00101931230fb.jpg,,,,,,,,,,,,,,,
137,35,Memory,2,,,,,,,sunabyvpwkgsjtijdwj.jpg,,,,,,,,,,,,,,,
138,35,Memory,2,,,,,,,00987960627fa.jpg,,,,,,,,,,,,,,,
139,35,Memory,2,,,,,,,00768941205fa.jpg,,,,,,,,,,,,,,,
140,35,Memory,2,,,,,,,sunaaemixhfquhnxxlm.jpg,,,,,,,,,,,,,,,
141,35,Memory,2,,,,,,,00296940422fa.jpg,,,,,,,,,,,,,,,
142,35,Memory,2,,,,,,,00631940928fa.jpg,,,,,,,,,,,,,,,
143,35,Memory,2,,,,,,,sunabrwnslxalcohfre.jpg,,,,,,,,,,,,,,,
144,35,Memory,2,,,,,,,sunaakvmbftkrgqhjun.jpg,,,,,,,,,,,,,,,
145,35,Memory,2,,,,,,,00799941205fa.jpg,,,,,,,,,,,,,,,
146,35,Memory,2,,,,,,,00119931230fb.jpg,,,,,,,,,,,,,,,
147,35,Memory,2,,,,,,,00921960627fa.jpg,,,,,,,,,,,,,,,
148,35,Memory,2,,,,,,,sunagutjvdvnhxejerz.jpg,,,,,,,,,,,,,,,
149,35,Memory,2,,,,,,,sunaajqmsaavkmgbsth.jpg,,,,,,,,,,,,,,,
150,35,Presentation,3,00290940422fa_sunabqowuarvqqcnipn.jpg,00076931230fa_sunaafewhewbxmjiurz.jpg,00290940422fa.jpg,sunabqowuarvqqcnipn.jpg,00076931230fa.jpg,sunaafewhewbxmjiurz.jpg,,,<,Face,,,,,0,,,,,,,o
151,35,Presentation,3,00809960620fa_sunahbvlpavurqoxdeq.jpg,00841940307fa_sunaisiwfgppimtnmxl.jpg,00809960620fa.jpg,sunahbvlpavurqoxdeq.jpg,00841940307fa.jpg,sunaisiwfgppimtnmxl.jpg,,,<,Face,,,,,1,,,,,,,x
152,35,Presentation,3,00292940422fb_sunabrjdpmoedcdjbpo.jpg,00071940128fa_sunaaexpnawiehinlpy.jpg,00292940422fb.jpg,sunabrjdpmoedcdjbpo.jpg,00071940128fa.jpg,sunaaexpnawiehinlpy.jpg,,,<,Face,,,,,1,,,,,,,x
153,35,Presentation,3,00898960530fa_sunamkmeblgteyggink.jpg,00116931230fa_sunaakqepfoeqomfgxf.jpg,00898960530fa.jpg,sunamkmeblgteyggink.jpg,00116931230fa.jpg,sunaakqepfoeqomfgxf.jpg,,,<,Face,,,,,1,,,,,,,o
154,35,Presentation,3,00481940519fa_sunabxsuqbleluwczoy.jpg,00633940928fa_sunadbhmrgrrpyzglxs.jpg,00481940519fa.jpg,sunabxsuqbleluwczoy.jpg,00633940928fa.jpg,sunadbhmrgrrpyzglxs.jpg,,,<,Face,,,,,1,,,,,,,x
155,35,Presentation,3,00862940307fa_sunaizgnnplsvajzhkc.jpg,00773960620fa_sunafvsxtzaizojicxx.jpg,00862940307fa.jpg,sunaizgnnplsvajzhkc.jpg,00773960620fa.jpg,sunafvsxtzaizojicxx.jpg,,,<,Face,,,,,1,,,,,,,o
156,35,Presentation,3,00993960627fa_sunbprywzqxjcezkbch.jpg,00880960530fa_sunakmnfgklupjijsgf.jpg,00993960627fa.jpg,sunbprywzqxjcezkbch.jpg,00880960530fa.jpg,sunakmnfgklupjijsgf.jpg,,,<,Face,,,,,1,,,,,,,x
157,35,Presentation,3,00280940422fb_sunabohxbskznglnrhv.jpg,00062931230fb_sunaaelotvjgibjtjhs.jpg,00280940422fb.jpg,sunabohxbskznglnrhv.jpg,00062931230fb.jpg,sunaaelotvjgibjtjhs.jpg,,,<,Face,,,,,1,,,,,,,x
158,35,Presentation,3,00925960627fa_sunapqwnqzxlsfvgsjm.jpg,00598941031fa_sunacxtcahkymosigud.jpg,00925960627fa.jpg,sunapqwnqzxlsfvgsjm.jpg,00598941031fa.jpg,sunacxtcahkymosigud.jpg,,,<,Face,,,,,1,,,,,,,x
159,35,Presentation,3,00209940128fb_sunabaergayifsgacxt.jpg,00662941121fa_sunadkazmlajmohnwfl.jpg,00209940128fb.jpg,sunabaergayifsgacxt.jpg,00662941121fa.jpg,sunadkazmlajmohnwfl.jpg,,,<,Face,,,,,1,,,,,,,x
160,35,Memory,3,,,,,,,sunaauhozyxzeeqstxi.jpg,,,,,,,,,,,,,,,
161,35,Memory,3,,,,,,,sunaaexpnawiehinlpy.jpg,,,,,,,,,,,,,,,
162,35,Memory,3,,,,,,,sunabrjdpmoedcdjbpo.jpg,,,,,,,,,,,,,,,
163,35,Memory,3,,,,,,,00773960620fa.jpg,,,,,,,,,,,,,,,
164,35,Memory,3,,,,,,,00062931230fb.jpg,,,,,,,,,,,,,,,
165,35,Memory,3,,,,,,,sundahdxwmcdluscvot.jpg,,,,,,,,,,,,,,,
166,35,Memory,3,,,,,,,00153931230fa.jpg,,,,,,,,,,,,,,,
167,35,Memory,3,,,,,,,sunabkmdplkdbvxriff.jpg,,,,,,,,,,,,,,,
168,35,Memory,3,,,,,,,00926960627Fa.jpg,,,,,,,,,,,,,,,
169,35,Memory,3,,,,,,,00910960530fa.jpg,,,,,,,,,,,,,,,
170,35,Memory,3,,,,,,,sunabxsuqbleluwczoy.jpg,,,,,,,,,,,,,,,
171,35,Memory,3,,,,,,,sunbesrwkdsffeogeqq.jpg,,,,,,,,,,,,,,,
172,35,Memory,3,,,,,,,00214940128fa.jpg,,,,,,,,,,,,,,,
173,35,Memory,3,,,,,,,sunaafewhewbxmjiurz.jpg,,,,,,,,,,,,,,,
174,35,Memory,3,,,,,,,00809960620fa.jpg,,,,,,,,,,,,,,,
175,35,Memory,3,,,,,,,sunabaergayifsgacxt.jpg,,,,,,,,,,,,,,,
176,35,Memory,3,,,,,,,sunacxtcahkymosigud.jpg,,,,,,,,,,,,,,,
177,35,Memory,3,,,,,,,sunacdnquypmsshhsbk.jpg,,,,,,,,,,,,,,,
178,35,Memory,3,,,,,,,00076931230fa.jpg,,,,,,,,,,,,,,,
179,35,Memory,3,,,,,,,sunafvsxtzaizojicxx.jpg,,,,,,,,,,,,,,,
180,35,Memory,3,,,,,,,sunapqwoeotxshkukbh.jpg,,,,,,,,,,,,,,,
181,35,Memory,3,,,,,,,00481940519fa.jpg,,,,,,,,,,,,,,,
182,35,Memory,3,,,,,,,00540940519fa.jpg,,,,,,,,,,,,,,,
183,35,Memory,3,,,,,,,00745941205fa.jpg,,,,,,,,,,,,,,,
184,35,Memory,3,,,,,,,00993960627fa.jpg,,,,,,,,,,,,,,,
185,35,Memory,3,,,,,,,01011960627fa.jpg,,,,,,,,,,,,,,,
186,35,Memory,3,,,,,,,00292940422fb.jpg,,,,,,,,,,,,,,,
187,35,Memory,3,,,,,,,00071940128fa.jpg,,,,,,,,,,,,,,,
188,35,Memory,3,,,,,,,sunagdzlvkqtpnfxfcg.jpg,,,,,,,,,,,,,,,
189,35,Memory,3,,,,,,,sunbprywzqxjcezkbch.jpg,,,,,,,,,,,,,,,
190,35,Memory,3,,,,,,,00598941031fa.jpg,,,,,,,,,,,,,,,
191,35,Memory,3,,,,,,,00779941205fa.jpg,,,,,,,,,,,,,,,
192,35,Memory,3,,,,,,,00265940128fb.jpg,,,,,,,,,,,,,,,
193,35,Memory,3,,,,,,,00209940128fb.jpg,,,,,,,,,,,,,,,
194,35,Memory,3,,,,,,,sunaaelotvjgibjtjhs.jpg,,,,,,,,,,,,,,,
195,35,Memory,3,,,,,,,sunaofikylqtxphvdem.jpg,,,,,,,,,,,,,,,
196,35,Memory,3,,,,,,,00982960627fa.jpg,,,,,,,,,,,,,,,
197,35,Memory,3,,,,,,,sunaeouogqolxvggaoq.jpg,,,,,,,,,,,,,,,
198,35,Memory,3,,,,,,,sunahbvlpavurqoxdeq.jpg,,,,,,,,,,,,,,,
199,35,Memory,3,,,,,,,sunabbafjowbzcvbucc.jpg,,,,,,,,,,,,,,,
200,35,Presentation,4,00942960627fa_sunarfdklgdnjgeqfjg.jpg,00860940307fa_sunaizeyhvjzknwjudw.jpg,00942960627fa.jpg,sunarfdklgdnjgeqfjg.jpg,00860940307fa.jpg,sunaizeyhvjzknwjudw.jpg,,,<,Place,,,,,1,,,,,,,o
201,35,Presentation,4,00878960530fa_sunakgbnzxmfohgehnu.jpg,01007960627fa_sunbxarcshsnqsefemx.jpg,00878960530fa.jpg,sunakgbnzxmfohgehnu.jpg,01007960627fa.jpg,sunbxarcshsnqsefemx.jpg,,,<,Place,,,,,1,,,,,,,o
202,35,Presentation,4,00548940519fa_sunacerqowiaeoqkmsq.jpg,00797960620fa_sunagufzbeteqdjxais.jpg,00548940519fa.jpg,sunacerqowiaeoqkmsq.jpg,00797960620fa.jpg,sunagufzbeteqdjxais.jpg,,,<,Place,,,,,0,,,,,,,o
203,35,Presentation,4,00620940928fa_sunacypmnujalygkunp.jpg,00634940928fa_sunadcphrizvfpljiqt.jpg,00620940928fa.jpg,sunacypmnujalygkunp.jpg,00634940928fa.jpg,sunadcphrizvfpljiqt.jpg,,,<,Place,,,,,1,,,,,,,x
204,35,Presentation,4,00919960620fa_sunapmfmzadmosuogaz.jpg,00762941201fa_sunafgzgbisbopcyslr.jpg,00919960620fa.jpg,sunapmfmzadmosuogaz.jpg,00762941201fa.jpg,sunafgzgbisbopcyslr.jpg,,,<,Place,,,,,1,,,,,,,x
205,35,Presentation,4,00754941201fa_sunaffgsyyvoqdlkmnk.jpg,00760960620fa_sunaffstbkappprzxnv.jpg,00754941201fa.jpg,sunaffgsyyvoqdlkmnk.jpg,00760960620fa.jpg,sunaffstbkappprzxnv.jpg,,,<,Place,,,,,1,,,,,,,o
206,35,Presentation,4,00111931230fb_sunaakgekhjklxmvulj.jpg,00957960627fa_sunavhxgmgrqsaptynb.jpg,00111931230fb.jpg,sunaakgekhjklxmvulj.jpg,00957960627fa.jpg,sunavhxgmgrqsaptynb.jpg,,,<,Place,,,,,1,,,,,,,x
207,35,Presentation,4,00185940422fb_sunaawqdbpihmlbwyyn.jpg,00780960530fa_sunagetqixeypsysbpn.jpg,00185940422fb.jpg,sunaawqdbpihmlbwyyn.jpg,00780960530fa.jpg,sunagetqixeypsysbpn.jpg,,,<,Place,,,,,1,,,,,,,o
208,35,Presentation,4,00705941205fa_sunadtlxenqqxsyjvix.jpg,00874940307fa_sunajtrfunvzdfticna.jpg,00705941205fa.jpg,sunadtlxenqqxsyjvix.jpg,00874940307fa.jpg,sunajtrfunvzdfticna.jpg,,,<,Place,,,,,1,,,,,,,o
209,35,Presentation,4,00126931230fb_sunaamdjwemxpmmtypi.jpg,00744941201fa_sunaeomlfaabhpswasy.jpg,00126931230fb.jpg,sunaamdjwemxpmmtypi.jpg,00744941201fa.jpg,sunaeomlfaabhpswasy.jpg,,,<,Place,,,,,1,,,,,,,x
210,35,Memory,4,,,,,,,sunavxokzybtomhbmvm.jpg,,,,,,,,,,,,,,,
211,35,Memory,4,,,,,,,00957960627fa.jpg,,,,,,,,,,,,,,,
212,35,Memory,4,,,,,,,00860940307fa.jpg,,,,,,,,,,,,,,,
213,35,Memory,4,,,,,,,sunaizeyhvjzknwjudw.jpg,,,,,,,,,,,,,,,
214,35,Memory,4,,,,,,,sunabtrnbvpppgczjim.jpg,,,,,,,,,,,,,,,
215,35,Memory,4,,,,,,,sunapqkyghktgtosuuk.jpg,,,,,,,,,,,,,,,
216,35,Memory,4,,,,,,,00803941205fa.jpg,,,,,,,,,,,,,,,
217,35,Memory,4,,,,,,,sunaakgekhjklxmvulj.jpg,,,,,,,,,,,,,,,
218,35,Memory,4,,,,,,,sunaffstbkappprzxnv.jpg,,,,,,,,,,,,,,,
219,35,Memory,4,,,,,,,00792941205fa.jpg,,,,,,,,,,,,,,,
220,35,Memory,4,,,,,,,00245940128fa.jpg,,,,,,,,,,,,,,,
221,35,Memory,4,,,,,,,sunafhmnhsdurlvddpw.jpg,,,,,,,,,,,,,,,
222,35,Memory,4,,,,,,,00482940519fa.jpg,,,,,,,,,,,,,,,
223,35,Memory,4,,,,,,,sunabyfxcxhdebvdyfd.jpg,,,,,,,,,,,,,,,
224,35,Memory,4,,,,,,,sunabeyhmxodahoieyk.jpg,,,,,,,,,,,,,,,
225,35,Memory,4,,,,,,,sunahctntqrunhdxhtb.jpg,,,,,,,,,,,,,,,
226,35,Memory,4,,,,,,,00620940928fa.jpg,,,,,,,,,,,,,,,
227,35,Memory,4,,,,,,,00115931230fa.jpg,,,,,,,,,,,,,,,
228,35,Memory,4,,,,,,,sunacypmnujalygkunp.jpg,,,,,,,,,,,,,,,
229,35,Memory,4,,,,,,,00762941201fa.jpg,,,,,,,,,,,,,,,
230,35,Memory,4,,,,,,,sunapmfmzadmosuogaz.jpg,,,,,,,,,,,,,,,
231,35,Memory,4,,,,,,,sunagsiwrmuixqgdimb.jpg,,,,,,,,,,,,,,,
232,35,Memory,4,,,,,,,00126931230fb.jpg,,,,,,,,,,,,,,,
233,35,Memory,4,,,,,,,00942960627fa.jpg,,,,,,,,,,,,,,,
234,35,Memory,4,,,,,,,00763941205fa.jpg,,,,,,,,,,,,,,,
235,35,Memory,4,,,,,,,00305940422fa.jpg,,,,,,,,,,,,,,,
236,35,Memory,4,,,,,,,sunaamdjwemxpmmtypi.jpg,,,,,,,,,,,,,,,
237,35,Memory,4,,,,,,,00959960627fa.jpg,,,,,,,,,,,,,,,
238,35,Memory,4,,,,,,,00922960627fa.jpg,,,,,,,,,,,,,,,
239,35,Memory,4,,,,,,,sunafgzgbisbopcyslr.jpg,,,,,,,,,,,,,,,
240,35,Memory,4,,,,,,,00780960530fa.jpg,,,,,,,,,,,,,,,
241,35,Memory,4,,,,,,,sunarfdklgdnjgeqfjg.jpg,,,,,,,,,,,,,,,
242,35,Memory,4,,,,,,,00919960620fa.jpg,,,,,,,,,,,,,,,
243,35,Memory,4,,,,,,,sunaakmxzhuceuiryah.jpg,,,,,,,,,,,,,,,
244,35,Memory,4,,,,,,,00810941205fa.jpg,,,,,,,,,,,,,,,
245,35,Memory,4,,,,,,,sunagetqixeypsysbpn.jpg,,,,,,,,,,,,,,,
246,35,Memory,4,,,,,,,00111931230fb.jpg,,,,,,,,,,,,,,,
247,35,Memory,4,,,,,,,00760960620fa.jpg,,,,,,,,,,,,,,,
248,35,Memory,4,,,,,,,sunavhxgmgrqsaptynb.jpg,,,,,,,,,,,,,,,
249,35,Memory,4,,,,,,,sunagvxkjokqimstxpe.jpg,,,,,,,,,,,,,,,
250,35,Presentation,5,00773941201fa_sunafvcflzhlqloapyo.jpg,00529940519fa_sunacbeefkxpymwevpk.jpg,00773941201fa.jpg,sunafvcflzhlqloapyo.jpg,00529940519fa.jpg,sunacbeefkxpymwevpk.jpg,,,<,Face,,,,,1,,,,,,,o
251,35,Presentation,5,00270940422fb_sunabllobxadqcyttej.jpg,00630941031fa_sunadakkdovnuzlycvp.jpg,00270940422fb.jpg,sunabllobxadqcyttej.jpg,00630941031fa.jpg,sunadakkdovnuzlycvp.jpg,,,<,Face,,,,,1,,,,,,,o
252,35,Presentation,5,00120931230fa_sunaakxgygjfqrzpyoz.jpg,00163931230fb_sunaavodbcpygkggnfp.jpg,00120931230fa.jpg,sunaakxgygjfqrzpyoz.jpg,00163931230fb.jpg,sunaavodbcpygkggnfp.jpg,,,<,Face,,,,,1,,,,,,,x
253,35,Presentation,5,00997960627fa_sunbtpilbhhbmhmeuzq.jpg,00675941121fa_sunadoxcchtmsxewsau.jpg,00997960627fa.jpg,sunbtpilbhhbmhmeuzq.jpg,00675941121fa.jpg,sunadoxcchtmsxewsau.jpg,,,<,Face,,,,,1,,,,,,,x
254,35,Presentation,5,00960960627fa_sunawksfbacycuhbrsc.jpg,00825940307fa_sunahrltmuwbiehihpe.jpg,00960960627fa.jpg,sunawksfbacycuhbrsc.jpg,00825940307fa.jpg,sunahrltmuwbiehihpe.jpg,,,<,Face,,,,,1,,,,,,,x
255,35,Presentation,5,00138931230fa_sunaapfaivxqoynnwwp.jpg,00162931230fb_sunaavjinpnkappuonm.jpg,00138931230fa.jpg,sunaapfaivxqoynnwwp.jpg,00162931230fb.jpg,sunaavjinpnkappuonm.jpg,,,<,Face,,,,,1,,,,,,,x
256,35,Presentation,5,00876960620fa_sunajwqkfsykceonyig.jpg,01004960627fa_sunbwtlihsuptkrckid.jpg,00876960620fa.jpg,sunajwqkfsykceonyig.jpg,01004960627fa.jpg,sunbwtlihsuptkrckid.jpg,,,<,Face,,,,,1,,,,,,,x
257,35,Presentation,5,00884960530fa_sunakodkcslgqhqlgwl.jpg,00958960627fa_sunavspxmxubqaeidjt.jpg,00884960530fa.jpg,sunakodkcslgqhqlgwl.jpg,00958960627fa.jpg,sunavspxmxubqaeidjt.jpg,,,<,Face,,,,,1,,,,,,,o
258,35,Presentation,5,00061931230fb_sunaaekxzjzrfgtkwjf.jpg,00554940519fa_sunacfdkbsrughwqwtt.jpg,00061931230fb.jpg,sunaaekxzjzrfgtkwjf.jpg,00554940519fa.jpg,sunacfdkbsrughwqwtt.jpg,,,<,Face,,,,,1,,,,,,,x
259,35,Presentation,5,00782941205fa_sunagfvluwixdsozaql.jpg,00108960530fa_sunaajtnvzzpsjdzres.jpg,00782941205fa.jpg,sunagfvluwixdsozaql.jpg,00108960530fa.jpg,sunaajtnvzzpsjdzres.jpg,,,<,Face,,,,,1,,,,,,,x
260,35,Memory,5,,,,,,,sunbbgtoeuzierkkajt.jpg,,,,,,,,,,,,,,,
261,35,Memory,5,,,,,,,sunasnqkkyhilqkxiqm.jpg,,,,,,,,,,,,,,,
262,35,Memory,5,,,,,,,00796941205fa.jpg,,,,,,,,,,,,,,,
263,35,Memory,5,,,,,,,sunaavodbcpygkggnfp.jpg,,,,,,,,,,,,,,,
264,35,Memory,5,,,,,,,00973960627fa.jpg,,,,,,,,,,,,,,,
265,35,Memory,5,,,,,,,00125931230fa.jpg,,,,,,,,,,,,,,,
266,35,Memory,5,,,,,,,sunaakxgygjfqrzpyoz.jpg,,,,,,,,,,,,,,,
267,35,Memory,5,,,,,,,00747941201fa.jpg,,,,,,,,,,,,,,,
268,35,Memory,5,,,,,,,01004960627fa.jpg,,,,,,,,,,,,,,,
269,35,Memory,5,,,,,,,sunagfvluwixdsozaql.jpg,,,,,,,,,,,,,,,
270,35,Memory,5,,,,,,,sunacmpqqfbsvlzinzl.jpg,,,,,,,,,,,,,,,
271,35,Memory,5,,,,,,,00983960627fa.jpg,,,,,,,,,,,,,,,
272,35,Memory,5,,,,,,,00218940128fa.jpg,,,,,,,,,,,,,,,
273,35,Memory,5,,,,,,,sunabllobxadqcyttej.jpg,,,,,,,,,,,,,,,
274,35,Memory,5,,,,,,,sunbfyvfqiimvdaxlqn.jpg,,,,,,,,,,,,,,,
275,35,Memory,5,,,,,,,00120931230fa.jpg,,,,,,,,,,,,,,,
276,35,Memory,5,,,,,,,00081941031fa.jpg,,,,,,,,,,,,,,,
277,35,Memory,5,,,,,,,sunaaftlyfudyzuhqzf.jpg,,,,,,,,,,,,,,,
278,35,Memory,5,,,,,,,00162931230fb.jpg,,,,,,,,,,,,,,,
279,35,Memory,5,,,,,,,00997960627fa.jpg,,,,,,,,,,,,,,,
280,35,Memory,5,,,,,,,00949960627fb.jpg,,,,,,,,,,,,,,,
281,35,Memory,5,,,,,,,sunbwtlihsuptkrckid.jpg,,,,,,,,,,,,,,,
282,35,Memory,5,,,,,,,00825940307fa.jpg,,,,,,,,,,,,,,,
283,35,Memory,5,,,,,,,00958960627fa.jpg,,,,,,,,,,,,,,,
284,35,Memory,5,,,,,,,00163931230fb.jpg,,,,,,,,,,,,,,,
285,35,Memory,5,,,,,,,sunavspxmxubqaeidjt.jpg,,,,,,,,,,,,,,,
286,35,Memory,5,,,,,,,sunabbwggenhfbftyvi.jpg,,,,,,,,,,,,,,,
287,35,Memory,5,,,,,,,sunaaekxzjzrfgtkwjf.jpg,,,,,,,,,,,,,,,
288,35,Memory,5,,,,,,,sunaguchqqnrtodtezq.jpg,,,,,,,,,,,,,,,
289,35,Memory,5,,,,,,,sunadqmjrhfjyuzyvdd.jpg,,,,,,,,,,,,,,,
290,35,Memory,5,,,,,,,sunbtpilbhhbmhmeuzq.jpg,,,,,,,,,,,,,,,
291,35,Memory,5,,,,,,,00681941121fa.jpg,,,,,,,,,,,,,,,
292,35,Memory,5,,,,,,,sunaalltyvjhbzhkmvg.jpg,,,,,,,,,,,,,,,
293,35,Memory,5,,,,,,,00270940422fb.jpg,,,,,,,,,,,,,,,
294,35,Memory,5,,,,,,,sunaavjinpnkappuonm.jpg,,,,,,,,,,,,,,,
295,35,Memory,5,,,,,,,00782941205fa.jpg,,,,,,,,,,,,,,,
296,35,Memory,5,,,,,,,00564940928fa.jpg,,,,,,,,,,,,,,,
297,35,Memory,5,,,,,,,sunahrltmuwbiehihpe.jpg,,,,,,,,,,,,,,,
298,35,Memory,5,,,,,,,sunaeutbrtswvsozxyk.jpg,,,,,,,,,,,,,,,
299,35,Memory,5,,,,,,,00061931230fb.jpg,,,,,,,,,,,,,,,
300,35,Presentation,6,00766960620fa_sunafijbgncijwykrnl.jpg,00543940519fa_sunacepzfrmtkiqonpy.jpg,00766960620fa.jpg,sunafijbgncijwykrnl.jpg,00543940519fa.jpg,sunacepzfrmtkiqonpy.jpg,,,>,Face,,,,,1,,,,,,,x
301,35,Presentation,6,00847940307fa_sunaivdjruhkrfywfed.jpg,00963960627fa_sunayaepykrqvenaqqy.jpg,00847940307fa.jpg,sunaivdjruhkrfywfed.jpg,00963960627fa.jpg,sunayaepykrqvenaqqy.jpg,,,>,Face,,,,,1,,,,,,,x
302,35,Presentation,6,00723941201fa_sunaedtgwjvvziytspa.jpg,00966960627fa_sunaygrtwrwfezqjizr.jpg,00723941201fa.jpg,sunaedtgwjvvziytspa.jpg,00966960627fa.jpg,sunaygrtwrwfezqjizr.jpg,,,>,Face,,,,,1,,,,,,,x
303,35,Presentation,6,00944960627fa_sunasbbntuiheekqyaq.jpg,00889960530fa_sunaletopenvvozhpxc.jpg,00944960627fa.jpg,sunasbbntuiheekqyaq.jpg,00889960530fa.jpg,sunaletopenvvozhpxc.jpg,,,>,Face,,,,,1,,,,,,,o
304,35,Presentation,6,00676941121fa_sunadpnqovzckyikrjo.jpg,00557940519fa_sunachtuarilwyqnvjx.jpg,00676941121fa.jpg,sunadpnqovzckyikrjo.jpg,00557940519fa.jpg,sunachtuarilwyqnvjx.jpg,,,>,Face,,,,,1,,,,,,,x
305,35,Presentation,6,00070940307fa_sunaaeplwsfslcbtojr.jpg,00990960627fa_sunbpflsdaxnddnwcqi.jpg,00070940307fa.jpg,sunaaeplwsfslcbtojr.jpg,00990960627fa.jpg,sunbpflsdaxnddnwcqi.jpg,,,>,Face,,,,,0,,,,,,,o
306,35,Presentation,6,00807941205fa_sunahawfngukizslzsd.jpg,00965960627fa_sunaydywdmvlfddbxbk.jpg,00807941205fa.jpg,sunahawfngukizslzsd.jpg,00965960627fa.jpg,sunaydywdmvlfddbxbk.jpg,,,>,Face,,,,,1,,,,,,,x
307,35,Presentation,6,00158931230fb_sunaavchcbptaerhcfy.jpg,00746941201fa_sunaetydippjxikifsb.jpg,00158931230fb.jpg,sunaavchcbptaerhcfy.jpg,00746941201fa.jpg,sunaetydippjxikifsb.jpg,,,>,Face,,,,,1,,,,,,,x
308,35,Presentation,6,00211940128fa_sunabasphceswhwwqvv.jpg,00858940307fa_sunaixpqndlwhwjtjek.jpg,00211940128fa.jpg,sunabasphceswhwwqvv.jpg,00858940307fa.jpg,sunaixpqndlwhwjtjek.jpg,,,>,Face,,,,,0,,,,,,,o
309,35,Presentation,6,00906960530fa_sunantryfbloeaomfta.jpg,00986960627fa_sunbgzjryivyczuvkvm.jpg,00906960530fa.jpg,sunantryfbloeaomfta.jpg,00986960627fa.jpg,sunbgzjryivyczuvkvm.jpg,,,>,Face,,,,,1,,,,,,,x
310,35,Memory,6,,,,,,,00723941201fa.jpg,,,,,,,,,,,,,,,
311,35,Memory,6,,,,,,,sunafpfpiiujzoesnqg.jpg,,,,,,,,,,,,,,,
312,35,Memory,6,,,,,,,sunaetydippjxikifsb.jpg,,,,,,,,,,,,,,,
313,35,Memory,6,,,,,,,00149931230fa.jpg,,,,,,,,,,,,,,,
314,35,Memory,6,,,,,,,00746941201fa.jpg,,,,,,,,,,,,,,,
315,35,Memory,6,,,,,,,sunachtuarilwyqnvjx.jpg,,,,,,,,,,,,,,,
316,35,Memory,6,,,,,,,00944960627fa.jpg,,,,,,,,,,,,,,,
317,35,Memory,6,,,,,,,sunayaepykrqvenaqqy.jpg,,,,,,,,,,,,,,,
318,35,Memory,6,,,,,,,sundbixjudsgeuuehrn.jpg,,,,,,,,,,,,,,,
319,35,Memory,6,,,,,,,00557940519fa.jpg,,,,,,,,,,,,,,,
320,35,Memory,6,,,,,,,01207940128fa.jpg,,,,,,,,,,,,,,,
321,35,Memory,6,,,,,,,sunasbbntuiheekqyaq.jpg,,,,,,,,,,,,,,,
322,35,Memory,6,,,,,,,00836940307fa.jpg,,,,,,,,,,,,,,,
323,35,Memory,6,,,,,,,sunaauglwmctnkxyird.jpg,,,,,,,,,,,,,,,
324,35,Memory,6,,,,,,,sunbgzjryivyczuvkvm.jpg,,,,,,,,,,,,,,,
325,35,Memory,6,,,,,,,sunaauueuhhvklldjik.jpg,,,,,,,,,,,,,,,
326,35,Memory,6,,,,,,,sunaixpqndlwhwjtjek.jpg,,,,,,,,,,,,,,,
327,35,Memory,6,,,,,,,00772941201fa.jpg,,,,,,,,,,,,,,,
328,35,Memory,6,,,,,,,sunaajuzribjrizdshh.jpg,,,,,,,,,,,,,,,
329,35,Memory,6,,,,,,,sunainqelldeebvxtcz.jpg,,,,,,,,,,,,,,,
330,35,Memory,6,,,,,,,00741941201fa.jpg,,,,,,,,,,,,,,,
331,35,Memory,6,,,,,,,00154931230fa.jpg,,,,,,,,,,,,,,,
332,35,Memory,6,,,,,,,00847940307fa.jpg,,,,,,,,,,,,,,,
333,35,Memory,6,,,,,,,00986960627fa.jpg,,,,,,,,,,,,,,,
334,35,Memory,6,,,,,,,00858940307fa.jpg,,,,,,,,,,,,,,,
335,35,Memory,6,,,,,,,sunaemcowdozyphwknd.jpg,,,,,,,,,,,,,,,
336,35,Memory,6,,,,,,,sunaanptmsknhirrzed.jpg,,,,,,,,,,,,,,,
337,35,Memory,6,,,,,,,sunbdycacjfaujxitbw.jpg,,,,,,,,,,,,,,,
338,35,Memory,6,,,,,,,sunantryfbloeaomfta.jpg,,,,,,,,,,,,,,,
339,35,Memory,6,,,,,,,00109931230fa.jpg,,,,,,,,,,,,,,,
340,35,Memory,6,,,,,,,00969960627fa.jpg,,,,,,,,,,,,,,,
341,35,Memory,6,,,,,,,sunbaoizrfijvhpnnjn.jpg,,,,,,,,,,,,,,,
342,35,Memory,6,,,,,,,sunaivdjruhkrfywfed.jpg,,,,,,,,,,,,,,,
343,35,Memory,6,,,,,,,00979960627fa.jpg,,,,,,,,,,,,,,,
344,35,Memory,6,,,,,,,00070940307fa.jpg,,,,,,,,,,,,,,,
345,35,Memory,6,,,,,,,sunaaeplwsfslcbtojr.jpg,,,,,,,,,,,,,,,
346,35,Memory,6,,,,,,,00906960530fa.jpg,,,,,,,,,,,,,,,
347,35,Memory,6,,,,,,,00136931230fb.jpg,,,,,,,,,,,,,,,
348,35,Memory,6,,,,,,,00963960627fa.jpg,,,,,,,,,,,,,,,
349,35,Memory,6,,,,,,,sunaedtgwjvvziytspa.jpg,,,,,,,,,,,,,,,
350,35,Presentation,7,00854940307fa_sunaiwduelojtwaqeyh.jpg,00498960627fa_sunabzjxlmkwnwzimua.jpg,00854940307fa.jpg,sunaiwduelojtwaqeyh.jpg,00498960627fa.jpg,sunabzjxlmkwnwzimua.jpg,,,>,Place,,,,,1,,,,,,,x
351,35,Presentation,7,00129931230fb_sunaamsdyakblkfoydx.jpg,00102931230fa_sunaajspcoepticvplv.jpg,00129931230fb.jpg,sunaamsdyakblkfoydx.jpg,00102931230fa.jpg,sunaajspcoepticvplv.jpg,,,>,Place,,,,,0,,,,,,,x
352,35,Presentation,7,00955960627fb_sunauburywlkjszngcq.jpg,00961960627fa_sunawotxrevnqvamsfp.jpg,00955960627fb.jpg,sunauburywlkjszngcq.jpg,00961960627fa.jpg,sunawotxrevnqvamsfp.jpg,,,>,Place,,,,,1,,,,,,,o
353,35,Presentation,7,00868960307fa_sunajjxttslobudoqbv.jpg,00794960620fa_sunagtqhhwxjeuxdebe.jpg,00868960307fa.jpg,sunajjxttslobudoqbv.jpg,00794960620fa.jpg,sunagtqhhwxjeuxdebe.jpg,,,>,Place,,,,,1,,,,,,,o
354,35,Presentation,7,00911960530fa_sunaooaqzputrowwbsw.jpg,00191940128fb_sunaawsdjisukbbginm.jpg,00911960530fa.jpg,sunaooaqzputrowwbsw.jpg,00191940128fb.jpg,sunaawsdjisukbbginm.jpg,,,>,Place,,,,,1,,,,,,,o
355,35,Presentation,7,00636941031fa_sunaddtdkycxbqlpfqa.jpg,00929960627fa_sunaprnrbmgkomdbchr.jpg,00636941031fa.jpg,sunaddtdkycxbqlpfqa.jpg,00929960627fa.jpg,sunaprnrbmgkomdbchr.jpg,,,>,Place,,,,,1,,,,,,,o
356,35,Presentation,7,00988960627fa_sunbmaiocftdtvnzgap.jpg,00753941201fa_sunafcofuuzebuadceo.jpg,00988960627fa.jpg,sunbmaiocftdtvnzgap.jpg,00753941201fa.jpg,sunafcofuuzebuadceo.jpg,,,>,Place,,,,,1,,,,,,,o
357,35,Presentation,7,00063931230fa_sunaaelyvurpntclgau.jpg,00851940307fa_sunaivflshbyfrfzhqb.jpg,00063931230fa.jpg,sunaaelyvurpntclgau.jpg,00851940307fa.jpg,sunaivflshbyfrfzhqb.jpg,,,>,Place,,,,,1,,,,,,,o
358,35,Presentation,7,00989960627fa_sunbondbduabvijnmch.jpg,00132931230fb_sunaanjcbzdvtvblsdy.jpg,00989960627fa.jpg,sunbondbduabvijnmch.jpg,00132931230fb.jpg,sunaanjcbzdvtvblsdy.jpg,,,>,Place,,,,,1,,,,,,,o
359,35,Presentation,7,00943960627fa_sunarpsxqkduedrrzyi.jpg,00900960530fa_sunamlotskmmsjeogby.jpg,00943960627fa.jpg,sunarpsxqkduedrrzyi.jpg,00900960530fa.jpg,sunamlotskmmsjeogby.jpg,,,>,Place,,,,,1,,,,,,,x
360,35,Memory,7,,,,,,,00276940422fa.jpg,,,,,,,,,,,,,,,
361,35,Memory,7,,,,,,,sunagtqhhwxjeuxdebe.jpg,,,,,,,,,,,,,,,
362,35,Memory,7,,,,,,,sunadochqcucscehsgk.jpg,,,,,,,,,,,,,,,
363,35,Memory,7,,,,,,,sunagoufulkpsxrmklt.jpg,,,,,,,,,,,,,,,
364,35,Memory,7,,,,,,,00955960627fb.jpg,,,,,,,,,,,,,,,
365,35,Memory,7,,,,,,,00650941031fa.jpg,,,,,,,,,,,,,,,
366,35,Memory,7,,,,,,,sunaamsdyakblkfoydx.jpg,,,,,,,,,,,,,,,
367,35,Memory,7,,,,,,,sunabmbnddafmywtjjj.jpg,,,,,,,,,,,,,,,
368,35,Memory,7,,,,,,,sunbbhqyyzmsxhsbjmp.jpg,,,,,,,,,,,,,,,
369,35,Memory,7,,,,,,,sunagmwxxwymwojbvgi.jpg,,,,,,,,,,,,,,,
370,35,Memory,7,,,,,,,00854940307fa.jpg,,,,,,,,,,,,,,,
371,35,Memory,7,,,,,,,00851940307fa.jpg,,,,,,,,,,,,,,,
372,35,Memory,7,,,,,,,sunaanjcbzdvtvblsdy.jpg,,,,,,,,,,,,,,,
373,35,Memory,7,,,,,,,sunajjxttslobudoqbv.jpg,,,,,,,,,,,,,,,
374,35,Memory,7,,,,,,,00989960627fa.jpg,,,,,,,,,,,,,,,
375,35,Memory,7,,,,,,,00498960627fa.jpg,,,,,,,,,,,,,,,
376,35,Memory,7,,,,,,,sunadikxpvqeabxrvvc.jpg,,,,,,,,,,,,,,,
377,35,Memory,7,,,,,,,00787941205fa.jpg,,,,,,,,,,,,,,,
378,35,Memory,7,,,,,,,00129931230fb.jpg,,,,,,,,,,,,,,,
379,35,Memory,7,,,,,,,00132931230fb.jpg,,,,,,,,,,,,,,,
380,35,Memory,7,,,,,,,sunagcinxkccdtrjmlv.jpg,,,,,,,,,,,,,,,
381,35,Memory,7,,,,,,,00868960307fa.jpg,,,,,,,,,,,,,,,
382,35,Memory,7,,,,,,,00609940928fa.jpg,,,,,,,,,,,,,,,
383,35,Memory,7,,,,,,,00787960620fa.jpg,,,,,,,,,,,,,,,
384,35,Memory,7,,,,,,,00271940422fa.jpg,,,,,,,,,,,,,,,
385,35,Memory,7,,,,,,,00130931230fa.jpg,,,,,,,,,,,,,,,
386,35,Memory,7,,,,,,,sunbondbduabvijnmch.jpg,,,,,,,,,,,,,,,
387,35,Memory,7,,,,,,,00976960627fa.jpg,,,,,,,,,,,,,,,
388,35,Memory,7,,,,,,,00777941205fa.jpg,,,,,,,,,,,,,,,
389,35,Memory,7,,,,,,,sunabzjxlmkwnwzimua.jpg,,,,,,,,,,,,,,,
390,35,Memory,7,,,,,,,sunabmytpyhsgigllxu.jpg,,,,,,,,,,,,,,,
391,35,Memory,7,,,,,,,00670941121fa.jpg,,,,,,,,,,,,,,,
392,35,Memory,7,,,,,,,sunaivflshbyfrfzhqb.jpg,,,,,,,,,,,,,,,
393,35,Memory,7,,,,,,,sunaamvxnvouicstkjb.jpg,,,,,,,,,,,,,,,
394,35,Memory,7,,,,,,,sunamlotskmmsjeogby.jpg,,,,,,,,,,,,,,,
395,35,Memory,7,,,,,,,00900960530fa.jpg,,,,,,,,,,,,,,,
396,35,Memory,7,,,,,,,sunaiwduelojtwaqeyh.jpg,,,,,,,,,,,,,,,
397,35,Memory,7,,,,,,,sunauburywlkjszngcq.jpg,,,,,,,,,,,,,,,
398,35,Memory,7,,,,,,,00794960620fa.jpg,,,,,,,,,,,,,,,
399,35,Memory,7,,,,,,,sunacycdoztxoluxjyk.jpg,,,,,,,,,,,,,,,
