,Subject,Trial Type,Run,Cued Composite,Uncued Composite,Cued Face,Cued Place,Uncued Face,Uncued Place,Memory Image,Category,Cued Side,Cued Category,Attention Reaction Time (s),Familiarity Reaction Time (s),Familiarity Rating,Attention Level,Cue Validity,Post Invalid Cue,Pre Invalid Cue,Attention Button,Rating History,Stimulus Onset,Stimulus End,Attention Probe
160,20,Memory,3,,,,,,,sunaanptmsknhirrzed.jpg,,,,,2.047,1.0,,,,,,,1554834935.069675,1554834938.669703,
161,20,Memory,3,,,,,,,sunaawsdjisukbbginm.jpg,,,,,1.36,3.0,,,,,,,1554834939.954282,1554834943.304804,
162,20,Memory,3,,,,,,,00191940128fb.jpg,,,,,2.211,3.0,,,,,,,1554834944.772069,1554834947.808273,
163,20,Memory,3,,,,,,,sunaazzyhbvqjpmazjq.jpg,,,,,1.16,2.0,,,,,,,1554834949.223034,1554834952.43718,
164,20,Memory,3,,,,,,,00559940519fa.jpg,,,,,0.808,3.0,,,,,,,1554834953.758423,1554834956.404856,
165,20,Memory,3,,,,,,,00081941031fa.jpg,,,,,0.792,2.0,,,,,,,1554834957.726743,1554834960.657166,
166,20,Memory,3,,,,,,,00882960530fa.jpg,,,,,1.408,3.0,,,,,,,1554834961.994888,1554834964.87424,
167,20,Memory,3,,,,,,,sunaaxjpzcnxligjtjq.jpg,,,,,2.226,2.0,,,,,,,1554834966.146874,1554834969.464017,
168,20,Memory,3,,,,,,,00132931230fb.jpg,,,,,1.693,2.0,,,,,,,1554834970.782186,1554834973.800028,
169,20,Memory,3,,,,,,,01003960627fb.jpg,,,,,0.742,3.0,,,,,,,1554834975.198693,1554834978.165051,
170,20,Memory,3,,,,,,,00111931230fb.jpg,,,,,2.293,3.0,,,,,,,1554834979.583627,1554834982.700225,
171,20,Memory,3,,,,,,,sunaeuvjbmdpknaqqaj.jpg,,,,,1.127,2.0,,,,,,,1554834984.018129,1554834986.802479,
172,20,Memory,3,,,,,,,sunaakgekhjklxmvulj.jpg,,,,,1.276,3.0,,,,,,,1554834988.16916,1554834991.101516,
173,20,Memory,3,,,,,,,00208940128fa.jpg,,,,,1.125,2.0,,,,,,,1554834992.404597,1554834995.772604,
174,20,Memory,3,,,,,,,sunaanjcbzdvtvblsdy.jpg,,,,,1.592,4.0,,,,,,,1554834997.089597,1554835000.140979,
175,20,Memory,3,,,,,,,sunacjkmnpawfzbyvae.jpg,,,,,2.376,4.0,,,,,,,1554835001.524808,1554835004.776201,
176,20,Memory,3,,,,,,,sunaflojskatpeqyzqp.jpg,,,,,1.908,2.0,,,,,,,1554835006.192966,1554835009.195393,
177,20,Memory,3,,,,,,,sunaaftlyfudyzuhqzf.jpg,,,,,1.127,2.0,,,,,,,1554835010.744432,1554835013.689393,
178,20,Memory,3,,,,,,,sunaahwnmtqsrhocysw.jpg,,,,,1.843,3.0,,,,,,,1554835014.944092,1554835017.791768,
179,20,Memory,3,,,,,,,00743941201fa.jpg,,,,,1.744,3.0,,,,,,,1554835019.095072,1554835022.49802,
180,20,Memory,3,,,,,,,00749941201fa.jpg,,,,,1.511,2.0,,,,,,,1554835023.797619,1554835027.082557,
181,20,Memory,3,,,,,,,sunarpsxqkduedrrzyi.jpg,,,,,1.777,1.0,,,,,,,1554835028.400259,1554835031.129864,
182,20,Memory,3,,,,,,,sunaauhozyxzeeqstxi.jpg,,,,,1.827,3.0,,,,,,,1554835032.567674,1554835035.685263,
183,20,Memory,3,,,,,,,00153931230fa.jpg,,,,,1.641,3.0,,,,,,,1554835037.118973,1554835040.103912,
184,20,Memory,3,,,,,,,00976960627fa.jpg,,,,,1.21,2.0,,,,,,,1554835041.521172,1554835044.399527,
185,20,Memory,3,,,,,,,00770941201fa.jpg,,,,,1.909,3.0,,,,,,,1554835045.689295,1554835048.689075,
186,20,Memory,3,,,,,,,sunaeoghzrjarigmwua.jpg,,,,,0.959,2.0,,,,,,,1554835050.007868,1554835052.794615,
187,20,Memory,3,,,,,,,00093931230fa.jpg,,,,,1.276,2.0,,,,,,,1554835054.09084,1554835057.174873,
188,20,Memory,3,,,,,,,sunaknlirqjqiwbbeeg.jpg,,,,,1.193,3.0,,,,,,,1554835058.526074,1554835061.344283,
189,20,Memory,3,,,,,,,00060931230fa.jpg,,,,,2.676,3.0,,,,,,,1554835062.627424,1554835066.061398,
190,20,Memory,3,,,,,,,00889960530fa.jpg,,,,,0.893,3.0,,,,,,,1554835067.612815,1554835070.309446,
191,20,Memory,3,,,,,,,sunbbhqyyzmsxhsbjmp.jpg,,,,,2.093,2.0,,,,,,,1554835071.631071,1554835074.815836,
192,20,Memory,3,,,,,,,sunaaehaikpckyjsety.jpg,,,,,1.676,1.0,,,,,,,1554835076.149256,1554835079.116128,
193,20,Memory,3,,,,,,,00136931230fb.jpg,,,,,2.442,3.0,,,,,,,1554835080.434361,1554835083.569686,
194,20,Memory,3,,,,,,,00943960627fa.jpg,,,,,1.442,3.0,,,,,,,1554835084.867873,1554835088.069802,
195,20,Memory,3,,,,,,,sunbwdrdvsweerwsdrj.jpg,,,,,1.46,2.0,,,,,,,1554835089.402715,1554835092.149556,
196,20,Memory,3,,,,,,,01000960627fa.jpg,,,,,1.442,2.0,,,,,,,1554835093.45489,1554835096.155445,
197,20,Memory,3,,,,,,,sunaletopenvvozhpxc.jpg,,,,,1.743,2.0,,,,,,,1554835097.739193,1554835101.152463,
198,20,Memory,3,,,,,,,00193940928fa.jpg,,,,,1.739,3.0,,,,,,,1554835102.457545,1554835104.957569,
199,20,Memory,3,,,,,,,sunbvzmgrdvaakxusbu.jpg,,,,,1.126,2.0,,,,,,,1554835106.275748,1554835108.908054,
