,Subject,Trial Type,Run,Cued Composite,Uncued Composite,Cued Face,Cued Place,Uncued Face,Uncued Place,Memory Image,Category,Cued Side,Cued Category,Attention Response Time (s),Familiarity Reaction Time (s),Familiarity Rating,Attention Level,Cue Validity,Post Invalid Cue,Pre Invalid Cue,Attention Button,Rating History,Stimulus Onset,Stimulus End,Attention Probe
0,28,Presentation,0,00858940307fa_sunaixpqndlwhwjtjek.jpg,00848940307fa_sunaivdylrawbmhryfp.jpg,00858940307fa.jpg,sunaixpqndlwhwjtjek.jpg,00848940307fa.jpg,sunaivdylrawbmhryfp.jpg,,,>,Place,,,,,1,,,,,,,o
1,28,Presentation,0,00971960627fa_sunbbegcweqnetpdlrh.jpg,00077931230fb_sunaafgqutfaishsxyu.jpg,00971960627fa.jpg,sunbbegcweqnetpdlrh.jpg,00077931230fb.jpg,sunaafgqutfaishsxyu.jpg,,,>,Place,,,,,1,,,,,,,x
2,28,Presentation,0,00705960530fa_sunaduslxfzlbxlllnz.jpg,00162931230fb_sunaavjinpnkappuonm.jpg,00705960530fa.jpg,sunaduslxfzlbxlllnz.jpg,00162931230fb.jpg,sunaavjinpnkappuonm.jpg,,,>,Place,,,,,1,,,,,,,x
3,28,Presentation,0,00809960620fa_sunahbvlpavurqoxdeq.jpg,00952960627fa_sunathzzbcwjykldrem.jpg,00809960620fa.jpg,sunahbvlpavurqoxdeq.jpg,00952960627fa.jpg,sunathzzbcwjykldrem.jpg,,,>,Place,,,,,1,,,,,,,x
4,28,Presentation,0,00887960530_sunalcrtwiycqobgelp.jpg,00125931230fa_sunaalltyvjhbzhkmvg.jpg,00887960530.jpg,sunalcrtwiycqobgelp.jpg,00125931230fa.jpg,sunaalltyvjhbzhkmvg.jpg,,,>,Place,,,,,1,,,,,,,o
5,28,Presentation,0,00095931230fa_sunaahzooisqkwlxwoz.jpg,00811960530fa_sunahedfrhtcwpneund.jpg,00095931230fa.jpg,sunaahzooisqkwlxwoz.jpg,00811960530fa.jpg,sunahedfrhtcwpneund.jpg,,,>,Place,,,,,1,,,,,,,o
6,28,Presentation,0,00895960530fa_sunamczizlzavhzhpay.jpg,00753941201fa_sunafcofuuzebuadceo.jpg,00895960530fa.jpg,sunamczizlzavhzhpay.jpg,00753941201fa.jpg,sunafcofuuzebuadceo.jpg,,,>,Place,,,,,1,,,,,,,x
7,28,Presentation,0,00650941031fa_sunadikxpvqeabxrvvc.jpg,00775941205fa_sunafvwfsmqkjrutjta.jpg,00650941031fa.jpg,sunadikxpvqeabxrvvc.jpg,00775941205fa.jpg,sunafvwfsmqkjrutjta.jpg,,,>,Place,,,,,1,,,,,,,o
8,28,Presentation,0,00921960627fa_sunapqkpqdfvxlbqwyo.jpg,00866940307fa_sunajbwkywmsqkldfml.jpg,00921960627fa.jpg,sunapqkpqdfvxlbqwyo.jpg,00866940307fa.jpg,sunajbwkywmsqkldfml.jpg,,,>,Place,,,,,1,,,,,,,x
9,28,Presentation,0,00884960530fa_sunakodkcslgqhqlgwl.jpg,00260940128fa_sunabgfhvifeijihhjw.jpg,00884960530fa.jpg,sunakodkcslgqhqlgwl.jpg,00260940128fa.jpg,sunabgfhvifeijihhjw.jpg,,,>,Place,,,,,1,,,,,,,o
10,28,Memory,0,,,,,,,00507940519fa.jpg,,,,,,,,,,,,,,,
11,28,Memory,0,,,,,,,00648941031fa.jpg,,,,,,,,,,,,,,,
12,28,Memory,0,,,,,,,00905960530fa.jpg,,,,,,,,,,,,,,,
13,28,Memory,0,,,,,,,sunanmoqeyprjjjfxjt.jpg,,,,,,,,,,,,,,,
14,28,Memory,0,,,,,,,sunaooaqzputrowwbsw.jpg,,,,,,,,,,,,,,,
15,28,Memory,0,,,,,,,sunaanjcbzdvtvblsdy.jpg,,,,,,,,,,,,,,,
16,28,Memory,0,,,,,,,sunadfndyrtqqiasoig.jpg,,,,,,,,,,,,,,,
17,28,Memory,0,,,,,,,00125931230fa.jpg,,,,,,,,,,,,,,,
18,28,Memory,0,,,,,,,sunaivdylrawbmhryfp.jpg,,,,,,,,,,,,,,,
19,28,Memory,0,,,,,,,sunbwaafjdebjzttuvq.jpg,,,,,,,,,,,,,,,
20,28,Memory,0,,,,,,,sunaekgzpfilgjxpeyq.jpg,,,,,,,,,,,,,,,
21,28,Memory,0,,,,,,,00753941201fa.jpg,,,,,,,,,,,,,,,
22,28,Memory,0,,,,,,,01002960627fb.jpg,,,,,,,,,,,,,,,
23,28,Memory,0,,,,,,,sunaalltyvjhbzhkmvg.jpg,,,,,,,,,,,,,,,
24,28,Memory,0,,,,,,,00848940307fa.jpg,,,,,,,,,,,,,,,
25,28,Memory,0,,,,,,,00952960627fa.jpg,,,,,,,,,,,,,,,
26,28,Memory,0,,,,,,,00869940307fa.jpg,,,,,,,,,,,,,,,
27,28,Memory,0,,,,,,,sunaibnpvhkdpdnzcnz.jpg,,,,,,,,,,,,,,,
28,28,Memory,0,,,,,,,00834940307fa.jpg,,,,,,,,,,,,,,,
29,28,Memory,0,,,,,,,00884960530fa.jpg,,,,,,,,,,,,,,,
30,28,Memory,0,,,,,,,00921960627fa.jpg,,,,,,,,,,,,,,,
31,28,Memory,0,,,,,,,sunamczizlzavhzhpay.jpg,,,,,,,,,,,,,,,
32,28,Memory,0,,,,,,,sunajoveqhiprwqgoco.jpg,,,,,,,,,,,,,,,
33,28,Memory,0,,,,,,,00095931230fa.jpg,,,,,,,,,,,,,,,
34,28,Memory,0,,,,,,,sunafcofuuzebuadceo.jpg,,,,,,,,,,,,,,,
35,28,Memory,0,,,,,,,00101931230fb.jpg,,,,,,,,,,,,,,,
36,28,Memory,0,,,,,,,sunaixpqndlwhwjtjek.jpg,,,,,,,,,,,,,,,
37,28,Memory,0,,,,,,,00911960530fa.jpg,,,,,,,,,,,,,,,
38,28,Memory,0,,,,,,,00730960620fa.jpg,,,,,,,,,,,,,,,
39,28,Memory,0,,,,,,,00132931230fb.jpg,,,,,,,,,,,,,,,
40,28,Memory,0,,,,,,,00162931230fb.jpg,,,,,,,,,,,,,,,
41,28,Memory,0,,,,,,,sunathzzbcwjykldrem.jpg,,,,,,,,,,,,,,,
42,28,Memory,0,,,,,,,sunaavjinpnkappuonm.jpg,,,,,,,,,,,,,,,
43,28,Memory,0,,,,,,,sunakodkcslgqhqlgwl.jpg,,,,,,,,,,,,,,,
44,28,Memory,0,,,,,,,00858940307fa.jpg,,,,,,,,,,,,,,,
45,28,Memory,0,,,,,,,sunacacflqoyxhsqzhe.jpg,,,,,,,,,,,,,,,
46,28,Memory,0,,,,,,,sunapqkpqdfvxlbqwyo.jpg,,,,,,,,,,,,,,,
47,28,Memory,0,,,,,,,00895960530fa.jpg,,,,,,,,,,,,,,,
48,28,Memory,0,,,,,,,sunaahzooisqkwlxwoz.jpg,,,,,,,,,,,,,,,
49,28,Memory,0,,,,,,,sunaajqmsaavkmgbsth.jpg,,,,,,,,,,,,,,,
50,28,Presentation,1,00082931230fa_sunaafvitpexrpvumsa.jpg,00788941205fa_sunagountlxpzkytsmp.jpg,00082931230fa.jpg,sunaafvitpexrpvumsa.jpg,00788941205fa.jpg,sunagountlxpzkytsmp.jpg,,,>,Face,,,,,1,,,,,,,o
51,28,Presentation,1,00163931230fb_sunaavodbcpygkggnfp.jpg,00214940128fa_sunabbafjowbzcvbucc.jpg,00163931230fb.jpg,sunaavodbcpygkggnfp.jpg,00214940128fa.jpg,sunabbafjowbzcvbucc.jpg,,,>,Face,,,,,1,,,,,,,o
52,28,Presentation,1,00827940307fa_sunahtfxgsrmkiulnwk.jpg,00990960627fa_sunbpflsdaxnddnwcqi.jpg,00827940307fa.jpg,sunahtfxgsrmkiulnwk.jpg,00990960627fa.jpg,sunbpflsdaxnddnwcqi.jpg,,,>,Face,,,,,1,,,,,,,o
53,28,Presentation,1,00158931230fb_sunaavchcbptaerhcfy.jpg,01007960627fa_sunbxarcshsnqsefemx.jpg,00158931230fb.jpg,sunaavchcbptaerhcfy.jpg,01007960627fa.jpg,sunbxarcshsnqsefemx.jpg,,,>,Face,,,,,1,,,,,,,x
54,28,Presentation,1,00193940928fa_sunaaxjpzcnxligjtjq.jpg,00505960627fa_sunabzuqsrgcsonqlkz.jpg,00193940928fa.jpg,sunaaxjpzcnxligjtjq.jpg,00505960627fa.jpg,sunabzuqsrgcsonqlkz.jpg,,,>,Face,,,,,0,,,,,,,x
55,28,Presentation,1,00239940128fa_sunabctlikybqabezjv.jpg,00969960627fa_sunbaoizrfijvhpnnjn.jpg,00239940128fa.jpg,sunabctlikybqabezjv.jpg,00969960627fa.jpg,sunbaoizrfijvhpnnjn.jpg,,,>,Face,,,,,1,,,,,,,x
56,28,Presentation,1,00978960627fa_sunbddbivbptlrlauhy.jpg,00961960627fa_sunawotxrevnqvamsfp.jpg,00978960627fa.jpg,sunbddbivbptlrlauhy.jpg,00961960627fa.jpg,sunawotxrevnqvamsfp.jpg,,,>,Face,,,,,1,,,,,,,o
57,28,Presentation,1,00184940128fa_sunaavtbadenwnzeutj.jpg,01207940128fa_sundbixjudsgeuuehrn.jpg,00184940128fa.jpg,sunaavtbadenwnzeutj.jpg,01207940128fa.jpg,sundbixjudsgeuuehrn.jpg,,,>,Face,,,,,1,,,,,,,o
58,28,Presentation,1,00288940422fa_sunabppokiyglaxpcha.jpg,00221940128fa_sunabcfpwlpolnutyju.jpg,00288940422fa.jpg,sunabppokiyglaxpcha.jpg,00221940128fa.jpg,sunabcfpwlpolnutyju.jpg,,,>,Face,,,,,1,,,,,,,o
59,28,Presentation,1,00581940928fa_sunacvzhvcksnwqcqbw.jpg,00609940928fa_sunacycdoztxoluxjyk.jpg,00581940928fa.jpg,sunacvzhvcksnwqcqbw.jpg,00609940928fa.jpg,sunacycdoztxoluxjyk.jpg,,,>,Face,,,,,1,,,,,,,o
60,28,Memory,1,,,,,,,00082931230fa.jpg,,,,,,,,,,,,,,,
61,28,Memory,1,,,,,,,sunacycdoztxoluxjyk.jpg,,,,,,,,,,,,,,,
62,28,Memory,1,,,,,,,sunaivdjruhkrfywfed.jpg,,,,,,,,,,,,,,,
63,28,Memory,1,,,,,,,sunahtfxgsrmkiulnwk.jpg,,,,,,,,,,,,,,,
64,28,Memory,1,,,,,,,00062931230fb.jpg,,,,,,,,,,,,,,,
65,28,Memory,1,,,,,,,sunaaelotvjgibjtjhs.jpg,,,,,,,,,,,,,,,
66,28,Memory,1,,,,,,,00482940519fa.jpg,,,,,,,,,,,,,,,
67,28,Memory,1,,,,,,,sunabctlikybqabezjv.jpg,,,,,,,,,,,,,,,
68,28,Memory,1,,,,,,,sunabtrnbvpppgczjim.jpg,,,,,,,,,,,,,,,
69,28,Memory,1,,,,,,,sunaavchcbptaerhcfy.jpg,,,,,,,,,,,,,,,
70,28,Memory,1,,,,,,,00990960627fa.jpg,,,,,,,,,,,,,,,
71,28,Memory,1,,,,,,,sunaefgzwiramypjvtd.jpg,,,,,,,,,,,,,,,
72,28,Memory,1,,,,,,,sunahwgbqkqcrwprgvh.jpg,,,,,,,,,,,,,,,
73,28,Memory,1,,,,,,,00221940128fa.jpg,,,,,,,,,,,,,,,
74,28,Memory,1,,,,,,,00609940928fa.jpg,,,,,,,,,,,,,,,
75,28,Memory,1,,,,,,,sunaafvitpexrpvumsa.jpg,,,,,,,,,,,,,,,
76,28,Memory,1,,,,,,,sunajrujcsdxmfbssmc.jpg,,,,,,,,,,,,,,,
77,28,Memory,1,,,,,,,00158931230fb.jpg,,,,,,,,,,,,,,,
78,28,Memory,1,,,,,,,sundbixjudsgeuuehrn.jpg,,,,,,,,,,,,,,,
79,28,Memory,1,,,,,,,sunacvzhvcksnwqcqbw.jpg,,,,,,,,,,,,,,,
80,28,Memory,1,,,,,,,00788941205fa.jpg,,,,,,,,,,,,,,,
81,28,Memory,1,,,,,,,sunaaemixhfquhnxxlm.jpg,,,,,,,,,,,,,,,
82,28,Memory,1,,,,,,,00305940422fa.jpg,,,,,,,,,,,,,,,
83,28,Memory,1,,,,,,,00871940307.jpg,,,,,,,,,,,,,,,
84,28,Memory,1,,,,,,,sunaathajvxrgptwhoj.jpg,,,,,,,,,,,,,,,
85,28,Memory,1,,,,,,,00829940307fa.jpg,,,,,,,,,,,,,,,
86,28,Memory,1,,,,,,,sunabyfxcxhdebvdyfd.jpg,,,,,,,,,,,,,,,
87,28,Memory,1,,,,,,,00827940307fa.jpg,,,,,,,,,,,,,,,
88,28,Memory,1,,,,,,,01207940128fa.jpg,,,,,,,,,,,,,,,
89,28,Memory,1,,,,,,,sunabcfpwlpolnutyju.jpg,,,,,,,,,,,,,,,
90,28,Memory,1,,,,,,,sunanaacmmosxrfwmvl.jpg,,,,,,,,,,,,,,,
91,28,Memory,1,,,,,,,sunbpflsdaxnddnwcqi.jpg,,,,,,,,,,,,,,,
92,28,Memory,1,,,,,,,00581940928fa.jpg,,,,,,,,,,,,,,,
93,28,Memory,1,,,,,,,00725941201fa.jpg,,,,,,,,,,,,,,,
94,28,Memory,1,,,,,,,00847940307fa.jpg,,,,,,,,,,,,,,,
95,28,Memory,1,,,,,,,00239940128fa.jpg,,,,,,,,,,,,,,,
96,28,Memory,1,,,,,,,00144931230fb.jpg,,,,,,,,,,,,,,,
97,28,Memory,1,,,,,,,00902960530fa.jpg,,,,,,,,,,,,,,,
98,28,Memory,1,,,,,,,sunagountlxpzkytsmp.jpg,,,,,,,,,,,,,,,
99,28,Memory,1,,,,,,,00065931230fb.jpg,,,,,,,,,,,,,,,
100,28,Presentation,2,00889960530fa_sunaletopenvvozhpxc.jpg,00816941205fa_sunahmhrncocyhsjpxk.jpg,00889960530fa.jpg,sunaletopenvvozhpxc.jpg,00816941205fa.jpg,sunahmhrncocyhsjpxk.jpg,,,<,Face,,,,,1,,,,,,,o
101,28,Presentation,2,00124931230fa_sunaalhlvzmjmitybdn.jpg,00266940128fb_sunabkngeblodihjvbk.jpg,00124931230fa.jpg,sunaalhlvzmjmitybdn.jpg,00266940128fb.jpg,sunabkngeblodihjvbk.jpg,,,<,Face,,,,,1,,,,,,,x
102,28,Presentation,2,00270940422fb_sunabllobxadqcyttej.jpg,00993960627fa_sunbprywzqxjcezkbch.jpg,00270940422fb.jpg,sunabllobxadqcyttej.jpg,00993960627fa.jpg,sunbprywzqxjcezkbch.jpg,,,<,Face,,,,,0,,,,,,,x
103,28,Presentation,2,00089931230fa_sunaagcpoejbuzyvddd.jpg,00860940307fa_sunaizeyhvjzknwjudw.jpg,00089931230fa.jpg,sunaagcpoejbuzyvddd.jpg,00860940307fa.jpg,sunaizeyhvjzknwjudw.jpg,,,<,Face,,,,,1,,,,,,,o
104,28,Presentation,2,00913960530fa_sunaooffzffbhcpirmm.jpg,00933960627fa_sunapwjkcxdaeqehfql.jpg,00913960530fa.jpg,sunaooffzffbhcpirmm.jpg,00933960627fa.jpg,sunapwjkcxdaeqehfql.jpg,,,<,Face,,,,,1,,,,,,,o
105,28,Presentation,2,00210940128fb_sunabanoxjtqxamkucc.jpg,00976960627fa_sunbbhqyyzmsxhsbjmp.jpg,00210940128fb.jpg,sunabanoxjtqxamkucc.jpg,00976960627fa.jpg,sunbbhqyyzmsxhsbjmp.jpg,,,<,Face,,,,,1,,,,,,,x
106,28,Presentation,2,00271940422fa_sunabmbnddafmywtjjj.jpg,00885960530fa_sunakwlvxjpddialozd.jpg,00271940422fa.jpg,sunabmbnddafmywtjjj.jpg,00885960530fa.jpg,sunakwlvxjpddialozd.jpg,,,<,Face,,,,,1,,,,,,,o
107,28,Presentation,2,00069931230fb_sunaaeowapdkwzqpgqr.jpg,00208940128fa_sunaazzyhbvqjpmazjq.jpg,00069931230fb.jpg,sunaaeowapdkwzqpgqr.jpg,00208940128fa.jpg,sunaazzyhbvqjpmazjq.jpg,,,<,Face,,,,,1,,,,,,,x
108,28,Presentation,2,00292940422fb_sunabrjdpmoedcdjbpo.jpg,00983960627fa_sunbfyvfqiimvdaxlqn.jpg,00292940422fb.jpg,sunabrjdpmoedcdjbpo.jpg,00983960627fa.jpg,sunbfyvfqiimvdaxlqn.jpg,,,<,Face,,,,,1,,,,,,,x
109,28,Presentation,2,01000960627fa_sunbvzmgrdvaakxusbu.jpg,00950960627fa_sunasrjlmglmjzbmqxb.jpg,01000960627fa.jpg,sunbvzmgrdvaakxusbu.jpg,00950960627fa.jpg,sunasrjlmglmjzbmqxb.jpg,,,<,Face,,,,,1,,,,,,,x
110,28,Memory,2,,,,,,,00919960620fa.jpg,,,,,,,,,,,,,,,
111,28,Memory,2,,,,,,,00766960620fa.jpg,,,,,,,,,,,,,,,
112,28,Memory,2,,,,,,,00983960627fa.jpg,,,,,,,,,,,,,,,
113,28,Memory,2,,,,,,,sunaanlwnpqndclffxt.jpg,,,,,,,,,,,,,,,
114,28,Memory,2,,,,,,,00069931230fb.jpg,,,,,,,,,,,,,,,
115,28,Memory,2,,,,,,,00210940128fb.jpg,,,,,,,,,,,,,,,
116,28,Memory,2,,,,,,,00750941201fa.jpg,,,,,,,,,,,,,,,
117,28,Memory,2,,,,,,,00891960530fa.jpg,,,,,,,,,,,,,,,
118,28,Memory,2,,,,,,,00208940128fa.jpg,,,,,,,,,,,,,,,
119,28,Memory,2,,,,,,,00133931230fa.jpg,,,,,,,,,,,,,,,
120,28,Memory,2,,,,,,,sunaazzyhbvqjpmazjq.jpg,,,,,,,,,,,,,,,
121,28,Memory,2,,,,,,,00060931230fa.jpg,,,,,,,,,,,,,,,
122,28,Memory,2,,,,,,,00889960530fa.jpg,,,,,,,,,,,,,,,
123,28,Memory,2,,,,,,,sunaagcpoejbuzyvddd.jpg,,,,,,,,,,,,,,,
124,28,Memory,2,,,,,,,sunafijbgncijwykrnl.jpg,,,,,,,,,,,,,,,
125,28,Memory,2,,,,,,,sunamlotskmmsjeogby.jpg,,,,,,,,,,,,,,,
126,28,Memory,2,,,,,,,00271940422fa.jpg,,,,,,,,,,,,,,,
127,28,Memory,2,,,,,,,sunaletopenvvozhpxc.jpg,,,,,,,,,,,,,,,
128,28,Memory,2,,,,,,,sunaaeowapdkwzqpgqr.jpg,,,,,,,,,,,,,,,
129,28,Memory,2,,,,,,,sunalkiibhqpxfamlll.jpg,,,,,,,,,,,,,,,
130,28,Memory,2,,,,,,,sunbbhqyyzmsxhsbjmp.jpg,,,,,,,,,,,,,,,
131,28,Memory,2,,,,,,,00868960307fa.jpg,,,,,,,,,,,,,,,
132,28,Memory,2,,,,,,,00089931230fa.jpg,,,,,,,,,,,,,,,
133,28,Memory,2,,,,,,,sunaeuzwggvibufclwf.jpg,,,,,,,,,,,,,,,
134,28,Memory,2,,,,,,,sunaaehaikpckyjsety.jpg,,,,,,,,,,,,,,,
135,28,Memory,2,,,,,,,sunbfyvfqiimvdaxlqn.jpg,,,,,,,,,,,,,,,
136,28,Memory,2,,,,,,,sunajjxttslobudoqbv.jpg,,,,,,,,,,,,,,,
137,28,Memory,2,,,,,,,00900960530fa.jpg,,,,,,,,,,,,,,,
138,28,Memory,2,,,,,,,sunabanoxjtqxamkucc.jpg,,,,,,,,,,,,,,,
139,28,Memory,2,,,,,,,sunaczwgyukesaajxnx.jpg,,,,,,,,,,,,,,,
140,28,Memory,2,,,,,,,sunahmhrncocyhsjpxk.jpg,,,,,,,,,,,,,,,
141,28,Memory,2,,,,,,,00976960627fa.jpg,,,,,,,,,,,,,,,
142,28,Memory,2,,,,,,,sunbprywzqxjcezkbch.jpg,,,,,,,,,,,,,,,
143,28,Memory,2,,,,,,,sunapmfmzadmosuogaz.jpg,,,,,,,,,,,,,,,
144,28,Memory,2,,,,,,,sunbagfpovqwbuexqdn.jpg,,,,,,,,,,,,,,,
145,28,Memory,2,,,,,,,sunabmbnddafmywtjjj.jpg,,,,,,,,,,,,,,,
146,28,Memory,2,,,,,,,00630940928fa.jpg,,,,,,,,,,,,,,,
147,28,Memory,2,,,,,,,00816941205fa.jpg,,,,,,,,,,,,,,,
148,28,Memory,2,,,,,,,00993960627fa.jpg,,,,,,,,,,,,,,,
149,28,Memory,2,,,,,,,00968960627fa.jpg,,,,,,,,,,,,,,,
150,28,Presentation,3,00276940422fa_sunabmytpyhsgigllxu.jpg,00794960620fa_sunagtqhhwxjeuxdebe.jpg,00276940422fa.jpg,sunabmytpyhsgigllxu.jpg,00794960620fa.jpg,sunagtqhhwxjeuxdebe.jpg,,,<,Place,,,,,1,,,,,,,x
151,28,Presentation,3,00102931230fa_sunaajspcoepticvplv.jpg,00564940928fa_sunacmpqqfbsvlzinzl.jpg,00102931230fa.jpg,sunaajspcoepticvplv.jpg,00564940928fa.jpg,sunacmpqqfbsvlzinzl.jpg,,,<,Place,,,,,0,,,,,,,o
152,28,Presentation,3,00747941201fa_sunaeutbrtswvsozxyk.jpg,00966960627fa_sunaygrtwrwfezqjizr.jpg,00747941201fa.jpg,sunaeutbrtswvsozxyk.jpg,00966960627fa.jpg,sunaygrtwrwfezqjizr.jpg,,,<,Place,,,,,1,,,,,,,o
153,28,Presentation,3,00093931230fa_sunaahwnmtqsrhocysw.jpg,00119931230fb_sunaakvmbftkrgqhjun.jpg,00093931230fa.jpg,sunaahwnmtqsrhocysw.jpg,00119931230fb.jpg,sunaakvmbftkrgqhjun.jpg,,,<,Place,,,,,1,,,,,,,o
154,28,Presentation,3,00136931230fb_sunaanptmsknhirrzed.jpg,00922960627fa_sunapqkyghktgtosuuk.jpg,00136931230fb.jpg,sunaanptmsknhirrzed.jpg,00922960627fa.jpg,sunapqkyghktgtosuuk.jpg,,,<,Place,,,,,1,,,,,,,x
155,28,Presentation,3,00140931230fb_sunaapllqyqlykszopd.jpg,00839940307fa_sunaipyohrqlwngaqif.jpg,00140931230fb.jpg,sunaapllqyqlykszopd.jpg,00839940307fa.jpg,sunaipyohrqlwngaqif.jpg,,,<,Place,,,,,1,,,,,,,x
156,28,Presentation,3,00762941201fa_sunafgzgbisbopcyslr.jpg,00996960627fa_sunbpvgllfdejxcpjqp.jpg,00762941201fa.jpg,sunafgzgbisbopcyslr.jpg,00996960627fa.jpg,sunbpvgllfdejxcpjqp.jpg,,,<,Place,,,,,1,,,,,,,o
157,28,Presentation,3,00564941031fa_sunacsaovnjezqwbykf.jpg,00841940307fa_sunaisiwfgppimtnmxl.jpg,00564941031fa.jpg,sunacsaovnjezqwbykf.jpg,00841940307fa.jpg,sunaisiwfgppimtnmxl.jpg,,,<,Place,,,,,1,,,,,,,x
158,28,Presentation,3,00076931230fa_sunaafewhewbxmjiurz.jpg,00804960530fa_sunagwswhkvnsmuszlz.jpg,00076931230fa.jpg,sunaafewhewbxmjiurz.jpg,00804960530fa.jpg,sunagwswhkvnsmuszlz.jpg,,,<,Place,,,,,1,,,,,,,o
159,28,Presentation,3,00893960530Fa_sunaloffvbvysigxent.jpg,00070940307fa_sunaaeplwsfslcbtojr.jpg,00893960530Fa.jpg,sunaloffvbvysigxent.jpg,00070940307fa.jpg,sunaaeplwsfslcbtojr.jpg,,,<,Place,,,,,1,,,,,,,x
160,28,Memory,3,,,,,,,sunaapllqyqlykszopd.jpg,,,,,,,,,,,,,,,
161,28,Memory,3,,,,,,,00996960627fa.jpg,,,,,,,,,,,,,,,
162,28,Memory,3,,,,,,,00276940422fa.jpg,,,,,,,,,,,,,,,
163,28,Memory,3,,,,,,,00762941201fa.jpg,,,,,,,,,,,,,,,
164,28,Memory,3,,,,,,,sunbesrwkdsffeogeqq.jpg,,,,,,,,,,,,,,,
165,28,Memory,3,,,,,,,sunbpvgllfdejxcpjqp.jpg,,,,,,,,,,,,,,,
166,28,Memory,3,,,,,,,sunaqyylsngywqzwfmx.jpg,,,,,,,,,,,,,,,
167,28,Memory,3,,,,,,,00982960627fa.jpg,,,,,,,,,,,,,,,
168,28,Memory,3,,,,,,,sunabwjvmoaddlyxfjr.jpg,,,,,,,,,,,,,,,
169,28,Memory,3,,,,,,,00864940307fa.jpg,,,,,,,,,,,,,,,
170,28,Memory,3,,,,,,,00093931230fa.jpg,,,,,,,,,,,,,,,
171,28,Memory,3,,,,,,,00828940307fa.jpg,,,,,,,,,,,,,,,
172,28,Memory,3,,,,,,,sunaygrtwrwfezqjizr.jpg,,,,,,,,,,,,,,,
173,28,Memory,3,,,,,,,00878960530fa.jpg,,,,,,,,,,,,,,,
174,28,Memory,3,,,,,,,sunafgzgbisbopcyslr.jpg,,,,,,,,,,,,,,,
175,28,Memory,3,,,,,,,sunaahwnmtqsrhocysw.jpg,,,,,,,,,,,,,,,
176,28,Memory,3,,,,,,,00086931230fa.jpg,,,,,,,,,,,,,,,
177,28,Memory,3,,,,,,,sunakgbnzxmfohgehnu.jpg,,,,,,,,,,,,,,,
178,28,Memory,3,,,,,,,00313940422fa.jpg,,,,,,,,,,,,,,,
179,28,Memory,3,,,,,,,sunahuynahneraqftyz.jpg,,,,,,,,,,,,,,,
180,28,Memory,3,,,,,,,00070940307fa.jpg,,,,,,,,,,,,,,,
181,28,Memory,3,,,,,,,00136931230fb.jpg,,,,,,,,,,,,,,,
182,28,Memory,3,,,,,,,00938960627fa.jpg,,,,,,,,,,,,,,,
183,28,Memory,3,,,,,,,sunaafynehyrzpsoaml.jpg,,,,,,,,,,,,,,,
184,28,Memory,3,,,,,,,sunaanptmsknhirrzed.jpg,,,,,,,,,,,,,,,
185,28,Memory,3,,,,,,,00787941205fa.jpg,,,,,,,,,,,,,,,
186,28,Memory,3,,,,,,,sunajawzbrlrwafowen.jpg,,,,,,,,,,,,,,,
187,28,Memory,3,,,,,,,00857940307fa.jpg,,,,,,,,,,,,,,,
188,28,Memory,3,,,,,,,sunabmytpyhsgigllxu.jpg,,,,,,,,,,,,,,,
189,28,Memory,3,,,,,,,sunadnjjzohjhbohlwq.jpg,,,,,,,,,,,,,,,
190,28,Memory,3,,,,,,,00564940928fa.jpg,,,,,,,,,,,,,,,
191,28,Memory,3,,,,,,,sunagtqhhwxjeuxdebe.jpg,,,,,,,,,,,,,,,
192,28,Memory,3,,,,,,,sunaiwfobocrruqznsv.jpg,,,,,,,,,,,,,,,
193,28,Memory,3,,,,,,,00966960627fa.jpg,,,,,,,,,,,,,,,
194,28,Memory,3,,,,,,,00140931230fb.jpg,,,,,,,,,,,,,,,
195,28,Memory,3,,,,,,,00794960620fa.jpg,,,,,,,,,,,,,,,
196,28,Memory,3,,,,,,,sunagmwxxwymwojbvgi.jpg,,,,,,,,,,,,,,,
197,28,Memory,3,,,,,,,sunaaeplwsfslcbtojr.jpg,,,,,,,,,,,,,,,
198,28,Memory,3,,,,,,,00663941121fa.jpg,,,,,,,,,,,,,,,
199,28,Memory,3,,,,,,,sunacmpqqfbsvlzinzl.jpg,,,,,,,,,,,,,,,
200,28,Presentation,4,00227940128fa_sunabckqabszusgcykj.jpg,00123931230fb_sunaalcrrdbjgdztbiz.jpg,00227940128fa.jpg,sunabckqabszusgcykj.jpg,00123931230fb.jpg,sunaalcrrdbjgdztbiz.jpg,,,>,Face,,,,,1,,,,,,,x
201,28,Presentation,4,00777941205fa_sunagcinxkccdtrjmlv.jpg,00743941201fa_sunaeoghzrjarigmwua.jpg,00777941205fa.jpg,sunagcinxkccdtrjmlv.jpg,00743941201fa.jpg,sunaeoghzrjarigmwua.jpg,,,>,Face,,,,,1,,,,,,,x
202,28,Presentation,4,00783941205fa_sunagjeesomrwjsfqie.jpg,00146960620fb_sunaatpeezlljqaxlhj.jpg,00783941205fa.jpg,sunagjeesomrwjsfqie.jpg,00146960620fb.jpg,sunaatpeezlljqaxlhj.jpg,,,>,Face,,,,,1,,,,,,,o
203,28,Presentation,4,00970960627fa_sunbasypfgzjtomktmu.jpg,00631940928fa_sunadbdqzigzwipuipr.jpg,00970960627fa.jpg,sunbasypfgzjtomktmu.jpg,00631940928fa.jpg,sunadbdqzigzwipuipr.jpg,,,>,Face,,,,,1,,,,,,,x
204,28,Presentation,4,00589940928fa_sunacwggadqsfpovdjv.jpg,00822940307fa_sunahqrxievfeusiqlt.jpg,00589940928fa.jpg,sunacwggadqsfpovdjv.jpg,00822940307fa.jpg,sunahqrxievfeusiqlt.jpg,,,>,Face,,,,,0,,,,,,,o
205,28,Presentation,4,00081941031fa_sunaaftlyfudyzuhqzf.jpg,00773960620fa_sunafvsxtzaizojicxx.jpg,00081941031fa.jpg,sunaaftlyfudyzuhqzf.jpg,00773960620fa.jpg,sunafvsxtzaizojicxx.jpg,,,>,Face,,,,,1,,,,,,,o
206,28,Presentation,4,00098931230fa_sunaajpqmulidejvjsr.jpg,00779941205fa_sunagdzlvkqtpnfxfcg.jpg,00098931230fa.jpg,sunaajpqmulidejvjsr.jpg,00779941205fa.jpg,sunagdzlvkqtpnfxfcg.jpg,,,>,Face,,,,,1,,,,,,,x
207,28,Presentation,4,00771941205fa_sunafowswglhxcsufpo.jpg,00662941121fa_sunadkazmlajmohnwfl.jpg,00771941205fa.jpg,sunafowswglhxcsufpo.jpg,00662941121fa.jpg,sunadkazmlajmohnwfl.jpg,,,>,Face,,,,,1,,,,,,,o
208,28,Presentation,4,00763941205fa_sunafhmnhsdurlvddpw.jpg,00810941205fa_sunahctntqrunhdxhtb.jpg,00763941205fa.jpg,sunafhmnhsdurlvddpw.jpg,00810941205fa.jpg,sunahctntqrunhdxhtb.jpg,,,>,Face,,,,,1,,,,,,,o
209,28,Presentation,4,00092931230fa_sunaaheqzstzxuadglu.jpg,00130931230fa_sunaamvxnvouicstkjb.jpg,00092931230fa.jpg,sunaaheqzstzxuadglu.jpg,00130931230fa.jpg,sunaamvxnvouicstkjb.jpg,,,>,Face,,,,,1,,,,,,,o
210,28,Memory,4,,,,,,,00598941031fa.jpg,,,,,,,,,,,,,,,
211,28,Memory,4,,,,,,,sunaaftlyfudyzuhqzf.jpg,,,,,,,,,,,,,,,
212,28,Memory,4,,,,,,,00631940928fa.jpg,,,,,,,,,,,,,,,
213,28,Memory,4,,,,,,,00589940928fa.jpg,,,,,,,,,,,,,,,
214,28,Memory,4,,,,,,,00942960627fa.jpg,,,,,,,,,,,,,,,
215,28,Memory,4,,,,,,,sunaeomlfaabhpswasy.jpg,,,,,,,,,,,,,,,
216,28,Memory,4,,,,,,,sunaddsaeicthrfbkhe.jpg,,,,,,,,,,,,,,,
217,28,Memory,4,,,,,,,00081941031fa.jpg,,,,,,,,,,,,,,,
218,28,Memory,4,,,,,,,00779941205fa.jpg,,,,,,,,,,,,,,,
219,28,Memory,4,,,,,,,sunafhmnhsdurlvddpw.jpg,,,,,,,,,,,,,,,
220,28,Memory,4,,,,,,,sunajtrfunvzdfticna.jpg,,,,,,,,,,,,,,,
221,28,Memory,4,,,,,,,00061931230fb.jpg,,,,,,,,,,,,,,,
222,28,Memory,4,,,,,,,00882960530fa.jpg,,,,,,,,,,,,,,,
223,28,Memory,4,,,,,,,sunadtlxenqqxsyjvix.jpg,,,,,,,,,,,,,,,
224,28,Memory,4,,,,,,,00763941205fa.jpg,,,,,,,,,,,,,,,
225,28,Memory,4,,,,,,,sunahctntqrunhdxhtb.jpg,,,,,,,,,,,,,,,
226,28,Memory,4,,,,,,,00481940519fa.jpg,,,,,,,,,,,,,,,
227,28,Memory,4,,,,,,,00227940128fa.jpg,,,,,,,,,,,,,,,
228,28,Memory,4,,,,,,,00874940307fa.jpg,,,,,,,,,,,,,,,
229,28,Memory,4,,,,,,,sunaknlirqjqiwbbeeg.jpg,,,,,,,,,,,,,,,
230,28,Memory,4,,,,,,,sunacwggadqsfpovdjv.jpg,,,,,,,,,,,,,,,
231,28,Memory,4,,,,,,,00705941205fa.jpg,,,,,,,,,,,,,,,
232,28,Memory,4,,,,,,,sunagdzlvkqtpnfxfcg.jpg,,,,,,,,,,,,,,,
233,28,Memory,4,,,,,,,sunbasypfgzjtomktmu.jpg,,,,,,,,,,,,,,,
234,28,Memory,4,,,,,,,00559940519fa.jpg,,,,,,,,,,,,,,,
235,28,Memory,4,,,,,,,00970960627fa.jpg,,,,,,,,,,,,,,,
236,28,Memory,4,,,,,,,sunadbdqzigzwipuipr.jpg,,,,,,,,,,,,,,,
237,28,Memory,4,,,,,,,00146960620fb.jpg,,,,,,,,,,,,,,,
238,28,Memory,4,,,,,,,sunadkazmlajmohnwfl.jpg,,,,,,,,,,,,,,,
239,28,Memory,4,,,,,,,00662941121fa.jpg,,,,,,,,,,,,,,,
240,28,Memory,4,,,,,,,00810941205fa.jpg,,,,,,,,,,,,,,,
241,28,Memory,4,,,,,,,sunabckqabszusgcykj.jpg,,,,,,,,,,,,,,,
242,28,Memory,4,,,,,,,sunaatpeezlljqaxlhj.jpg,,,,,,,,,,,,,,,
243,28,Memory,4,,,,,,,sunaaekxzjzrfgtkwjf.jpg,,,,,,,,,,,,,,,
244,28,Memory,4,,,,,,,00744941201fa.jpg,,,,,,,,,,,,,,,
245,28,Memory,4,,,,,,,sunacxtcahkymosigud.jpg,,,,,,,,,,,,,,,
246,28,Memory,4,,,,,,,sunarfdklgdnjgeqfjg.jpg,,,,,,,,,,,,,,,
247,28,Memory,4,,,,,,,00635941031fa.jpg,,,,,,,,,,,,,,,
248,28,Memory,4,,,,,,,sunacjkmnpawfzbyvae.jpg,,,,,,,,,,,,,,,
249,28,Memory,4,,,,,,,sunabxsuqbleluwczoy.jpg,,,,,,,,,,,,,,,
250,28,Presentation,5,00562941031fa_sunacjnahdmqfnjfwqx.jpg,00953960627fa_sunatstrpjxhvtbaczf.jpg,00562941031fa.jpg,sunacjnahdmqfnjfwqx.jpg,00953960627fa.jpg,sunatstrpjxhvtbaczf.jpg,,,<,Face,,,,,1,,,,,,,o
251,28,Presentation,5,00984960627fa_sunbfzchmomnvzhbxdg.jpg,00877960530fa_sunajxpkuhbizeveguy.jpg,00984960627fa.jpg,sunbfzchmomnvzhbxdg.jpg,00877960530fa.jpg,sunajxpkuhbizeveguy.jpg,,,<,Face,,,,,1,,,,,,,o
252,28,Presentation,5,00153931230fa_sunaauhozyxzeeqstxi.jpg,00761960627fa_sunafgdqbclkwfocdhg.jpg,00153931230fa.jpg,sunaauhozyxzeeqstxi.jpg,00761960627fa.jpg,sunafgdqbclkwfocdhg.jpg,,,<,Face,,,,,1,,,,,,,x
253,28,Presentation,5,00943960627fa_sunarpsxqkduedrrzyi.jpg,00529940519fa_sunacbeefkxpymwevpk.jpg,00943960627fa.jpg,sunarpsxqkduedrrzyi.jpg,00529940519fa.jpg,sunacbeefkxpymwevpk.jpg,,,<,Face,,,,,1,,,,,,,x
254,28,Presentation,5,00894960620fa_sunalqmfgeadpqsyzpd.jpg,00479940519fa_sunabxsbfwjccqxxzxq.jpg,00894960620fa.jpg,sunalqmfgeadpqsyzpd.jpg,00479940519fa.jpg,sunabxsbfwjccqxxzxq.jpg,,,<,Face,,,,,0,,,,,,,x
255,28,Presentation,5,00908960530fa_sunanwjjyqqwzqrqagd.jpg,00985960627fa_sunbgklxeqjhdbyfhhy.jpg,00908960530fa.jpg,sunanwjjyqqwzqrqagd.jpg,00985960627fa.jpg,sunbgklxeqjhdbyfhhy.jpg,,,<,Face,,,,,0,,,,,,,x
256,28,Presentation,5,00675941121fa_sunadoxcchtmsxewsau.jpg,00989960627fa_sunbondbduabvijnmch.jpg,00675941121fa.jpg,sunadoxcchtmsxewsau.jpg,00989960627fa.jpg,sunbondbduabvijnmch.jpg,,,<,Face,,,,,1,,,,,,,x
257,28,Presentation,5,00242940128fa_sunabcuurugvxwparpk.jpg,00851940307fa_sunaivflshbyfrfzhqb.jpg,00242940128fa.jpg,sunabcuurugvxwparpk.jpg,00851940307fa.jpg,sunaivflshbyfrfzhqb.jpg,,,<,Face,,,,,1,,,,,,,o
258,28,Presentation,5,00859940307fa_sunaiycurtqsfkvcaso.jpg,00306940422fa_sunabueyoajufbkraki.jpg,00859940307fa.jpg,sunaiycurtqsfkvcaso.jpg,00306940422fa.jpg,sunabueyoajufbkraki.jpg,,,<,Face,,,,,0,,,,,,,o
259,28,Presentation,5,00316940422fa_sunabxmguapjekttvwm.jpg,00955960627fb_sunauburywlkjszngcq.jpg,00316940422fa.jpg,sunabxmguapjekttvwm.jpg,00955960627fb.jpg,sunauburywlkjszngcq.jpg,,,<,Face,,,,,1,,,,,,,x
260,28,Memory,5,,,,,,,00316940422fa.jpg,,,,,,,,,,,,,,,
261,28,Memory,5,,,,,,,sunaeisnjeetzmkbuad.jpg,,,,,,,,,,,,,,,
262,28,Memory,5,,,,,,,sunbbgtoeuzierkkajt.jpg,,,,,,,,,,,,,,,
263,28,Memory,5,,,,,,,sunbfzchmomnvzhbxdg.jpg,,,,,,,,,,,,,,,
264,28,Memory,5,,,,,,,sunatstrpjxhvtbaczf.jpg,,,,,,,,,,,,,,,
265,28,Memory,5,,,,,,,sunabueyoajufbkraki.jpg,,,,,,,,,,,,,,,
266,28,Memory,5,,,,,,,00529940519fa.jpg,,,,,,,,,,,,,,,
267,28,Memory,5,,,,,,,00908960530fa.jpg,,,,,,,,,,,,,,,
268,28,Memory,5,,,,,,,00741941201fa.jpg,,,,,,,,,,,,,,,
269,28,Memory,5,,,,,,,00675941121fa.jpg,,,,,,,,,,,,,,,
270,28,Memory,5,,,,,,,sunbvbrvgbpanfrawft.jpg,,,,,,,,,,,,,,,
271,28,Memory,5,,,,,,,sunahrltmuwbiehihpe.jpg,,,,,,,,,,,,,,,
272,28,Memory,5,,,,,,,sunavhxgmgrqsaptynb.jpg,,,,,,,,,,,,,,,
273,28,Memory,5,,,,,,,sunalntxqqadigcletd.jpg,,,,,,,,,,,,,,,
274,28,Memory,5,,,,,,,sunadoxcchtmsxewsau.jpg,,,,,,,,,,,,,,,
275,28,Memory,5,,,,,,,sunaguchqqnrtodtezq.jpg,,,,,,,,,,,,,,,
276,28,Memory,5,,,,,,,00894960620fa.jpg,,,,,,,,,,,,,,,
277,28,Memory,5,,,,,,,00973960627fa.jpg,,,,,,,,,,,,,,,
278,28,Memory,5,,,,,,,sunaemcowdozyphwknd.jpg,,,,,,,,,,,,,,,
279,28,Memory,5,,,,,,,sunabxmguapjekttvwm.jpg,,,,,,,,,,,,,,,
280,28,Memory,5,,,,,,,sunbgklxeqjhdbyfhhy.jpg,,,,,,,,,,,,,,,
281,28,Memory,5,,,,,,,00796941205fa.jpg,,,,,,,,,,,,,,,
282,28,Memory,5,,,,,,,sunacbeefkxpymwevpk.jpg,,,,,,,,,,,,,,,
283,28,Memory,5,,,,,,,00999960627fa.jpg,,,,,,,,,,,,,,,
284,28,Memory,5,,,,,,,00071940128fa.jpg,,,,,,,,,,,,,,,
285,28,Memory,5,,,,,,,00825940307fa.jpg,,,,,,,,,,,,,,,
286,28,Memory,5,,,,,,,sunaivflshbyfrfzhqb.jpg,,,,,,,,,,,,,,,
287,28,Memory,5,,,,,,,00306940422fa.jpg,,,,,,,,,,,,,,,
288,28,Memory,5,,,,,,,sunantryfbloeaomfta.jpg,,,,,,,,,,,,,,,
289,28,Memory,5,,,,,,,00892960530fa.jpg,,,,,,,,,,,,,,,
290,28,Memory,5,,,,,,,00985960627fa.jpg,,,,,,,,,,,,,,,
291,28,Memory,5,,,,,,,00906960530fa.jpg,,,,,,,,,,,,,,,
292,28,Memory,5,,,,,,,sunalqmfgeadpqsyzpd.jpg,,,,,,,,,,,,,,,
293,28,Memory,5,,,,,,,00727941205fa.jpg,,,,,,,,,,,,,,,
294,28,Memory,5,,,,,,,00984960627fa.jpg,,,,,,,,,,,,,,,
295,28,Memory,5,,,,,,,00953960627fa.jpg,,,,,,,,,,,,,,,
296,28,Memory,5,,,,,,,00851940307fa.jpg,,,,,,,,,,,,,,,
297,28,Memory,5,,,,,,,sunanwjjyqqwzqrqagd.jpg,,,,,,,,,,,,,,,
298,28,Memory,5,,,,,,,00957960627fa.jpg,,,,,,,,,,,,,,,
299,28,Memory,5,,,,,,,sunaaexpnawiehinlpy.jpg,,,,,,,,,,,,,,,
300,28,Presentation,6,00638941031fa_sunadfktsqjthoglcsm.jpg,00719941201fa_sunadvithllcgmfxsrn.jpg,00638941031fa.jpg,sunadfktsqjthoglcsm.jpg,00719941201fa.jpg,sunadvithllcgmfxsrn.jpg,,,<,Place,,,,,1,,,,,,,o
301,28,Presentation,6,01005960627fa_sunbwyuesflwdpqtgoy.jpg,00997960627fa_sunbtpilbhhbmhmeuzq.jpg,01005960627fa.jpg,sunbwyuesflwdpqtgoy.jpg,00997960627fa.jpg,sunbtpilbhhbmhmeuzq.jpg,,,<,Place,,,,,1,,,,,,,o
302,28,Presentation,6,00789960620fa_sunagpancjmxqfazssf.jpg,00700941121fa_sunadsgmtznewzyasnk.jpg,00789960620fa.jpg,sunagpancjmxqfazssf.jpg,00700941121fa.jpg,sunadsgmtznewzyasnk.jpg,,,<,Place,,,,,1,,,,,,,o
303,28,Presentation,6,00543940519fa_sunacepzfrmtkiqonpy.jpg,00910960530fa_sunaofikylqtxphvdem.jpg,00543940519fa.jpg,sunacepzfrmtkiqonpy.jpg,00910960530fa.jpg,sunaofikylqtxphvdem.jpg,,,<,Place,,,,,1,,,,,,,o
304,28,Presentation,6,01003960627fb_sunbwdrdvsweerwsdrj.jpg,00540940519fa_sunacdnquypmsshhsbk.jpg,01003960627fb.jpg,sunbwdrdvsweerwsdrj.jpg,00540940519fa.jpg,sunacdnquypmsshhsbk.jpg,,,<,Place,,,,,1,,,,,,,o
305,28,Presentation,6,00812941205fa_sunahgtbwgsmtqeodwh.jpg,00772941201fa_sunafpfpiiujzoesnqg.jpg,00812941205fa.jpg,sunahgtbwgsmtqeodwh.jpg,00772941201fa.jpg,sunafpfpiiujzoesnqg.jpg,,,<,Place,,,,,1,,,,,,,o
306,28,Presentation,6,00807941205fa_sunahawfngukizslzsd.jpg,00965960627fa_sunaydywdmvlfddbxbk.jpg,00807941205fa.jpg,sunahawfngukizslzsd.jpg,00965960627fa.jpg,sunaydywdmvlfddbxbk.jpg,,,<,Place,,,,,1,,,,,,,x
307,28,Presentation,6,00235940128fb_sunabclssnoeuigtawp.jpg,00751960620fa_sunaezuszgtxnmsxdbk.jpg,00235940128fb.jpg,sunabclssnoeuigtawp.jpg,00751960620fa.jpg,sunaezuszgtxnmsxdbk.jpg,,,<,Place,,,,,1,,,,,,,x
308,28,Presentation,6,00795941205fa_sunagtumacdlmciqamz.jpg,00793941205fa_sunagtjwilqjvxohypn.jpg,00795941205fa.jpg,sunagtumacdlmciqamz.jpg,00793941205fa.jpg,sunagtjwilqjvxohypn.jpg,,,<,Place,,,,,1,,,,,,,x
309,28,Presentation,6,00979960627fa_sunbdycacjfaujxitbw.jpg,00647941031fa_sunadflbrkckmepztql.jpg,00979960627fa.jpg,sunbdycacjfaujxitbw.jpg,00647941031fa.jpg,sunadflbrkckmepztql.jpg,,,<,Place,,,,,1,,,,,,,x
310,28,Memory,6,,,,,,,00647941031fa.jpg,,,,,,,,,,,,,,,
311,28,Memory,6,,,,,,,00818940307fa.jpg,,,,,,,,,,,,,,,
312,28,Memory,6,,,,,,,sunadfktsqjthoglcsm.jpg,,,,,,,,,,,,,,,
313,28,Memory,6,,,,,,,00543940519fa.jpg,,,,,,,,,,,,,,,
314,28,Memory,6,,,,,,,sunadochqcucscehsgk.jpg,,,,,,,,,,,,,,,
315,28,Memory,6,,,,,,,00185940422fb.jpg,,,,,,,,,,,,,,,
316,28,Memory,6,,,,,,,sunbwyuesflwdpqtgoy.jpg,,,,,,,,,,,,,,,
317,28,Memory,6,,,,,,,00959960627fa.jpg,,,,,,,,,,,,,,,
318,28,Memory,6,,,,,,,00302940422fa.jpg,,,,,,,,,,,,,,,
319,28,Memory,6,,,,,,,sunadflbrkckmepztql.jpg,,,,,,,,,,,,,,,
320,28,Memory,6,,,,,,,sunagpancjmxqfazssf.jpg,,,,,,,,,,,,,,,
321,28,Memory,6,,,,,,,00633940928fa.jpg,,,,,,,,,,,,,,,
322,28,Memory,6,,,,,,,00670941121fa.jpg,,,,,,,,,,,,,,,
323,28,Memory,6,,,,,,,sunacerqowiaeoqkmsq.jpg,,,,,,,,,,,,,,,
324,28,Memory,6,,,,,,,sunadbhmrgrrpyzglxs.jpg,,,,,,,,,,,,,,,
325,28,Memory,6,,,,,,,sunafpfpiiujzoesnqg.jpg,,,,,,,,,,,,,,,
326,28,Memory,6,,,,,,,00638941031fa.jpg,,,,,,,,,,,,,,,
327,28,Memory,6,,,,,,,sunaakjaacuzulqckgl.jpg,,,,,,,,,,,,,,,
328,28,Memory,6,,,,,,,sunavxokzybtomhbmvm.jpg,,,,,,,,,,,,,,,
329,28,Memory,6,,,,,,,01005960627fa.jpg,,,,,,,,,,,,,,,
330,28,Memory,6,,,,,,,00700941121fa.jpg,,,,,,,,,,,,,,,
331,28,Memory,6,,,,,,,sunabtlfmiwtljmoues.jpg,,,,,,,,,,,,,,,
332,28,Memory,6,,,,,,,sunacdnquypmsshhsbk.jpg,,,,,,,,,,,,,,,
333,28,Memory,6,,,,,,,sunafvtpfczkzopbgue.jpg,,,,,,,,,,,,,,,
334,28,Memory,6,,,,,,,00812941205fa.jpg,,,,,,,,,,,,,,,
335,28,Memory,6,,,,,,,00548940519fa.jpg,,,,,,,,,,,,,,,
336,28,Memory,6,,,,,,,00789960620fa.jpg,,,,,,,,,,,,,,,
337,28,Memory,6,,,,,,,00774941201fa.jpg,,,,,,,,,,,,,,,
338,28,Memory,6,,,,,,,sunahgtbwgsmtqeodwh.jpg,,,,,,,,,,,,,,,
339,28,Memory,6,,,,,,,00540940519fa.jpg,,,,,,,,,,,,,,,
340,28,Memory,6,,,,,,,00112931230fa.jpg,,,,,,,,,,,,,,,
341,28,Memory,6,,,,,,,00772941201fa.jpg,,,,,,,,,,,,,,,
342,28,Memory,6,,,,,,,sunadsgmtznewzyasnk.jpg,,,,,,,,,,,,,,,
343,28,Memory,6,,,,,,,sunacepzfrmtkiqonpy.jpg,,,,,,,,,,,,,,,
344,28,Memory,6,,,,,,,sunaawqdbpihmlbwyyn.jpg,,,,,,,,,,,,,,,
345,28,Memory,6,,,,,,,sunabkmdplkdbvxriff.jpg,,,,,,,,,,,,,,,
346,28,Memory,6,,,,,,,00265940128fb.jpg,,,,,,,,,,,,,,,
347,28,Memory,6,,,,,,,sunahpblecxtmuzkmxb.jpg,,,,,,,,,,,,,,,
348,28,Memory,6,,,,,,,sunaydywdmvlfddbxbk.jpg,,,,,,,,,,,,,,,
349,28,Memory,6,,,,,,,00965960627fa.jpg,,,,,,,,,,,,,,,
350,28,Presentation,7,00745941205fa_sunaeouogqolxvggaoq.jpg,00129931230fb_sunaamsdyakblkfoydx.jpg,00745941205fa.jpg,sunaeouogqolxvggaoq.jpg,00129931230fb.jpg,sunaamsdyakblkfoydx.jpg,,,>,Place,,,,,1,,,,,,,x
351,28,Presentation,7,00571940928fa_sunacuatpqpqhyjhjqk.jpg,00116931230fa_sunaakqepfoeqomfgxf.jpg,00571940928fa.jpg,sunacuatpqpqhyjhjqk.jpg,00116931230fa.jpg,sunaakqepfoeqomfgxf.jpg,,,>,Place,,,,,1,,,,,,,x
352,28,Presentation,7,00785941205fa_sunaglqunwuycxydmyu.jpg,01010960627fa_suncnkvbhypnivcohyx.jpg,00785941205fa.jpg,sunaglqunwuycxydmyu.jpg,01010960627fa.jpg,suncnkvbhypnivcohyx.jpg,,,>,Place,,,,,1,,,,,,,o
353,28,Presentation,7,00977960627fa_sunbbxkanhzjgbwyxqs.jpg,00972960627fa_sunbbfqwjpdxniyhies.jpg,00977960627fa.jpg,sunbbxkanhzjgbwyxqs.jpg,00972960627fa.jpg,sunbbfqwjpdxniyhies.jpg,,,>,Place,,,,,1,,,,,,,x
354,28,Presentation,7,00483940519fa_sunabyvpwkgsjtijdwj.jpg,00909960530_sunaobtizabegtwfwul.jpg,00483940519fa.jpg,sunabyvpwkgsjtijdwj.jpg,00909960530.jpg,sunaobtizabegtwfwul.jpg,,,>,Place,,,,,1,,,,,,,o
355,28,Presentation,7,00742941201fa_sunaenwuebvlpdmntju.jpg,00063931230fa_sunaaelyvurpntclgau.jpg,00742941201fa.jpg,sunaenwuebvlpdmntju.jpg,00063931230fa.jpg,sunaaelyvurpntclgau.jpg,,,>,Place,,,,,1,,,,,,,x
356,28,Presentation,7,00498960627fa_sunabzjxlmkwnwzimua.jpg,00768941205fa_sunafkmnlytenlsywia.jpg,00498960627fa.jpg,sunabzjxlmkwnwzimua.jpg,00768941205fa.jpg,sunafkmnlytenlsywia.jpg,,,>,Place,,,,,1,,,,,,,x
357,28,Presentation,7,00987960627fa_sunbloeoiozwjjsiamp.jpg,00115931230fa_sunaakmxzhuceuiryah.jpg,00987960627fa.jpg,sunbloeoiozwjjsiamp.jpg,00115931230fa.jpg,sunaakmxzhuceuiryah.jpg,,,>,Place,,,,,1,,,,,,,o
358,28,Presentation,7,00314940422fa_sunabwmcbaxwioksdgw.jpg,00792941205fa_sunagsiwrmuixqgdimb.jpg,00314940422fa.jpg,sunabwmcbaxwioksdgw.jpg,00792941205fa.jpg,sunagsiwrmuixqgdimb.jpg,,,>,Place,,,,,1,,,,,,,x
359,28,Presentation,7,00791941205fa_sunagrmyoovzukhxmlo.jpg,00197940128fa_sunaaylzyqlqrsmfwif.jpg,00791941205fa.jpg,sunagrmyoovzukhxmlo.jpg,00197940128fa.jpg,sunaaylzyqlqrsmfwif.jpg,,,>,Place,,,,,0,,,,,,,x
360,28,Memory,7,,,,,,,sunaenwuebvlpdmntju.jpg,,,,,,,,,,,,,,,
361,28,Memory,7,,,,,,,sunacsdhbbsybcyxnel.jpg,,,,,,,,,,,,,,,
362,28,Memory,7,,,,,,,sunbbxkanhzjgbwyxqs.jpg,,,,,,,,,,,,,,,
363,28,Memory,7,,,,,,,00949960627fb.jpg,,,,,,,,,,,,,,,
364,28,Memory,7,,,,,,,sunayaepykrqvenaqqy.jpg,,,,,,,,,,,,,,,
365,28,Memory,7,,,,,,,00116931230fa.jpg,,,,,,,,,,,,,,,
366,28,Memory,7,,,,,,,sunaakgekhjklxmvulj.jpg,,,,,,,,,,,,,,,
367,28,Memory,7,,,,,,,sunaobtizabegtwfwul.jpg,,,,,,,,,,,,,,,
368,28,Memory,7,,,,,,,00111931230fb.jpg,,,,,,,,,,,,,,,
369,28,Memory,7,,,,,,,00120931230fa.jpg,,,,,,,,,,,,,,,
370,28,Memory,7,,,,,,,00909960530.jpg,,,,,,,,,,,,,,,
371,28,Memory,7,,,,,,,sunabjzyxcjnmztdonj.jpg,,,,,,,,,,,,,,,
372,28,Memory,7,,,,,,,sunaaelyvurpntclgau.jpg,,,,,,,,,,,,,,,
373,28,Memory,7,,,,,,,00745941205fa.jpg,,,,,,,,,,,,,,,
374,28,Memory,7,,,,,,,00142931230fb.jpg,,,,,,,,,,,,,,,
375,28,Memory,7,,,,,,,sunaeouogqolxvggaoq.jpg,,,,,,,,,,,,,,,
376,28,Memory,7,,,,,,,00742941201fa.jpg,,,,,,,,,,,,,,,
377,28,Memory,7,,,,,,,sunaakmxzhuceuiryah.jpg,,,,,,,,,,,,,,,
378,28,Memory,7,,,,,,,00931960627fa.jpg,,,,,,,,,,,,,,,
379,28,Memory,7,,,,,,,00154931230fa.jpg,,,,,,,,,,,,,,,
380,28,Memory,7,,,,,,,sunaakxgygjfqrzpyoz.jpg,,,,,,,,,,,,,,,
381,28,Memory,7,,,,,,,00986960627fa.jpg,,,,,,,,,,,,,,,
382,28,Memory,7,,,,,,,sunaauueuhhvklldjik.jpg,,,,,,,,,,,,,,,
383,28,Memory,7,,,,,,,00963960627fa.jpg,,,,,,,,,,,,,,,
384,28,Memory,7,,,,,,,sunasnqkkyhilqkxiqm.jpg,,,,,,,,,,,,,,,
385,28,Memory,7,,,,,,,00115931230fa.jpg,,,,,,,,,,,,,,,
386,28,Memory,7,,,,,,,sunabzjxlmkwnwzimua.jpg,,,,,,,,,,,,,,,
387,28,Memory,7,,,,,,,sunaptrqvaooxfvktvw.jpg,,,,,,,,,,,,,,,
388,28,Memory,7,,,,,,,01010960627fa.jpg,,,,,,,,,,,,,,,
389,28,Memory,7,,,,,,,00264940128fb.jpg,,,,,,,,,,,,,,,
390,28,Memory,7,,,,,,,00977960627fa.jpg,,,,,,,,,,,,,,,
391,28,Memory,7,,,,,,,00483940519fa.jpg,,,,,,,,,,,,,,,
392,28,Memory,7,,,,,,,00063931230fa.jpg,,,,,,,,,,,,,,,
393,28,Memory,7,,,,,,,sunbgzjryivyczuvkvm.jpg,,,,,,,,,,,,,,,
394,28,Memory,7,,,,,,,00568940928fa.jpg,,,,,,,,,,,,,,,
395,28,Memory,7,,,,,,,sunaapxkpvrhpjplsok.jpg,,,,,,,,,,,,,,,
396,28,Memory,7,,,,,,,sunabyvpwkgsjtijdwj.jpg,,,,,,,,,,,,,,,
397,28,Memory,7,,,,,,,suncnkvbhypnivcohyx.jpg,,,,,,,,,,,,,,,
398,28,Memory,7,,,,,,,00498960627fa.jpg,,,,,,,,,,,,,,,
399,28,Memory,7,,,,,,,sunaakqepfoeqomfgxf.jpg,,,,,,,,,,,,,,,
