,Subject,Trial Type,Run,Cued Composite,Uncued Composite,Cued Face,Cued Place,Uncued Face,Uncued Place,Memory Image,Category,Cued Side,Cued Category,Attention Reaction Time (s),Familiarity Reaction Time (s),Familiarity Rating,Attention Level,Cue Validity,Post Invalid Cue,Pre Invalid Cue,Attention Button,Rating History,Stimulus Onset,Stimulus End,Attention Probe
0,28,Presentation,0,00794960620fa_sunagtqhhwxjeuxdebe.jpg,00747941201fa_sunaeutbrtswvsozxyk.jpg,00794960620fa.jpg,sunagtqhhwxjeuxdebe.jpg,00747941201fa.jpg,sunaeutbrtswvsozxyk.jpg,,,<,Place,,,,,1,,,,,,,x
1,28,Presentation,0,00138931230fa_sunaapfaivxqoynnwwp.jpg,00071941031fa_sunaaexqbtdswxrqjvz.jpg,00138931230fa.jpg,sunaapfaivxqoynnwwp.jpg,00071941031fa.jpg,sunaaexqbtdswxrqjvz.jpg,,,>,Face,,,,,1,,,,,,,o
2,28,Presentation,0,00076931230fa_sunaafewhewbxmjiurz.jpg,00218940128fa_sunabbwggenhfbftyvi.jpg,00076931230fa.jpg,sunaafewhewbxmjiurz.jpg,00218940128fa.jpg,sunabbwggenhfbftyvi.jpg,,,<,Face,,,,,1,,,,,,,o
3,28,Presentation,0,00288940422fa_sunabppokiyglaxpcha.jpg,00210940128fb_sunabanoxjtqxamkucc.jpg,00288940422fa.jpg,sunabppokiyglaxpcha.jpg,00210940128fb.jpg,sunabanoxjtqxamkucc.jpg,,,>,Face,,,,,1,,,,,,,o
4,28,Presentation,0,00834940307fa_sunaibnpvhkdpdnzcnz.jpg,00073931230fa_sunaafbmtoniaasysgu.jpg,00834940307fa.jpg,sunaibnpvhkdpdnzcnz.jpg,00073931230fa.jpg,sunaafbmtoniaasysgu.jpg,,,<,Face,,,,,1,,,,,,,o
5,28,Presentation,0,01010960627fa_suncnkvbhypnivcohyx.jpg,00979960627fa_sunbdycacjfaujxitbw.jpg,01010960627fa.jpg,suncnkvbhypnivcohyx.jpg,00979960627fa.jpg,sunbdycacjfaujxitbw.jpg,,,>,Place,,,,,1,,,,,,,x
6,28,Presentation,0,00197940128fa_sunaaylzyqlqrsmfwif.jpg,00532960627fa_sunaccdtpgenvcbcbcf.jpg,00197940128fa.jpg,sunaaylzyqlqrsmfwif.jpg,00532960627fa.jpg,sunaccdtpgenvcbcbcf.jpg,,,<,Face,,,,,1,,,,,,,x
7,28,Presentation,0,00648941031fa_sunadfndyrtqqiasoig.jpg,00935960627fa_sunaqbmgkgqucajzrkp.jpg,00648941031fa.jpg,sunadfndyrtqqiasoig.jpg,00935960627fa.jpg,sunaqbmgkgqucajzrkp.jpg,,,>,Place,,,,,1,,,,,,,o
8,28,Presentation,0,00775941205fa_sunafvwfsmqkjrutjta.jpg,00902960530fa_sunanaacmmosxrfwmvl.jpg,00775941205fa.jpg,sunafvwfsmqkjrutjta.jpg,00902960530fa.jpg,sunanaacmmosxrfwmvl.jpg,,,<,Place,,,,,1,,,,,,,x
9,28,Presentation,0,00999960627fa_sunbvbrvgbpanfrawft.jpg,00815941205fa_sunahiphsekjihkafsl.jpg,00999960627fa.jpg,sunbvbrvgbpanfrawft.jpg,00815941205fa.jpg,sunahiphsekjihkafsl.jpg,,,>,Place,,,,,1,,,,,,,o
10,28,Memory,0,,,,,,,sunaafewhewbxmjiurz.jpg,,,,,,,,,,,,,,,
11,28,Memory,0,,,,,,,sunaivflshbyfrfzhqb.jpg,,,,,,,,,,,,,,,
12,28,Memory,0,,,,,,,sunamkmeblgteyggink.jpg,,,,,,,,,,,,,,,
13,28,Memory,0,,,,,,,sunabqowuarvqqcnipn.jpg,,,,,,,,,,,,,,,
14,28,Memory,0,,,,,,,sunadbdqzigzwipuipr.jpg,,,,,,,,,,,,,,,
15,28,Memory,0,,,,,,,00290940422fa.jpg,,,,,,,,,,,,,,,
16,28,Memory,0,,,,,,,sunabaergayifsgacxt.jpg,,,,,,,,,,,,,,,
17,28,Memory,0,,,,,,,sunadfndyrtqqiasoig.jpg,,,,,,,,,,,,,,,
18,28,Memory,0,,,,,,,00851940307fa.jpg,,,,,,,,,,,,,,,
19,28,Memory,0,,,,,,,00898960530fa.jpg,,,,,,,,,,,,,,,
20,28,Memory,0,,,,,,,00775941205fa.jpg,,,,,,,,,,,,,,,
21,28,Memory,0,,,,,,,sunaibnpvhkdpdnzcnz.jpg,,,,,,,,,,,,,,,
22,28,Memory,0,,,,,,,00794960620fa.jpg,,,,,,,,,,,,,,,
23,28,Memory,0,,,,,,,00967960627fa.jpg,,,,,,,,,,,,,,,
24,28,Memory,0,,,,,,,00935960627fa.jpg,,,,,,,,,,,,,,,
25,28,Memory,0,,,,,,,sunaqbmgkgqucajzrkp.jpg,,,,,,,,,,,,,,,
26,28,Memory,0,,,,,,,sunafvwfsmqkjrutjta.jpg,,,,,,,,,,,,,,,
27,28,Memory,0,,,,,,,00631940928fa.jpg,,,,,,,,,,,,,,,
28,28,Memory,0,,,,,,,00076931230fa.jpg,,,,,,,,,,,,,,,
29,28,Memory,0,,,,,,,00834940307fa.jpg,,,,,,,,,,,,,,,
30,28,Memory,0,,,,,,,sunaafbmtoniaasysgu.jpg,,,,,,,,,,,,,,,
31,28,Memory,0,,,,,,,sunahiphsekjihkafsl.jpg,,,,,,,,,,,,,,,
32,28,Memory,0,,,,,,,sunaeutbrtswvsozxyk.jpg,,,,,,,,,,,,,,,
33,28,Memory,0,,,,,,,sunagtqhhwxjeuxdebe.jpg,,,,,,,,,,,,,,,
34,28,Memory,0,,,,,,,00648941031fa.jpg,,,,,,,,,,,,,,,
35,28,Memory,0,,,,,,,00313940422fa.jpg,,,,,,,,,,,,,,,
36,28,Memory,0,,,,,,,00747941201fa.jpg,,,,,,,,,,,,,,,
37,28,Memory,0,,,,,,,00532960627fa.jpg,,,,,,,,,,,,,,,
38,28,Memory,0,,,,,,,00839940307fa.jpg,,,,,,,,,,,,,,,
39,28,Memory,0,,,,,,,00260940128fa.jpg,,,,,,,,,,,,,,,
40,28,Memory,0,,,,,,,sunabgfhvifeijihhjw.jpg,,,,,,,,,,,,,,,
41,28,Memory,0,,,,,,,sunbaejotfklekvpxcz.jpg,,,,,,,,,,,,,,,
42,28,Memory,0,,,,,,,00543940519fa.jpg,,,,,,,,,,,,,,,
43,28,Memory,0,,,,,,,sunaccdtpgenvcbcbcf.jpg,,,,,,,,,,,,,,,
44,28,Memory,0,,,,,,,00209940128fb.jpg,,,,,,,,,,,,,,,
45,28,Memory,0,,,,,,,sunaipyohrqlwngaqif.jpg,,,,,,,,,,,,,,,
46,28,Memory,0,,,,,,,sunacepzfrmtkiqonpy.jpg,,,,,,,,,,,,,,,
47,28,Memory,0,,,,,,,00815941205fa.jpg,,,,,,,,,,,,,,,
48,28,Memory,0,,,,,,,sunabwjvmoaddlyxfjr.jpg,,,,,,,,,,,,,,,
49,28,Memory,0,,,,,,,00073931230fa.jpg,,,,,,,,,,,,,,,
50,28,Presentation,1,00753941201fa_sunafcofuuzebuadceo.jpg,00799941205fa_sunagutjvdvnhxejerz.jpg,00753941201fa.jpg,sunafcofuuzebuadceo.jpg,00799941205fa.jpg,sunagutjvdvnhxejerz.jpg,,,<,Face,,,,,1,,,,,,,o
51,28,Presentation,1,00776941205fa_sunafxokyavhgptyfye.jpg,00953960627fa_sunatstrpjxhvtbaczf.jpg,00776941205fa.jpg,sunafxokyavhgptyfye.jpg,00953960627fa.jpg,sunatstrpjxhvtbaczf.jpg,,,<,Place,,,,,1,,,,,,,o
52,28,Presentation,1,00198940128fb_sunaazezcsunmhttzxz.jpg,00280940422fb_sunabohxbskznglnrhv.jpg,00198940128fb.jpg,sunaazezcsunmhttzxz.jpg,00280940422fb.jpg,sunabohxbskznglnrhv.jpg,,,>,Face,,,,,0,,,,,,,o
53,28,Presentation,1,00752960620fa_sunafbwnojpqeyzssoe.jpg,00871940307_sunajrujcsdxmfbssmc.jpg,00752960620fa.jpg,sunafbwnojpqeyzssoe.jpg,00871940307.jpg,sunajrujcsdxmfbssmc.jpg,,,>,Place,,,,,0,,,,,,,x
54,28,Presentation,1,00777941205fa_sunagcinxkccdtrjmlv.jpg,00263940128fb_sunabjuovqvyfuzvqwt.jpg,00777941205fa.jpg,sunagcinxkccdtrjmlv.jpg,00263940128fb.jpg,sunabjuovqvyfuzvqwt.jpg,,,>,Face,,,,,1,,,,,,,x
55,28,Presentation,1,00235940128fb_sunabclssnoeuigtawp.jpg,00982960627fa_sunbesrwkdsffeogeqq.jpg,00235940128fb.jpg,sunabclssnoeuigtawp.jpg,00982960627fa.jpg,sunbesrwkdsffeogeqq.jpg,,,<,Place,,,,,1,,,,,,,o
56,28,Presentation,1,00772941201fa_sunafpfpiiujzoesnqg.jpg,00529940519fa_sunacbeefkxpymwevpk.jpg,00772941201fa.jpg,sunafpfpiiujzoesnqg.jpg,00529940519fa.jpg,sunacbeefkxpymwevpk.jpg,,,<,Face,,,,,1,,,,,,,o
57,28,Presentation,1,00063931230fa_sunaaelyvurpntclgau.jpg,00125931230fa_sunaalltyvjhbzhkmvg.jpg,00063931230fa.jpg,sunaaelyvurpntclgau.jpg,00125931230fa.jpg,sunaalltyvjhbzhkmvg.jpg,,,>,Place,,,,,1,,,,,,,x
58,28,Presentation,1,00792941205fa_sunagsiwrmuixqgdimb.jpg,00942960627fa_sunarfdklgdnjgeqfjg.jpg,00792941205fa.jpg,sunagsiwrmuixqgdimb.jpg,00942960627fa.jpg,sunarfdklgdnjgeqfjg.jpg,,,<,Face,,,,,0,,,,,,,o
59,28,Presentation,1,00647941031fa_sunadflbrkckmepztql.jpg,00973960627fa_sunbbgtoeuzierkkajt.jpg,00647941031fa.jpg,sunadflbrkckmepztql.jpg,00973960627fa.jpg,sunbbgtoeuzierkkajt.jpg,,,>,Place,,,,,1,,,,,,,o
60,28,Memory,1,,,,,,,00977960627fa.jpg,,,,,,,,,,,,,,,
61,28,Memory,1,,,,,,,sunaaekxzjzrfgtkwjf.jpg,,,,,,,,,,,,,,,
62,28,Memory,1,,,,,,,sunaapllqyqlykszopd.jpg,,,,,,,,,,,,,,,
63,28,Memory,1,,,,,,,00792941205fa.jpg,,,,,,,,,,,,,,,
64,28,Memory,1,,,,,,,00061931230fb.jpg,,,,,,,,,,,,,,,
65,28,Memory,1,,,,,,,sunahedfrhtcwpneund.jpg,,,,,,,,,,,,,,,
66,28,Memory,1,,,,,,,00953960627fa.jpg,,,,,,,,,,,,,,,
67,28,Memory,1,,,,,,,00235940128fb.jpg,,,,,,,,,,,,,,,
68,28,Memory,1,,,,,,,sunaalltyvjhbzhkmvg.jpg,,,,,,,,,,,,,,,
69,28,Memory,1,,,,,,,sunarfdklgdnjgeqfjg.jpg,,,,,,,,,,,,,,,
70,28,Memory,1,,,,,,,sunabxsbfwjccqxxzxq.jpg,,,,,,,,,,,,,,,
71,28,Memory,1,,,,,,,sunacbeefkxpymwevpk.jpg,,,,,,,,,,,,,,,
72,28,Memory,1,,,,,,,sunapqwoeotxshkukbh.jpg,,,,,,,,,,,,,,,
73,28,Memory,1,,,,,,,sunajoveqhiprwqgoco.jpg,,,,,,,,,,,,,,,
74,28,Memory,1,,,,,,,sunafxokyavhgptyfye.jpg,,,,,,,,,,,,,,,
75,28,Memory,1,,,,,,,00973960627fa.jpg,,,,,,,,,,,,,,,
76,28,Memory,1,,,,,,,00142931230fb.jpg,,,,,,,,,,,,,,,
77,28,Memory,1,,,,,,,sunaapxkpvrhpjplsok.jpg,,,,,,,,,,,,,,,
78,28,Memory,1,,,,,,,00063931230fa.jpg,,,,,,,,,,,,,,,
79,28,Memory,1,,,,,,,00140931230fb.jpg,,,,,,,,,,,,,,,
80,28,Memory,1,,,,,,,00776941205fa.jpg,,,,,,,,,,,,,,,
81,28,Memory,1,,,,,,,00529940519fa.jpg,,,,,,,,,,,,,,,
82,28,Memory,1,,,,,,,sunabclssnoeuigtawp.jpg,,,,,,,,,,,,,,,
83,28,Memory,1,,,,,,,00479940519fa.jpg,,,,,,,,,,,,,,,
84,28,Memory,1,,,,,,,00198940128fb.jpg,,,,,,,,,,,,,,,
85,28,Memory,1,,,,,,,sunbbgtoeuzierkkajt.jpg,,,,,,,,,,,,,,,
86,28,Memory,1,,,,,,,sunaaelyvurpntclgau.jpg,,,,,,,,,,,,,,,
87,28,Memory,1,,,,,,,sunbbxkanhzjgbwyxqs.jpg,,,,,,,,,,,,,,,
88,28,Memory,1,,,,,,,00811960530fa.jpg,,,,,,,,,,,,,,,
89,28,Memory,1,,,,,,,sunaqgjuuwvdcyiccjt.jpg,,,,,,,,,,,,,,,
90,28,Memory,1,,,,,,,sunagsiwrmuixqgdimb.jpg,,,,,,,,,,,,,,,
91,28,Memory,1,,,,,,,sunatstrpjxhvtbaczf.jpg,,,,,,,,,,,,,,,
92,28,Memory,1,,,,,,,sunaanjcbzdvtvblsdy.jpg,,,,,,,,,,,,,,,
93,28,Memory,1,,,,,,,sunaazezcsunmhttzxz.jpg,,,,,,,,,,,,,,,
94,28,Memory,1,,,,,,,00125931230fa.jpg,,,,,,,,,,,,,,,
95,28,Memory,1,,,,,,,00936960627fa.jpg,,,,,,,,,,,,,,,
96,28,Memory,1,,,,,,,00942960627fa.jpg,,,,,,,,,,,,,,,
97,28,Memory,1,,,,,,,00132931230fb.jpg,,,,,,,,,,,,,,,
98,28,Memory,1,,,,,,,00869940307fa.jpg,,,,,,,,,,,,,,,
99,28,Memory,1,,,,,,,00926960627Fa.jpg,,,,,,,,,,,,,,,
100,28,Presentation,2,00080931230fb_sunaafjszryxyavjzln.jpg,00976960627fa_sunbbhqyyzmsxhsbjmp.jpg,00080931230fb.jpg,sunaafjszryxyavjzln.jpg,00976960627fa.jpg,sunbbhqyyzmsxhsbjmp.jpg,,,>,Face,,,,,1,,,,,,,x
101,28,Presentation,2,00081941031fa_sunaaftlyfudyzuhqzf.jpg,00893960530Fa_sunaloffvbvysigxent.jpg,00081941031fa.jpg,sunaaftlyfudyzuhqzf.jpg,00893960530Fa.jpg,sunaloffvbvysigxent.jpg,,,<,Place,,,,,1,,,,,,,x
102,28,Presentation,2,00194940128fb_sunaayehfdqcyxggsej.jpg,00788941205fa_sunagountlxpzkytsmp.jpg,00194940128fb.jpg,sunaayehfdqcyxggsej.jpg,00788941205fa.jpg,sunagountlxpzkytsmp.jpg,,,>,Face,,,,,1,,,,,,,o
103,28,Presentation,2,00971960627fa_sunbbegcweqnetpdlrh.jpg,00793941205fa_sunagtjwilqjvxohypn.jpg,00971960627fa.jpg,sunbbegcweqnetpdlrh.jpg,00793941205fa.jpg,sunagtjwilqjvxohypn.jpg,,,>,Place,,,,,0,,,,,,,x
104,28,Presentation,2,00801941205fa_sunagvprlbprarvgdvj.jpg,00915960620fa_sunapileznnbbmrwoei.jpg,00801941205fa.jpg,sunagvprlbprarvgdvj.jpg,00915960620fa.jpg,sunapileznnbbmrwoei.jpg,,,<,Face,,,,,1,,,,,,,x
105,28,Presentation,2,00847940307fa_sunaivdjruhkrfywfed.jpg,00221940128fa_sunabcfpwlpolnutyju.jpg,00847940307fa.jpg,sunaivdjruhkrfywfed.jpg,00221940128fa.jpg,sunabcfpwlpolnutyju.jpg,,,<,Face,,,,,1,,,,,,,o
106,28,Presentation,2,00193940928fa_sunaaxjpzcnxligjtjq.jpg,00184940128fa_sunaavtbadenwnzeutj.jpg,00193940928fa.jpg,sunaaxjpzcnxligjtjq.jpg,00184940128fa.jpg,sunaavtbadenwnzeutj.jpg,,,<,Place,,,,,1,,,,,,,o
107,28,Presentation,2,00305940422fa_sunabtrnbvpppgczjim.jpg,00122931230fa_sunaakxjfbrrequcjmx.jpg,00305940422fa.jpg,sunabtrnbvpppgczjim.jpg,00122931230fa.jpg,sunaakxjfbrrequcjmx.jpg,,,<,Place,,,,,1,,,,,,,x
108,28,Presentation,2,00931960627fa_sunaptrqvaooxfvktvw.jpg,00675941121fa_sunadoxcchtmsxewsau.jpg,00931960627fa.jpg,sunaptrqvaooxfvktvw.jpg,00675941121fa.jpg,sunadoxcchtmsxewsau.jpg,,,>,Face,,,,,1,,,,,,,o
109,28,Presentation,2,00559940519fa_sunacjkmnpawfzbyvae.jpg,00887960530_sunalcrtwiycqobgelp.jpg,00559940519fa.jpg,sunacjkmnpawfzbyvae.jpg,00887960530.jpg,sunalcrtwiycqobgelp.jpg,,,>,Place,,,,,1,,,,,,,x
110,28,Memory,2,,,,,,,00788941205fa.jpg,,,,,,,,,,,,,,,
111,28,Memory,2,,,,,,,sunagjeesomrwjsfqie.jpg,,,,,,,,,,,,,,,
112,28,Memory,2,,,,,,,sunaptrqvaooxfvktvw.jpg,,,,,,,,,,,,,,,
113,28,Memory,2,,,,,,,sunalcrtwiycqobgelp.jpg,,,,,,,,,,,,,,,
114,28,Memory,2,,,,,,,sunadoxcchtmsxewsau.jpg,,,,,,,,,,,,,,,
115,28,Memory,2,,,,,,,sunabrlndkruqokhury.jpg,,,,,,,,,,,,,,,
116,28,Memory,2,,,,,,,sunagvprlbprarvgdvj.jpg,,,,,,,,,,,,,,,
117,28,Memory,2,,,,,,,sunbondbduabvijnmch.jpg,,,,,,,,,,,,,,,
118,28,Memory,2,,,,,,,sunalntxqqadigcletd.jpg,,,,,,,,,,,,,,,
119,28,Memory,2,,,,,,,sunacjkmnpawfzbyvae.jpg,,,,,,,,,,,,,,,
120,28,Memory,2,,,,,,,00069931230fb.jpg,,,,,,,,,,,,,,,
121,28,Memory,2,,,,,,,00986960627fa.jpg,,,,,,,,,,,,,,,
122,28,Memory,2,,,,,,,00314940422fa.jpg,,,,,,,,,,,,,,,
123,28,Memory,2,,,,,,,00893960530Fa.jpg,,,,,,,,,,,,,,,
124,28,Memory,2,,,,,,,sunbbegcweqnetpdlrh.jpg,,,,,,,,,,,,,,,
125,28,Memory,2,,,,,,,00559940519fa.jpg,,,,,,,,,,,,,,,
126,28,Memory,2,,,,,,,sunaaeowapdkwzqpgqr.jpg,,,,,,,,,,,,,,,
127,28,Memory,2,,,,,,,sunahbvlpavurqoxdeq.jpg,,,,,,,,,,,,,,,
128,28,Memory,2,,,,,,,00892960530fa.jpg,,,,,,,,,,,,,,,
129,28,Memory,2,,,,,,,00971960627fa.jpg,,,,,,,,,,,,,,,
130,28,Memory,2,,,,,,,sunabcfpwlpolnutyju.jpg,,,,,,,,,,,,,,,
131,28,Memory,2,,,,,,,00887960530.jpg,,,,,,,,,,,,,,,
132,28,Memory,2,,,,,,,sunaloffvbvysigxent.jpg,,,,,,,,,,,,,,,
133,28,Memory,2,,,,,,,00989960627fa.jpg,,,,,,,,,,,,,,,
134,28,Memory,2,,,,,,,00931960627fa.jpg,,,,,,,,,,,,,,,
135,28,Memory,2,,,,,,,sunahqrxievfeusiqlt.jpg,,,,,,,,,,,,,,,
136,28,Memory,2,,,,,,,sunagountlxpzkytsmp.jpg,,,,,,,,,,,,,,,
137,28,Memory,2,,,,,,,sunbgzjryivyczuvkvm.jpg,,,,,,,,,,,,,,,
138,28,Memory,2,,,,,,,00294940422fb.jpg,,,,,,,,,,,,,,,
139,28,Memory,2,,,,,,,00783941205fa.jpg,,,,,,,,,,,,,,,
140,28,Memory,2,,,,,,,00221940128fa.jpg,,,,,,,,,,,,,,,
141,28,Memory,2,,,,,,,00822940307fa.jpg,,,,,,,,,,,,,,,
142,28,Memory,2,,,,,,,00112931230fa.jpg,,,,,,,,,,,,,,,
143,28,Memory,2,,,,,,,00809960620fa.jpg,,,,,,,,,,,,,,,
144,28,Memory,2,,,,,,,00801941205fa.jpg,,,,,,,,,,,,,,,
145,28,Memory,2,,,,,,,sunabwmcbaxwioksdgw.jpg,,,,,,,,,,,,,,,
146,28,Memory,2,,,,,,,sunaakjaacuzulqckgl.jpg,,,,,,,,,,,,,,,
147,28,Memory,2,,,,,,,00193940928fa.jpg,,,,,,,,,,,,,,,
148,28,Memory,2,,,,,,,00675941121fa.jpg,,,,,,,,,,,,,,,
149,28,Memory,2,,,,,,,sunaaxjpzcnxligjtjq.jpg,,,,,,,,,,,,,,,
150,28,Presentation,3,00720960620fa_sunaecpkgfewqqreqwe.jpg,00092931230fa_sunaaheqzstzxuadglu.jpg,00720960620fa.jpg,sunaecpkgfewqqreqwe.jpg,00092931230fa.jpg,sunaaheqzstzxuadglu.jpg,,,<,Face,,,,,1,,,,,,,o
151,28,Presentation,3,00900960530fa_sunamlotskmmsjeogby.jpg,00889960530fa_sunaletopenvvozhpxc.jpg,00900960530fa.jpg,sunamlotskmmsjeogby.jpg,00889960530fa.jpg,sunaletopenvvozhpxc.jpg,,,>,Face,,,,,1,,,,,,,o
152,28,Presentation,3,00780960530fa_sunagetqixeypsysbpn.jpg,00858940307fa_sunaixpqndlwhwjtjek.jpg,00780960530fa.jpg,sunagetqixeypsysbpn.jpg,00858940307fa.jpg,sunaixpqndlwhwjtjek.jpg,,,>,Place,,,,,1,,,,,,,x
153,28,Presentation,3,00787941205fa_sunagmwxxwymwojbvgi.jpg,00723941201fa_sunaedtgwjvvziytspa.jpg,00787941205fa.jpg,sunagmwxxwymwojbvgi.jpg,00723941201fa.jpg,sunaedtgwjvvziytspa.jpg,,,>,Face,,,,,1,,,,,,,o
154,28,Presentation,3,01011960627fa_sundahdxwmcdluscvot.jpg,00884960530fa_sunakodkcslgqhqlgwl.jpg,01011960627fa.jpg,sundahdxwmcdluscvot.jpg,00884960530fa.jpg,sunakodkcslgqhqlgwl.jpg,,,>,Face,,,,,1,,,,,,,o
155,28,Presentation,3,00878960530fa_sunakgbnzxmfohgehnu.jpg,00784941205fb_sunagjzcrjvmxzqzljx.jpg,00878960530fa.jpg,sunakgbnzxmfohgehnu.jpg,00784941205fb.jpg,sunagjzcrjvmxzqzljx.jpg,,,>,Place,,,,,1,,,,,,,x
156,28,Presentation,3,00090931230fa_sunaahedjlmtqekgyvj.jpg,00266940128fb_sunabkngeblodihjvbk.jpg,00090931230fa.jpg,sunaahedjlmtqekgyvj.jpg,00266940128fb.jpg,sunabkngeblodihjvbk.jpg,,,<,Place,,,,,1,,,,,,,o
157,28,Presentation,3,00096931230fa_sunaaiqiqcggrskoqgy.jpg,01000960627fa_sunbvzmgrdvaakxusbu.jpg,00096931230fa.jpg,sunaaiqiqcggrskoqgy.jpg,01000960627fa.jpg,sunbvzmgrdvaakxusbu.jpg,,,<,Place,,,,,1,,,,,,,o
158,28,Presentation,3,00859940307fa_sunaiycurtqsfkvcaso.jpg,00818940307fa_sunahpblecxtmuzkmxb.jpg,00859940307fa.jpg,sunaiycurtqsfkvcaso.jpg,00818940307fa.jpg,sunahpblecxtmuzkmxb.jpg,,,<,Face,,,,,1,,,,,,,x
159,28,Presentation,3,00985960627fa_sunbgklxeqjhdbyfhhy.jpg,00144931230fb_sunaathajvxrgptwhoj.jpg,00985960627fa.jpg,sunbgklxeqjhdbyfhhy.jpg,00144931230fb.jpg,sunaathajvxrgptwhoj.jpg,,,<,Place,,,,,1,,,,,,,x
160,28,Memory,3,,,,,,,00983960627fa.jpg,,,,,,,,,,,,,,,
161,28,Memory,3,,,,,,,sunadakkdovnuzlycvp.jpg,,,,,,,,,,,,,,,
162,28,Memory,3,,,,,,,sunaddtdkycxbqlpfqa.jpg,,,,,,,,,,,,,,,
163,28,Memory,3,,,,,,,00900960530fa.jpg,,,,,,,,,,,,,,,
164,28,Memory,3,,,,,,,00985960627fa.jpg,,,,,,,,,,,,,,,
165,28,Memory,3,,,,,,,sunaaiqiqcggrskoqgy.jpg,,,,,,,,,,,,,,,
166,28,Memory,3,,,,,,,sunaofikylqtxphvdem.jpg,,,,,,,,,,,,,,,
167,28,Memory,3,,,,,,,00889960530fa.jpg,,,,,,,,,,,,,,,
168,28,Memory,3,,,,,,,00891960530fa.jpg,,,,,,,,,,,,,,,
169,28,Memory,3,,,,,,,sunaedtgwjvvziytspa.jpg,,,,,,,,,,,,,,,
170,28,Memory,3,,,,,,,00858940307fa.jpg,,,,,,,,,,,,,,,
171,28,Memory,3,,,,,,,sunabzuqsrgcsonqlkz.jpg,,,,,,,,,,,,,,,
172,28,Memory,3,,,,,,,00784941205fb.jpg,,,,,,,,,,,,,,,
173,28,Memory,3,,,,,,,sunahpblecxtmuzkmxb.jpg,,,,,,,,,,,,,,,
174,28,Memory,3,,,,,,,00719941201fa.jpg,,,,,,,,,,,,,,,
175,28,Memory,3,,,,,,,sunbfyvfqiimvdaxlqn.jpg,,,,,,,,,,,,,,,
176,28,Memory,3,,,,,,,00630941031fa.jpg,,,,,,,,,,,,,,,
177,28,Memory,3,,,,,,,00636941031fa.jpg,,,,,,,,,,,,,,,
178,28,Memory,3,,,,,,,sunbgklxeqjhdbyfhhy.jpg,,,,,,,,,,,,,,,
179,28,Memory,3,,,,,,,00723941201fa.jpg,,,,,,,,,,,,,,,
180,28,Memory,3,,,,,,,sunalkiibhqpxfamlll.jpg,,,,,,,,,,,,,,,
181,28,Memory,3,,,,,,,00787941205fa.jpg,,,,,,,,,,,,,,,
182,28,Memory,3,,,,,,,00818940307fa.jpg,,,,,,,,,,,,,,,
183,28,Memory,3,,,,,,,00910960530fa.jpg,,,,,,,,,,,,,,,
184,28,Memory,3,,,,,,,00120931230fa.jpg,,,,,,,,,,,,,,,
185,28,Memory,3,,,,,,,sunadbhmrgrrpyzglxs.jpg,,,,,,,,,,,,,,,
186,28,Memory,3,,,,,,,sunagmwxxwymwojbvgi.jpg,,,,,,,,,,,,,,,
187,28,Memory,3,,,,,,,00096931230fa.jpg,,,,,,,,,,,,,,,
188,28,Memory,3,,,,,,,sunaixpqndlwhwjtjek.jpg,,,,,,,,,,,,,,,
189,28,Memory,3,,,,,,,00984960627fa.jpg,,,,,,,,,,,,,,,
190,28,Memory,3,,,,,,,sunagetqixeypsysbpn.jpg,,,,,,,,,,,,,,,
191,28,Memory,3,,,,,,,sunadvithllcgmfxsrn.jpg,,,,,,,,,,,,,,,
192,28,Memory,3,,,,,,,sunaletopenvvozhpxc.jpg,,,,,,,,,,,,,,,
193,28,Memory,3,,,,,,,00633940928fa.jpg,,,,,,,,,,,,,,,
194,28,Memory,3,,,,,,,sunaakxgygjfqrzpyoz.jpg,,,,,,,,,,,,,,,
195,28,Memory,3,,,,,,,00505960627fa.jpg,,,,,,,,,,,,,,,
196,28,Memory,3,,,,,,,00780960530fa.jpg,,,,,,,,,,,,,,,
197,28,Memory,3,,,,,,,sunagjzcrjvmxzqzljx.jpg,,,,,,,,,,,,,,,
198,28,Memory,3,,,,,,,sunbfzchmomnvzhbxdg.jpg,,,,,,,,,,,,,,,
199,28,Memory,3,,,,,,,sunamlotskmmsjeogby.jpg,,,,,,,,,,,,,,,
200,28,Presentation,4,00996960627fa_sunbpvgllfdejxcpjqp.jpg,00062931230fb_sunaaelotvjgibjtjhs.jpg,00996960627fa.jpg,sunbpvgllfdejxcpjqp.jpg,00062931230fb.jpg,sunaaelotvjgibjtjhs.jpg,,,<,Face,,,,,1,,,,,,,x
201,28,Presentation,4,00773941201fa_sunafvcflzhlqloapyo.jpg,00111931230fb_sunaakgekhjklxmvulj.jpg,00773941201fa.jpg,sunafvcflzhlqloapyo.jpg,00111931230fb.jpg,sunaakgekhjklxmvulj.jpg,,,>,Face,,,,,0,,,,,,,o
202,28,Presentation,4,00077931230fb_sunaafgqutfaishsxyu.jpg,00894960620fa_sunalqmfgeadpqsyzpd.jpg,00077931230fb.jpg,sunaafgqutfaishsxyu.jpg,00894960620fa.jpg,sunalqmfgeadpqsyzpd.jpg,,,<,Face,,,,,1,,,,,,,x
203,28,Presentation,4,01007960627fa_sunbxarcshsnqsefemx.jpg,00800941205fb_sunagvjurcwdbixvnyi.jpg,01007960627fa.jpg,sunbxarcshsnqsefemx.jpg,00800941205fb.jpg,sunagvjurcwdbixvnyi.jpg,,,>,Face,,,,,1,,,,,,,o
204,28,Presentation,4,00937960627fa_sunaqsolmfydodnakub.jpg,00795941205fa_sunagtumacdlmciqamz.jpg,00937960627fa.jpg,sunaqsolmfydodnakub.jpg,00795941205fa.jpg,sunagtumacdlmciqamz.jpg,,,<,Place,,,,,1,,,,,,,x
205,28,Presentation,4,00803941205fa_sunagvxkjokqimstxpe.jpg,00768941205fa_sunafkmnlytenlsywia.jpg,00803941205fa.jpg,sunagvxkjokqimstxpe.jpg,00768941205fa.jpg,sunafkmnlytenlsywia.jpg,,,>,Place,,,,,1,,,,,,,x
206,28,Presentation,4,00123931230fb_sunaalcrrdbjgdztbiz.jpg,00746941201fa_sunaetydippjxikifsb.jpg,00123931230fb.jpg,sunaalcrrdbjgdztbiz.jpg,00746941201fa.jpg,sunaetydippjxikifsb.jpg,,,<,Face,,,,,1,,,,,,,x
207,28,Presentation,4,00874940307fa_sunajtrfunvzdfticna.jpg,00662941121fa_sunadkazmlajmohnwfl.jpg,00874940307fa.jpg,sunajtrfunvzdfticna.jpg,00662941121fa.jpg,sunadkazmlajmohnwfl.jpg,,,>,Place,,,,,1,,,,,,,x
208,28,Presentation,4,01002960627fb_sunbwaafjdebjzttuvq.jpg,00482940519fa_sunabyfxcxhdebvdyfd.jpg,01002960627fb.jpg,sunbwaafjdebjzttuvq.jpg,00482940519fa.jpg,sunabyfxcxhdebvdyfd.jpg,,,<,Place,,,,,1,,,,,,,o
209,28,Presentation,4,01009960627fa_sunbxzweleltykebgan.jpg,00791941205fa_sunagrmyoovzukhxmlo.jpg,01009960627fa.jpg,sunbxzweleltykebgan.jpg,00791941205fa.jpg,sunagrmyoovzukhxmlo.jpg,,,>,Place,,,,,0,,,,,,,o
210,28,Memory,4,,,,,,,00062931230fb.jpg,,,,,,,,,,,,,,,
211,28,Memory,4,,,,,,,sunaakgekhjklxmvulj.jpg,,,,,,,,,,,,,,,
212,28,Memory,4,,,,,,,sunbasypfgzjtomktmu.jpg,,,,,,,,,,,,,,,
213,28,Memory,4,,,,,,,00997960627fa.jpg,,,,,,,,,,,,,,,
214,28,Memory,4,,,,,,,00812941205fa.jpg,,,,,,,,,,,,,,,
215,28,Memory,4,,,,,,,00482940519fa.jpg,,,,,,,,,,,,,,,
216,28,Memory,4,,,,,,,sunbtpilbhhbmhmeuzq.jpg,,,,,,,,,,,,,,,
217,28,Memory,4,,,,,,,00481940519fa.jpg,,,,,,,,,,,,,,,
218,28,Memory,4,,,,,,,sunaafvitpexrpvumsa.jpg,,,,,,,,,,,,,,,
219,28,Memory,4,,,,,,,sunagvxkjokqimstxpe.jpg,,,,,,,,,,,,,,,
220,28,Memory,4,,,,,,,00943960627fa.jpg,,,,,,,,,,,,,,,
221,28,Memory,4,,,,,,,00564940928fa.jpg,,,,,,,,,,,,,,,
222,28,Memory,4,,,,,,,sunawotxrevnqvamsfp.jpg,,,,,,,,,,,,,,,
223,28,Memory,4,,,,,,,00961960627fa.jpg,,,,,,,,,,,,,,,
224,28,Memory,4,,,,,,,00996960627fa.jpg,,,,,,,,,,,,,,,
225,28,Memory,4,,,,,,,01009960627fa.jpg,,,,,,,,,,,,,,,
226,28,Memory,4,,,,,,,sunaafgqutfaishsxyu.jpg,,,,,,,,,,,,,,,
227,28,Memory,4,,,,,,,00894960620fa.jpg,,,,,,,,,,,,,,,
228,28,Memory,4,,,,,,,sunaemcowdozyphwknd.jpg,,,,,,,,,,,,,,,
229,28,Memory,4,,,,,,,sunalqmfgeadpqsyzpd.jpg,,,,,,,,,,,,,,,
230,28,Memory,4,,,,,,,sunabyfxcxhdebvdyfd.jpg,,,,,,,,,,,,,,,
231,28,Memory,4,,,,,,,sunajtrfunvzdfticna.jpg,,,,,,,,,,,,,,,
232,28,Memory,4,,,,,,,00768941205fa.jpg,,,,,,,,,,,,,,,
233,28,Memory,4,,,,,,,00803941205fa.jpg,,,,,,,,,,,,,,,
234,28,Memory,4,,,,,,,sunaauhozyxzeeqstxi.jpg,,,,,,,,,,,,,,,
235,28,Memory,4,,,,,,,sunahgtbwgsmtqeodwh.jpg,,,,,,,,,,,,,,,
236,28,Memory,4,,,,,,,00077931230fb.jpg,,,,,,,,,,,,,,,
237,28,Memory,4,,,,,,,sunbxzweleltykebgan.jpg,,,,,,,,,,,,,,,
238,28,Memory,4,,,,,,,00082931230fa.jpg,,,,,,,,,,,,,,,
239,28,Memory,4,,,,,,,sunaaelotvjgibjtjhs.jpg,,,,,,,,,,,,,,,
240,28,Memory,4,,,,,,,sunabxsuqbleluwczoy.jpg,,,,,,,,,,,,,,,
241,28,Memory,4,,,,,,,00874940307fa.jpg,,,,,,,,,,,,,,,
242,28,Memory,4,,,,,,,00153931230fa.jpg,,,,,,,,,,,,,,,
243,28,Memory,4,,,,,,,00741941201fa.jpg,,,,,,,,,,,,,,,
244,28,Memory,4,,,,,,,sunarpsxqkduedrrzyi.jpg,,,,,,,,,,,,,,,
245,28,Memory,4,,,,,,,sunafkmnlytenlsywia.jpg,,,,,,,,,,,,,,,
246,28,Memory,4,,,,,,,00970960627fa.jpg,,,,,,,,,,,,,,,
247,28,Memory,4,,,,,,,00111931230fb.jpg,,,,,,,,,,,,,,,
248,28,Memory,4,,,,,,,sunbpvgllfdejxcpjqp.jpg,,,,,,,,,,,,,,,
249,28,Memory,4,,,,,,,sunacmpqqfbsvlzinzl.jpg,,,,,,,,,,,,,,,
250,28,Presentation,5,00265940128fb_sunabkmdplkdbvxriff.jpg,00938960627fa_sunaqyylsngywqzwfmx.jpg,00265940128fb.jpg,sunabkmdplkdbvxriff.jpg,00938960627fa.jpg,sunaqyylsngywqzwfmx.jpg,,,<,Face,,,,,1,,,,,,,o
251,28,Presentation,5,00650941031fa_sunadikxpvqeabxrvvc.jpg,00098931230fa_sunaajpqmulidejvjsr.jpg,00650941031fa.jpg,sunadikxpvqeabxrvvc.jpg,00098931230fa.jpg,sunaajpqmulidejvjsr.jpg,,,<,Face,,,,,1,,,,,,,x
252,28,Presentation,5,01207940128fa_sundbixjudsgeuuehrn.jpg,00905960530fa_sunanmoqeyprjjjfxjt.jpg,01207940128fa.jpg,sundbixjudsgeuuehrn.jpg,00905960530fa.jpg,sunanmoqeyprjjjfxjt.jpg,,,<,Place,,,,,1,,,,,,,x
253,28,Presentation,5,00635941031fa_sunaddsaeicthrfbkhe.jpg,00990960627fa_sunbpflsdaxnddnwcqi.jpg,00635941031fa.jpg,sunaddsaeicthrfbkhe.jpg,00990960627fa.jpg,sunbpflsdaxnddnwcqi.jpg,,,>,Place,,,,,1,,,,,,,x
254,28,Presentation,5,00810941205fa_sunahctntqrunhdxhtb.jpg,00239940128fa_sunabctlikybqabezjv.jpg,00810941205fa.jpg,sunahctntqrunhdxhtb.jpg,00239940128fa.jpg,sunabctlikybqabezjv.jpg,,,>,Place,,,,,1,,,,,,,x
255,28,Presentation,5,00749941201fa_sunaeuvjbmdpknaqqaj.jpg,00070940307fa_sunaaeplwsfslcbtojr.jpg,00749941201fa.jpg,sunaeuvjbmdpknaqqaj.jpg,00070940307fa.jpg,sunaaeplwsfslcbtojr.jpg,,,<,Face,,,,,1,,,,,,,o
256,28,Presentation,5,00574940928fa_sunacvbrcejzwmcgnoq.jpg,00862940307fa_sunaizgnnplsvajzhkc.jpg,00574940928fa.jpg,sunacvbrcejzwmcgnoq.jpg,00862940307fa.jpg,sunaizgnnplsvajzhkc.jpg,,,<,Place,,,,,0,,,,,,,x
257,28,Presentation,5,01004960627fa_sunbwtlihsuptkrckid.jpg,00963960627fa_sunayaepykrqvenaqqy.jpg,01004960627fa.jpg,sunbwtlihsuptkrckid.jpg,00963960627fa.jpg,sunayaepykrqvenaqqy.jpg,,,>,Face,,,,,1,,,,,,,x
258,28,Presentation,5,00145931230fb_sunaatjesvdupctftmn.jpg,00581940928fa_sunacvzhvcksnwqcqbw.jpg,00145931230fb.jpg,sunaatjesvdupctftmn.jpg,00581940928fa.jpg,sunacvzhvcksnwqcqbw.jpg,,,>,Face,,,,,1,,,,,,,x
259,28,Presentation,5,00763941205fa_sunafhmnhsdurlvddpw.jpg,00089931230fa_sunaagcpoejbuzyvddd.jpg,00763941205fa.jpg,sunafhmnhsdurlvddpw.jpg,00089931230fa.jpg,sunaagcpoejbuzyvddd.jpg,,,>,Place,,,,,1,,,,,,,o
260,28,Memory,5,,,,,,,sunbwtlihsuptkrckid.jpg,,,,,,,,,,,,,,,
261,28,Memory,5,,,,,,,sunbpflsdaxnddnwcqi.jpg,,,,,,,,,,,,,,,
262,28,Memory,5,,,,,,,00162931230fb.jpg,,,,,,,,,,,,,,,
263,28,Memory,5,,,,,,,sunabtlfmiwtljmoues.jpg,,,,,,,,,,,,,,,
264,28,Memory,5,,,,,,,00130931230fa.jpg,,,,,,,,,,,,,,,
265,28,Memory,5,,,,,,,00581940928fa.jpg,,,,,,,,,,,,,,,
266,28,Memory,5,,,,,,,sunaamvxnvouicstkjb.jpg,,,,,,,,,,,,,,,
267,28,Memory,5,,,,,,,00925960627fa.jpg,,,,,,,,,,,,,,,
268,28,Memory,5,,,,,,,sunacvzhvcksnwqcqbw.jpg,,,,,,,,,,,,,,,
269,28,Memory,5,,,,,,,sunaawqdbpihmlbwyyn.jpg,,,,,,,,,,,,,,,
270,28,Memory,5,,,,,,,sunabctlikybqabezjv.jpg,,,,,,,,,,,,,,,
271,28,Memory,5,,,,,,,sunayaepykrqvenaqqy.jpg,,,,,,,,,,,,,,,
272,28,Memory,5,,,,,,,00796941205fa.jpg,,,,,,,,,,,,,,,
273,28,Memory,5,,,,,,,sunaddsaeicthrfbkhe.jpg,,,,,,,,,,,,,,,
274,28,Memory,5,,,,,,,sunacwggadqsfpovdjv.jpg,,,,,,,,,,,,,,,
275,28,Memory,5,,,,,,,sunapqwnqzxlsfvgsjm.jpg,,,,,,,,,,,,,,,
276,28,Memory,5,,,,,,,sunaguchqqnrtodtezq.jpg,,,,,,,,,,,,,,,
277,28,Memory,5,,,,,,,01004960627fa.jpg,,,,,,,,,,,,,,,
278,28,Memory,5,,,,,,,00574940928fa.jpg,,,,,,,,,,,,,,,
279,28,Memory,5,,,,,,,sundbixjudsgeuuehrn.jpg,,,,,,,,,,,,,,,
280,28,Memory,5,,,,,,,00239940128fa.jpg,,,,,,,,,,,,,,,
281,28,Memory,5,,,,,,,00270940422fb.jpg,,,,,,,,,,,,,,,
282,28,Memory,5,,,,,,,00742941201fa.jpg,,,,,,,,,,,,,,,
283,28,Memory,5,,,,,,,00185940422fb.jpg,,,,,,,,,,,,,,,
284,28,Memory,5,,,,,,,00938960627fa.jpg,,,,,,,,,,,,,,,
285,28,Memory,5,,,,,,,00990960627fa.jpg,,,,,,,,,,,,,,,
286,28,Memory,5,,,,,,,sunabllobxadqcyttej.jpg,,,,,,,,,,,,,,,
287,28,Memory,5,,,,,,,sunaatpeezlljqaxlhj.jpg,,,,,,,,,,,,,,,
288,28,Memory,5,,,,,,,00635941031fa.jpg,,,,,,,,,,,,,,,
289,28,Memory,5,,,,,,,00146960620fb.jpg,,,,,,,,,,,,,,,
290,28,Memory,5,,,,,,,sunaavjinpnkappuonm.jpg,,,,,,,,,,,,,,,
291,28,Memory,5,,,,,,,00265940128fb.jpg,,,,,,,,,,,,,,,
292,28,Memory,5,,,,,,,00963960627fa.jpg,,,,,,,,,,,,,,,
293,28,Memory,5,,,,,,,sunabkmdplkdbvxriff.jpg,,,,,,,,,,,,,,,
294,28,Memory,5,,,,,,,01207940128fa.jpg,,,,,,,,,,,,,,,
295,28,Memory,5,,,,,,,sunaenwuebvlpdmntju.jpg,,,,,,,,,,,,,,,
296,28,Memory,5,,,,,,,00302940422fa.jpg,,,,,,,,,,,,,,,
297,28,Memory,5,,,,,,,00589940928fa.jpg,,,,,,,,,,,,,,,
298,28,Memory,5,,,,,,,sunaqyylsngywqzwfmx.jpg,,,,,,,,,,,,,,,
299,28,Memory,5,,,,,,,sunacvbrcejzwmcgnoq.jpg,,,,,,,,,,,,,,,
300,28,Presentation,6,00634940928fa_sunadcphrizvfpljiqt.jpg,00877960530fa_sunajxpkuhbizeveguy.jpg,00634940928fa.jpg,sunadcphrizvfpljiqt.jpg,00877960530fa.jpg,sunajxpkuhbizeveguy.jpg,,,<,Face,,,,,1,,,,,,,x
301,28,Presentation,6,00227940128fa_sunabckqabszusgcykj.jpg,00292940422fb_sunabrjdpmoedcdjbpo.jpg,00227940128fa.jpg,sunabckqabszusgcykj.jpg,00292940422fb.jpg,sunabrjdpmoedcdjbpo.jpg,,,>,Face,,,,,1,,,,,,,o
302,28,Presentation,6,00245940128fa_sunabeyhmxodahoieyk.jpg,00939960627fa_sunarceibpcyacbmfga.jpg,00245940128fa.jpg,sunabeyhmxodahoieyk.jpg,00939960627fa.jpg,sunarceibpcyacbmfga.jpg,,,<,Place,,,,,1,,,,,,,x
303,28,Presentation,6,00854940307fa_sunaiwduelojtwaqeyh.jpg,00908960530fa_sunanwjjyqqwzqrqagd.jpg,00854940307fa.jpg,sunaiwduelojtwaqeyh.jpg,00908960530fa.jpg,sunanwjjyqqwzqrqagd.jpg,,,>,Place,,,,,1,,,,,,,o
304,28,Presentation,6,00208940128fa_sunaazzyhbvqjpmazjq.jpg,00751960620fa_sunaezuszgtxnmsxdbk.jpg,00208940128fa.jpg,sunaazzyhbvqjpmazjq.jpg,00751960620fa.jpg,sunaezuszgtxnmsxdbk.jpg,,,<,Face,,,,,1,,,,,,,x
305,28,Presentation,6,00819940307fa_sunahqldjibofgsfdgb.jpg,00838940307fa_sunaiozxhxgtfrmoagh.jpg,00819940307fa.jpg,sunahqldjibofgsfdgb.jpg,00838940307fa.jpg,sunaiozxhxgtfrmoagh.jpg,,,>,Place,,,,,1,,,,,,,x
306,28,Presentation,6,00483940519fa_sunabyvpwkgsjtijdwj.jpg,00540940519fa_sunacdnquypmsshhsbk.jpg,00483940519fa.jpg,sunabyvpwkgsjtijdwj.jpg,00540940519fa.jpg,sunacdnquypmsshhsbk.jpg,,,<,Face,,,,,0,,,,,,,o
307,28,Presentation,6,00705960530fa_sunaduslxfzlbxlllnz.jpg,00790941205fa_sunagpjzsbltchlwvou.jpg,00705960530fa.jpg,sunaduslxfzlbxlllnz.jpg,00790941205fa.jpg,sunagpjzsbltchlwvou.jpg,,,>,Face,,,,,1,,,,,,,o
308,28,Presentation,6,00987960627fa_sunbloeoiozwjjsiamp.jpg,00816941205fa_sunahmhrncocyhsjpxk.jpg,00987960627fa.jpg,sunbloeoiozwjjsiamp.jpg,00816941205fa.jpg,sunahmhrncocyhsjpxk.jpg,,,>,Place,,,,,1,,,,,,,x
309,28,Presentation,6,00866940307fa_sunajbwkywmsqkldfml.jpg,00681941121fa_sunadqmjrhfjyuzyvdd.jpg,00866940307fa.jpg,sunajbwkywmsqkldfml.jpg,00681941121fa.jpg,sunadqmjrhfjyuzyvdd.jpg,,,<,Place,,,,,1,,,,,,,x
310,28,Memory,6,,,,,,,sunajrgtewnualfcerj.jpg,,,,,,,,,,,,,,,
311,28,Memory,6,,,,,,,sunafgdqbclkwfocdhg.jpg,,,,,,,,,,,,,,,
312,28,Memory,6,,,,,,,00725941201fa.jpg,,,,,,,,,,,,,,,
313,28,Memory,6,,,,,,,sunbwdrdvsweerwsdrj.jpg,,,,,,,,,,,,,,,
314,28,Memory,6,,,,,,,sunabbafjowbzcvbucc.jpg,,,,,,,,,,,,,,,
315,28,Memory,6,,,,,,,00877960530fa.jpg,,,,,,,,,,,,,,,
316,28,Memory,6,,,,,,,00870940307fa.jpg,,,,,,,,,,,,,,,
317,28,Memory,6,,,,,,,sunaazzyhbvqjpmazjq.jpg,,,,,,,,,,,,,,,
318,28,Memory,6,,,,,,,00751960620fa.jpg,,,,,,,,,,,,,,,
319,28,Memory,6,,,,,,,sunaooaqzputrowwbsw.jpg,,,,,,,,,,,,,,,
320,28,Memory,6,,,,,,,sunadcphrizvfpljiqt.jpg,,,,,,,,,,,,,,,
321,28,Memory,6,,,,,,,sunacuatpqpqhyjhjqk.jpg,,,,,,,,,,,,,,,
322,28,Memory,6,,,,,,,00211940128fa.jpg,,,,,,,,,,,,,,,
323,28,Memory,6,,,,,,,00208940128fa.jpg,,,,,,,,,,,,,,,
324,28,Memory,6,,,,,,,sunajbwkywmsqkldfml.jpg,,,,,,,,,,,,,,,
325,28,Memory,6,,,,,,,sunabeyhmxodahoieyk.jpg,,,,,,,,,,,,,,,
326,28,Memory,6,,,,,,,00065931230fb.jpg,,,,,,,,,,,,,,,
327,28,Memory,6,,,,,,,00761960627fa.jpg,,,,,,,,,,,,,,,
328,28,Memory,6,,,,,,,00634940928fa.jpg,,,,,,,,,,,,,,,
329,28,Memory,6,,,,,,,sunaozisvwfbmlkfhzv.jpg,,,,,,,,,,,,,,,
330,28,Memory,6,,,,,,,sunajxpkuhbizeveguy.jpg,,,,,,,,,,,,,,,
331,28,Memory,6,,,,,,,sunaiozxhxgtfrmoagh.jpg,,,,,,,,,,,,,,,
332,28,Memory,6,,,,,,,00214940128fa.jpg,,,,,,,,,,,,,,,
333,28,Memory,6,,,,,,,sunabrjdpmoedcdjbpo.jpg,,,,,,,,,,,,,,,
334,28,Memory,6,,,,,,,sunaefgzwiramypjvtd.jpg,,,,,,,,,,,,,,,
335,28,Memory,6,,,,,,,00914960620fa.jpg,,,,,,,,,,,,,,,
336,28,Memory,6,,,,,,,00838940307fa.jpg,,,,,,,,,,,,,,,
337,28,Memory,6,,,,,,,00911960530fa.jpg,,,,,,,,,,,,,,,
338,28,Memory,6,,,,,,,sunaaemixhfquhnxxlm.jpg,,,,,,,,,,,,,,,
339,28,Memory,6,,,,,,,sunaezuszgtxnmsxdbk.jpg,,,,,,,,,,,,,,,
340,28,Memory,6,,,,,,,01003960627fb.jpg,,,,,,,,,,,,,,,
341,28,Memory,6,,,,,,,sunbloeoiozwjjsiamp.jpg,,,,,,,,,,,,,,,
342,28,Memory,6,,,,,,,00292940422fb.jpg,,,,,,,,,,,,,,,
343,28,Memory,6,,,,,,,00866940307fa.jpg,,,,,,,,,,,,,,,
344,28,Memory,6,,,,,,,sunacdnquypmsshhsbk.jpg,,,,,,,,,,,,,,,
345,28,Memory,6,,,,,,,00245940128fa.jpg,,,,,,,,,,,,,,,
346,28,Memory,6,,,,,,,sunabasphceswhwwqvv.jpg,,,,,,,,,,,,,,,
347,28,Memory,6,,,,,,,00540940519fa.jpg,,,,,,,,,,,,,,,
348,28,Memory,6,,,,,,,00571940928fa.jpg,,,,,,,,,,,,,,,
349,28,Memory,6,,,,,,,00987960627fa.jpg,,,,,,,,,,,,,,,
350,28,Presentation,7,00119931230fb_sunaakvmbftkrgqhjun.jpg,00829940307fa_sunahwgbqkqcrwprgvh.jpg,00119931230fb.jpg,sunaakvmbftkrgqhjun.jpg,00829940307fa.jpg,sunahwgbqkqcrwprgvh.jpg,,,<,Place,,,,,1,,,,,,,o
351,28,Presentation,7,00895960530fa_sunamczizlzavhzhpay.jpg,00919960620fa_sunapmfmzadmosuogaz.jpg,00895960530fa.jpg,sunamczizlzavhzhpay.jpg,00919960620fa.jpg,sunapmfmzadmosuogaz.jpg,,,<,Face,,,,,1,,,,,,,o
352,28,Presentation,7,00950960627fa_sunasrjlmglmjzbmqxb.jpg,00086931230fa_sunaafynehyrzpsoaml.jpg,00950960627fa.jpg,sunasrjlmglmjzbmqxb.jpg,00086931230fa.jpg,sunaafynehyrzpsoaml.jpg,,,>,Face,,,,,1,,,,,,,o
353,28,Presentation,7,00882960530fa_sunaknlirqjqiwbbeeg.jpg,00933960627fa_sunapwjkcxdaeqehfql.jpg,00882960530fa.jpg,sunaknlirqjqiwbbeeg.jpg,00933960627fa.jpg,sunapwjkcxdaeqehfql.jpg,,,>,Place,,,,,1,,,,,,,x
354,28,Presentation,7,00095931230fa_sunaahzooisqkwlxwoz.jpg,00958960627fa_sunavspxmxubqaeidjt.jpg,00095931230fa.jpg,sunaahzooisqkwlxwoz.jpg,00958960627fa.jpg,sunavspxmxubqaeidjt.jpg,,,<,Place,,,,,1,,,,,,,x
355,28,Presentation,7,00848940307fa_sunaivdylrawbmhryfp.jpg,00124931230fa_sunaalhlvzmjmitybdn.jpg,00848940307fa.jpg,sunaivdylrawbmhryfp.jpg,00124931230fa.jpg,sunaalhlvzmjmitybdn.jpg,,,>,Face,,,,,1,,,,,,,o
356,28,Presentation,7,00564941031fa_sunacsaovnjezqwbykf.jpg,00316940422fa_sunabxmguapjekttvwm.jpg,00564941031fa.jpg,sunacsaovnjezqwbykf.jpg,00316940422fa.jpg,sunabxmguapjekttvwm.jpg,,,>,Face,,,,,1,,,,,,,o
357,28,Presentation,7,00944960627fa_sunasbbntuiheekqyaq.jpg,00762941201fa_sunafgzgbisbopcyslr.jpg,00944960627fa.jpg,sunasbbntuiheekqyaq.jpg,00762941201fa.jpg,sunafgzgbisbopcyslr.jpg,,,<,Face,,,,,1,,,,,,,x
358,28,Presentation,7,00860940307fa_sunaizeyhvjzknwjudw.jpg,00828940307fa_sunahuynahneraqftyz.jpg,00860940307fa.jpg,sunaizeyhvjzknwjudw.jpg,00828940307fa.jpg,sunahuynahneraqftyz.jpg,,,>,Place,,,,,1,,,,,,,o
359,28,Presentation,7,00719960620fa_sunadzuvtmtmgupotmf.jpg,00127931230fa_sunaampvucecsfbdafn.jpg,00719960620fa.jpg,sunadzuvtmtmgupotmf.jpg,00127931230fa.jpg,sunaampvucecsfbdafn.jpg,,,<,Place,,,,,1,,,,,,,x
360,28,Memory,7,,,,,,,sunaczwgyukesaajxnx.jpg,,,,,,,,,,,,,,,
361,28,Memory,7,,,,,,,00097931230fa.jpg,,,,,,,,,,,,,,,
362,28,Memory,7,,,,,,,sunaamsdyakblkfoydx.jpg,,,,,,,,,,,,,,,
363,28,Memory,7,,,,,,,00968960627fa.jpg,,,,,,,,,,,,,,,
364,28,Memory,7,,,,,,,00880960530fa.jpg,,,,,,,,,,,,,,,
365,28,Memory,7,,,,,,,00895960530fa.jpg,,,,,,,,,,,,,,,
366,28,Memory,7,,,,,,,sunbagfpovqwbuexqdn.jpg,,,,,,,,,,,,,,,
367,28,Memory,7,,,,,,,sunaanlwnpqndclffxt.jpg,,,,,,,,,,,,,,,
368,28,Memory,7,,,,,,,sunaampvucecsfbdafn.jpg,,,,,,,,,,,,,,,
369,28,Memory,7,,,,,,,sunamczizlzavhzhpay.jpg,,,,,,,,,,,,,,,
370,28,Memory,7,,,,,,,sunaakvmbftkrgqhjun.jpg,,,,,,,,,,,,,,,
371,28,Memory,7,,,,,,,00919960620fa.jpg,,,,,,,,,,,,,,,
372,28,Memory,7,,,,,,,sunaygrtwrwfezqjizr.jpg,,,,,,,,,,,,,,,
373,28,Memory,7,,,,,,,00860940307fa.jpg,,,,,,,,,,,,,,,
374,28,Memory,7,,,,,,,00129931230fb.jpg,,,,,,,,,,,,,,,
375,28,Memory,7,,,,,,,sunaajayojuslbbnneg.jpg,,,,,,,,,,,,,,,
376,28,Memory,7,,,,,,,00933960627fa.jpg,,,,,,,,,,,,,,,
377,28,Memory,7,,,,,,,sunaavodbcpygkggnfp.jpg,,,,,,,,,,,,,,,
378,28,Memory,7,,,,,,,00630940928fa.jpg,,,,,,,,,,,,,,,
379,28,Memory,7,,,,,,,00163931230fb.jpg,,,,,,,,,,,,,,,
380,28,Memory,7,,,,,,,sunahuynahneraqftyz.jpg,,,,,,,,,,,,,,,
381,28,Memory,7,,,,,,,sunasbbntuiheekqyaq.jpg,,,,,,,,,,,,,,,
382,28,Memory,7,,,,,,,sunafvtpfczkzopbgue.jpg,,,,,,,,,,,,,,,
383,28,Memory,7,,,,,,,00828940307fa.jpg,,,,,,,,,,,,,,,
384,28,Memory,7,,,,,,,sunakmnfgklupjijsgf.jpg,,,,,,,,,,,,,,,
385,28,Memory,7,,,,,,,00909960530.jpg,,,,,,,,,,,,,,,
386,28,Memory,7,,,,,,,sunaivdylrawbmhryfp.jpg,,,,,,,,,,,,,,,
387,28,Memory,7,,,,,,,sunapwjkcxdaeqehfql.jpg,,,,,,,,,,,,,,,
388,28,Memory,7,,,,,,,sunabxmguapjekttvwm.jpg,,,,,,,,,,,,,,,
389,28,Memory,7,,,,,,,00133931230fa.jpg,,,,,,,,,,,,,,,
390,28,Memory,7,,,,,,,00127931230fa.jpg,,,,,,,,,,,,,,,
391,28,Memory,7,,,,,,,sunaobtizabegtwfwul.jpg,,,,,,,,,,,,,,,
392,28,Memory,7,,,,,,,sunapmfmzadmosuogaz.jpg,,,,,,,,,,,,,,,
393,28,Memory,7,,,,,,,sunaizeyhvjzknwjudw.jpg,,,,,,,,,,,,,,,
394,28,Memory,7,,,,,,,00944960627fa.jpg,,,,,,,,,,,,,,,
395,28,Memory,7,,,,,,,00774941201fa.jpg,,,,,,,,,,,,,,,
396,28,Memory,7,,,,,,,00966960627fa.jpg,,,,,,,,,,,,,,,
397,28,Memory,7,,,,,,,00316940422fa.jpg,,,,,,,,,,,,,,,
398,28,Memory,7,,,,,,,00848940307fa.jpg,,,,,,,,,,,,,,,
399,28,Memory,7,,,,,,,00119931230fb.jpg,,,,,,,,,,,,,,,
