,Subject,Trial Type,Run,Cued Composite,Uncued Composite,Cued Face,Cued Place,Uncued Face,Uncued Place,Memory Image,Category,Cued Side,Cued Category,Attention Response Time (s),Familiarity Reaction Time (s),Familiarity Rating,Attention Level,Cue Validity,Post Invalid Cue,Pre Invalid Cue,Attention Button,Rating History,Stimulus Onset,Stimulus End,Attention Probe
0,16,Presentation,0,00306940422fa_sunabueyoajufbkraki.jpg,00747941201fa_sunaeutbrtswvsozxyk.jpg,00306940422fa.jpg,sunabueyoajufbkraki.jpg,00747941201fa.jpg,sunaeutbrtswvsozxyk.jpg,,,<,Face,,,,,1,,,,,,,x
1,16,Presentation,0,00633940928fa_sunadbhmrgrrpyzglxs.jpg,00564940928fa_sunacmpqqfbsvlzinzl.jpg,00633940928fa.jpg,sunadbhmrgrrpyzglxs.jpg,00564940928fa.jpg,sunacmpqqfbsvlzinzl.jpg,,,<,Face,,,,,1,,,,,,,o
2,16,Presentation,0,00098931230fa_sunaajpqmulidejvjsr.jpg,00647941031fa_sunadflbrkckmepztql.jpg,00098931230fa.jpg,sunaajpqmulidejvjsr.jpg,00647941031fa.jpg,sunadflbrkckmepztql.jpg,,,<,Face,,,,,1,,,,,,,x
3,16,Presentation,0,00778941205fa_sunagcthdfirrcawoic.jpg,00774941201fa_sunafvtpfczkzopbgue.jpg,00778941205fa.jpg,sunagcthdfirrcawoic.jpg,00774941201fa.jpg,sunafvtpfczkzopbgue.jpg,,,<,Face,,,,,1,,,,,,,x
4,16,Presentation,0,00787941205fa_sunagmwxxwymwojbvgi.jpg,00060931230fa_sunaaehaikpckyjsety.jpg,00787941205fa.jpg,sunagmwxxwymwojbvgi.jpg,00060931230fa.jpg,sunaaehaikpckyjsety.jpg,,,<,Face,,,,,1,,,,,,,x
5,16,Presentation,0,00793941205fa_sunagtjwilqjvxohypn.jpg,00210940128fb_sunabanoxjtqxamkucc.jpg,00793941205fa.jpg,sunagtjwilqjvxohypn.jpg,00210940128fb.jpg,sunabanoxjtqxamkucc.jpg,,,<,Face,,,,,1,,,,,,,x
6,16,Presentation,0,00976960627fa_sunbbhqyyzmsxhsbjmp.jpg,00127931230fa_sunaampvucecsfbdafn.jpg,00976960627fa.jpg,sunbbhqyyzmsxhsbjmp.jpg,00127931230fa.jpg,sunaampvucecsfbdafn.jpg,,,<,Face,,,,,0,,,,,,,o
7,16,Presentation,0,00847940307fa_sunaivdjruhkrfywfed.jpg,00960960627fa_sunawksfbacycuhbrsc.jpg,00847940307fa.jpg,sunaivdjruhkrfywfed.jpg,00960960627fa.jpg,sunawksfbacycuhbrsc.jpg,,,<,Face,,,,,0,,,,,,,o
8,16,Presentation,0,00985960627fa_sunbgklxeqjhdbyfhhy.jpg,00221940128fa_sunabcfpwlpolnutyju.jpg,00985960627fa.jpg,sunbgklxeqjhdbyfhhy.jpg,00221940128fa.jpg,sunabcfpwlpolnutyju.jpg,,,<,Face,,,,,1,,,,,,,o
9,16,Presentation,0,00921960627fa_sunapqkpqdfvxlbqwyo.jpg,00744941201fa_sunaeomlfaabhpswasy.jpg,00921960627fa.jpg,sunapqkpqdfvxlbqwyo.jpg,00744941201fa.jpg,sunaeomlfaabhpswasy.jpg,,,<,Face,,,,,1,,,,,,,o
10,16,Memory,0,,,,,,,00262940128fa.jpg,,,,,,,,,,,,,,,
11,16,Memory,0,,,,,,,00747941201fa.jpg,,,,,,,,,,,,,,,
12,16,Memory,0,,,,,,,00976960627fa.jpg,,,,,,,,,,,,,,,
13,16,Memory,0,,,,,,,00773960620fa.jpg,,,,,,,,,,,,,,,
14,16,Memory,0,,,,,,,sunaflojskatpeqyzqp.jpg,,,,,,,,,,,,,,,
15,16,Memory,0,,,,,,,sunafvsxtzaizojicxx.jpg,,,,,,,,,,,,,,,
16,16,Memory,0,,,,,,,sunaivdjruhkrfywfed.jpg,,,,,,,,,,,,,,,
17,16,Memory,0,,,,,,,sunaajspcoepticvplv.jpg,,,,,,,,,,,,,,,
18,16,Memory,0,,,,,,,00102931230fa.jpg,,,,,,,,,,,,,,,
19,16,Memory,0,,,,,,,sunaajpqmulidejvjsr.jpg,,,,,,,,,,,,,,,
20,16,Memory,0,,,,,,,sunacepzfrmtkiqonpy.jpg,,,,,,,,,,,,,,,
21,16,Memory,0,,,,,,,sunapqwoeotxshkukbh.jpg,,,,,,,,,,,,,,,
22,16,Memory,0,,,,,,,00098931230fa.jpg,,,,,,,,,,,,,,,
23,16,Memory,0,,,,,,,sunbbhqyyzmsxhsbjmp.jpg,,,,,,,,,,,,,,,
24,16,Memory,0,,,,,,,sunaeomlfaabhpswasy.jpg,,,,,,,,,,,,,,,
25,16,Memory,0,,,,,,,sunabueyoajufbkraki.jpg,,,,,,,,,,,,,,,
26,16,Memory,0,,,,,,,00559940519fa.jpg,,,,,,,,,,,,,,,
27,16,Memory,0,,,,,,,sunaawsdjisukbbginm.jpg,,,,,,,,,,,,,,,
28,16,Memory,0,,,,,,,sunaampvucecsfbdafn.jpg,,,,,,,,,,,,,,,
29,16,Memory,0,,,,,,,00633940928fa.jpg,,,,,,,,,,,,,,,
30,16,Memory,0,,,,,,,00127931230fa.jpg,,,,,,,,,,,,,,,
31,16,Memory,0,,,,,,,sunabizydfotqddlnjp.jpg,,,,,,,,,,,,,,,
32,16,Memory,0,,,,,,,00926960627Fa.jpg,,,,,,,,,,,,,,,
33,16,Memory,0,,,,,,,00770941201fa.jpg,,,,,,,,,,,,,,,
34,16,Memory,0,,,,,,,00191940128fb.jpg,,,,,,,,,,,,,,,
35,16,Memory,0,,,,,,,sunacjkmnpawfzbyvae.jpg,,,,,,,,,,,,,,,
36,16,Memory,0,,,,,,,00847940307fa.jpg,,,,,,,,,,,,,,,
37,16,Memory,0,,,,,,,01000960627fa.jpg,,,,,,,,,,,,,,,
38,16,Memory,0,,,,,,,sunadflbrkckmepztql.jpg,,,,,,,,,,,,,,,
39,16,Memory,0,,,,,,,00306940422fa.jpg,,,,,,,,,,,,,,,
40,16,Memory,0,,,,,,,sunbvzmgrdvaakxusbu.jpg,,,,,,,,,,,,,,,
41,16,Memory,0,,,,,,,sunabanoxjtqxamkucc.jpg,,,,,,,,,,,,,,,
42,16,Memory,0,,,,,,,sunaeutbrtswvsozxyk.jpg,,,,,,,,,,,,,,,
43,16,Memory,0,,,,,,,sunadbhmrgrrpyzglxs.jpg,,,,,,,,,,,,,,,
44,16,Memory,0,,,,,,,00543940519fa.jpg,,,,,,,,,,,,,,,
45,16,Memory,0,,,,,,,00210940128fb.jpg,,,,,,,,,,,,,,,
46,16,Memory,0,,,,,,,00073931230fa.jpg,,,,,,,,,,,,,,,
47,16,Memory,0,,,,,,,00744941201fa.jpg,,,,,,,,,,,,,,,
48,16,Memory,0,,,,,,,00647941031fa.jpg,,,,,,,,,,,,,,,
49,16,Memory,0,,,,,,,sunaafbmtoniaasysgu.jpg,,,,,,,,,,,,,,,
50,16,Presentation,1,00564941031fa_sunacsaovnjezqwbykf.jpg,00973960627fa_sunbbgtoeuzierkkajt.jpg,00564941031fa.jpg,sunacsaovnjezqwbykf.jpg,00973960627fa.jpg,sunbbgtoeuzierkkajt.jpg,,,<,Place,,,,,1,,,,,,,x
51,16,Presentation,1,00892960530fa_sunalntxqqadigcletd.jpg,00871940307_sunajrujcsdxmfbssmc.jpg,00892960530fa.jpg,sunalntxqqadigcletd.jpg,00871940307.jpg,sunajrujcsdxmfbssmc.jpg,,,<,Place,,,,,1,,,,,,,x
52,16,Presentation,1,00650941031fa_sunadikxpvqeabxrvvc.jpg,00803941205fa_sunagvxkjokqimstxpe.jpg,00650941031fa.jpg,sunadikxpvqeabxrvvc.jpg,00803941205fa.jpg,sunagvxkjokqimstxpe.jpg,,,<,Place,,,,,1,,,,,,,o
53,16,Presentation,1,00979960627fa_sunbdycacjfaujxitbw.jpg,00132931230fb_sunaanjcbzdvtvblsdy.jpg,00979960627fa.jpg,sunbdycacjfaujxitbw.jpg,00132931230fb.jpg,sunaanjcbzdvtvblsdy.jpg,,,<,Place,,,,,1,,,,,,,x
54,16,Presentation,1,00185940422fb_sunaawqdbpihmlbwyyn.jpg,00801941205fa_sunagvprlbprarvgdvj.jpg,00185940422fb.jpg,sunaawqdbpihmlbwyyn.jpg,00801941205fa.jpg,sunagvprlbprarvgdvj.jpg,,,<,Place,,,,,1,,,,,,,x
55,16,Presentation,1,00794960620fa_sunagtqhhwxjeuxdebe.jpg,00784941205fb_sunagjzcrjvmxzqzljx.jpg,00794960620fa.jpg,sunagtqhhwxjeuxdebe.jpg,00784941205fb.jpg,sunagjzcrjvmxzqzljx.jpg,,,<,Place,,,,,1,,,,,,,x
56,16,Presentation,1,00208940128fa_sunaazzyhbvqjpmazjq.jpg,00785941205fa_sunaglqunwuycxydmyu.jpg,00208940128fa.jpg,sunaazzyhbvqjpmazjq.jpg,00785941205fa.jpg,sunaglqunwuycxydmyu.jpg,,,<,Place,,,,,1,,,,,,,o
57,16,Presentation,1,00943960627fa_sunarpsxqkduedrrzyi.jpg,00097931230fa_sunaajayojuslbbnneg.jpg,00943960627fa.jpg,sunarpsxqkduedrrzyi.jpg,00097931230fa.jpg,sunaajayojuslbbnneg.jpg,,,<,Place,,,,,1,,,,,,,o
58,16,Presentation,1,00766960620fa_sunafijbgncijwykrnl.jpg,00779941205fa_sunagdzlvkqtpnfxfcg.jpg,00766960620fa.jpg,sunafijbgncijwykrnl.jpg,00779941205fa.jpg,sunagdzlvkqtpnfxfcg.jpg,,,<,Place,,,,,1,,,,,,,o
59,16,Presentation,1,00775941205fa_sunafvwfsmqkjrutjta.jpg,00198940128fb_sunaazezcsunmhttzxz.jpg,00775941205fa.jpg,sunafvwfsmqkjrutjta.jpg,00198940128fb.jpg,sunaazezcsunmhttzxz.jpg,,,<,Place,,,,,1,,,,,,,x
60,16,Memory,1,,,,,,,suncnkvbhypnivcohyx.jpg,,,,,,,,,,,,,,,
61,16,Memory,1,,,,,,,sunbwyuesflwdpqtgoy.jpg,,,,,,,,,,,,,,,
62,16,Memory,1,,,,,,,00209940128fb.jpg,,,,,,,,,,,,,,,
63,16,Memory,1,,,,,,,sunaanjcbzdvtvblsdy.jpg,,,,,,,,,,,,,,,
64,16,Memory,1,,,,,,,00154931230fa.jpg,,,,,,,,,,,,,,,
65,16,Memory,1,,,,,,,sunafijbgncijwykrnl.jpg,,,,,,,,,,,,,,,
66,16,Memory,1,,,,,,,00153931230fa.jpg,,,,,,,,,,,,,,,
67,16,Memory,1,,,,,,,00987960627fa.jpg,,,,,,,,,,,,,,,
68,16,Memory,1,,,,,,,sunabaergayifsgacxt.jpg,,,,,,,,,,,,,,,
69,16,Memory,1,,,,,,,sunaauueuhhvklldjik.jpg,,,,,,,,,,,,,,,
70,16,Memory,1,,,,,,,01005960627fa.jpg,,,,,,,,,,,,,,,
71,16,Memory,1,,,,,,,00779941205fa.jpg,,,,,,,,,,,,,,,
72,16,Memory,1,,,,,,,01010960627fa.jpg,,,,,,,,,,,,,,,
73,16,Memory,1,,,,,,,00816941205fa.jpg,,,,,,,,,,,,,,,
74,16,Memory,1,,,,,,,00208940128fa.jpg,,,,,,,,,,,,,,,
75,16,Memory,1,,,,,,,00775941205fa.jpg,,,,,,,,,,,,,,,
76,16,Memory,1,,,,,,,00198940128fb.jpg,,,,,,,,,,,,,,,
77,16,Memory,1,,,,,,,00892960530fa.jpg,,,,,,,,,,,,,,,
78,16,Memory,1,,,,,,,00766960620fa.jpg,,,,,,,,,,,,,,,
79,16,Memory,1,,,,,,,sunbbgtoeuzierkkajt.jpg,,,,,,,,,,,,,,,
80,16,Memory,1,,,,,,,sunaazezcsunmhttzxz.jpg,,,,,,,,,,,,,,,
81,16,Memory,1,,,,,,,00650941031fa.jpg,,,,,,,,,,,,,,,
82,16,Memory,1,,,,,,,00132931230fb.jpg,,,,,,,,,,,,,,,
83,16,Memory,1,,,,,,,sunagdzlvkqtpnfxfcg.jpg,,,,,,,,,,,,,,,
84,16,Memory,1,,,,,,,00973960627fa.jpg,,,,,,,,,,,,,,,
85,16,Memory,1,,,,,,,sunalntxqqadigcletd.jpg,,,,,,,,,,,,,,,
86,16,Memory,1,,,,,,,sunaauhozyxzeeqstxi.jpg,,,,,,,,,,,,,,,
87,16,Memory,1,,,,,,,sunajrujcsdxmfbssmc.jpg,,,,,,,,,,,,,,,
88,16,Memory,1,,,,,,,sunaazzyhbvqjpmazjq.jpg,,,,,,,,,,,,,,,
89,16,Memory,1,,,,,,,00482940519fa.jpg,,,,,,,,,,,,,,,
90,16,Memory,1,,,,,,,sunapileznnbbmrwoei.jpg,,,,,,,,,,,,,,,
91,16,Memory,1,,,,,,,sunbloeoiozwjjsiamp.jpg,,,,,,,,,,,,,,,
92,16,Memory,1,,,,,,,00915960620fa.jpg,,,,,,,,,,,,,,,
93,16,Memory,1,,,,,,,sunafvwfsmqkjrutjta.jpg,,,,,,,,,,,,,,,
94,16,Memory,1,,,,,,,sunabyfxcxhdebvdyfd.jpg,,,,,,,,,,,,,,,
95,16,Memory,1,,,,,,,sunaekgzpfilgjxpeyq.jpg,,,,,,,,,,,,,,,
96,16,Memory,1,,,,,,,sunahmhrncocyhsjpxk.jpg,,,,,,,,,,,,,,,
97,16,Memory,1,,,,,,,sunadikxpvqeabxrvvc.jpg,,,,,,,,,,,,,,,
98,16,Memory,1,,,,,,,00871940307.jpg,,,,,,,,,,,,,,,
99,16,Memory,1,,,,,,,00730960620fa.jpg,,,,,,,,,,,,,,,
100,16,Presentation,2,00483940519fa_sunabyvpwkgsjtijdwj.jpg,00911960530fa_sunaooaqzputrowwbsw.jpg,00483940519fa.jpg,sunabyvpwkgsjtijdwj.jpg,00911960530fa.jpg,sunaooaqzputrowwbsw.jpg,,,<,Face,,,,,1,,,,,,,x
101,16,Presentation,2,00481940519fa_sunabxsuqbleluwczoy.jpg,00790941205fa_sunagpjzsbltchlwvou.jpg,00481940519fa.jpg,sunabxsuqbleluwczoy.jpg,00790941205fa.jpg,sunagpjzsbltchlwvou.jpg,,,<,Face,,,,,0,,,,,,,o
102,16,Presentation,2,00862940307fa_sunaizgnnplsvajzhkc.jpg,00772941201fa_sunafpfpiiujzoesnqg.jpg,00862940307fa.jpg,sunaizgnnplsvajzhkc.jpg,00772941201fa.jpg,sunafpfpiiujzoesnqg.jpg,,,<,Face,,,,,1,,,,,,,x
103,16,Presentation,2,00909960530_sunaobtizabegtwfwul.jpg,00910960530fa_sunaofikylqtxphvdem.jpg,00909960530.jpg,sunaobtizabegtwfwul.jpg,00910960530fa.jpg,sunaofikylqtxphvdem.jpg,,,<,Face,,,,,1,,,,,,,x
104,16,Presentation,2,00723941201fa_sunaedtgwjvvziytspa.jpg,00077931230fb_sunaafgqutfaishsxyu.jpg,00723941201fa.jpg,sunaedtgwjvvziytspa.jpg,00077931230fb.jpg,sunaafgqutfaishsxyu.jpg,,,<,Face,,,,,1,,,,,,,o
105,16,Presentation,2,00983960627fa_sunbfyvfqiimvdaxlqn.jpg,00988960627fa_sunbmaiocftdtvnzgap.jpg,00983960627fa.jpg,sunbfyvfqiimvdaxlqn.jpg,00988960627fa.jpg,sunbmaiocftdtvnzgap.jpg,,,<,Face,,,,,1,,,,,,,o
106,16,Presentation,2,00819940307fa_sunahqldjibofgsfdgb.jpg,00799941205fa_sunagutjvdvnhxejerz.jpg,00819940307fa.jpg,sunahqldjibofgsfdgb.jpg,00799941205fa.jpg,sunagutjvdvnhxejerz.jpg,,,<,Face,,,,,1,,,,,,,o
107,16,Presentation,2,00308940422fb_sunabwfvcqqidycwypa.jpg,00529940519fa_sunacbeefkxpymwevpk.jpg,00308940422fb.jpg,sunabwfvcqqidycwypa.jpg,00529940519fa.jpg,sunacbeefkxpymwevpk.jpg,,,<,Face,,,,,1,,,,,,,o
108,16,Presentation,2,00294940422fb_sunabrlndkruqokhury.jpg,00996960627fa_sunbpvgllfdejxcpjqp.jpg,00294940422fb.jpg,sunabrlndkruqokhury.jpg,00996960627fa.jpg,sunbpvgllfdejxcpjqp.jpg,,,<,Face,,,,,1,,,,,,,o
109,16,Presentation,2,00796941205fa_sunaguchqqnrtodtezq.jpg,00800941205fb_sunagvjurcwdbixvnyi.jpg,00796941205fa.jpg,sunaguchqqnrtodtezq.jpg,00800941205fb.jpg,sunagvjurcwdbixvnyi.jpg,,,<,Face,,,,,1,,,,,,,o
110,16,Memory,2,,,,,,,sunabyvpwkgsjtijdwj.jpg,,,,,,,,,,,,,,,
111,16,Memory,2,,,,,,,00077931230fb.jpg,,,,,,,,,,,,,,,
112,16,Memory,2,,,,,,,sunaofikylqtxphvdem.jpg,,,,,,,,,,,,,,,
113,16,Memory,2,,,,,,,sunabbafjowbzcvbucc.jpg,,,,,,,,,,,,,,,
114,16,Memory,2,,,,,,,00796941205fa.jpg,,,,,,,,,,,,,,,
115,16,Memory,2,,,,,,,sunagvjurcwdbixvnyi.jpg,,,,,,,,,,,,,,,
116,16,Memory,2,,,,,,,00895960530fa.jpg,,,,,,,,,,,,,,,
117,16,Memory,2,,,,,,,sunaavtbadenwnzeutj.jpg,,,,,,,,,,,,,,,
118,16,Memory,2,,,,,,,sunagcinxkccdtrjmlv.jpg,,,,,,,,,,,,,,,
119,16,Memory,2,,,,,,,00214940128fa.jpg,,,,,,,,,,,,,,,
120,16,Memory,2,,,,,,,00819940307fa.jpg,,,,,,,,,,,,,,,
121,16,Memory,2,,,,,,,00983960627fa.jpg,,,,,,,,,,,,,,,
122,16,Memory,2,,,,,,,00184940128fa.jpg,,,,,,,,,,,,,,,
123,16,Memory,2,,,,,,,00933960627fa.jpg,,,,,,,,,,,,,,,
124,16,Memory,2,,,,,,,sunaapllqyqlykszopd.jpg,,,,,,,,,,,,,,,
125,16,Memory,2,,,,,,,sunabrlndkruqokhury.jpg,,,,,,,,,,,,,,,
126,16,Memory,2,,,,,,,00140931230fb.jpg,,,,,,,,,,,,,,,
127,16,Memory,2,,,,,,,sunafpfpiiujzoesnqg.jpg,,,,,,,,,,,,,,,
128,16,Memory,2,,,,,,,00988960627fa.jpg,,,,,,,,,,,,,,,
129,16,Memory,2,,,,,,,00910960530fa.jpg,,,,,,,,,,,,,,,
130,16,Memory,2,,,,,,,sunaafgqutfaishsxyu.jpg,,,,,,,,,,,,,,,
131,16,Memory,2,,,,,,,sundbixjudsgeuuehrn.jpg,,,,,,,,,,,,,,,
132,16,Memory,2,,,,,,,sunaguchqqnrtodtezq.jpg,,,,,,,,,,,,,,,
133,16,Memory,2,,,,,,,sunbfyvfqiimvdaxlqn.jpg,,,,,,,,,,,,,,,
134,16,Memory,2,,,,,,,00880960530fa.jpg,,,,,,,,,,,,,,,
135,16,Memory,2,,,,,,,sunagetqixeypsysbpn.jpg,,,,,,,,,,,,,,,
136,16,Memory,2,,,,,,,sunakmnfgklupjijsgf.jpg,,,,,,,,,,,,,,,
137,16,Memory,2,,,,,,,00780960530fa.jpg,,,,,,,,,,,,,,,
138,16,Memory,2,,,,,,,00772941201fa.jpg,,,,,,,,,,,,,,,
139,16,Memory,2,,,,,,,sunbmaiocftdtvnzgap.jpg,,,,,,,,,,,,,,,
140,16,Memory,2,,,,,,,sunahqldjibofgsfdgb.jpg,,,,,,,,,,,,,,,
141,16,Memory,2,,,,,,,00777941205fa.jpg,,,,,,,,,,,,,,,
142,16,Memory,2,,,,,,,sunaqsolmfydodnakub.jpg,,,,,,,,,,,,,,,
143,16,Memory,2,,,,,,,00800941205fb.jpg,,,,,,,,,,,,,,,
144,16,Memory,2,,,,,,,01207940128fa.jpg,,,,,,,,,,,,,,,
145,16,Memory,2,,,,,,,00294940422fb.jpg,,,,,,,,,,,,,,,
146,16,Memory,2,,,,,,,00483940519fa.jpg,,,,,,,,,,,,,,,
147,16,Memory,2,,,,,,,sunamczizlzavhzhpay.jpg,,,,,,,,,,,,,,,
148,16,Memory,2,,,,,,,00937960627fa.jpg,,,,,,,,,,,,,,,
149,16,Memory,2,,,,,,,sunapwjkcxdaeqehfql.jpg,,,,,,,,,,,,,,,
150,16,Presentation,3,00882960530fa_sunaknlirqjqiwbbeeg.jpg,00950960627fa_sunasrjlmglmjzbmqxb.jpg,00882960530fa.jpg,sunaknlirqjqiwbbeeg.jpg,00950960627fa.jpg,sunasrjlmglmjzbmqxb.jpg,,,<,Place,,,,,1,,,,,,,x
151,16,Presentation,3,00965960627fa_sunaydywdmvlfddbxbk.jpg,00302940422fa_sunabtlfmiwtljmoues.jpg,00965960627fa.jpg,sunaydywdmvlfddbxbk.jpg,00302940422fa.jpg,sunabtlfmiwtljmoues.jpg,,,<,Place,,,,,1,,,,,,,o
152,16,Presentation,3,00194940128fb_sunaayehfdqcyxggsej.jpg,00631940928fa_sunadbdqzigzwipuipr.jpg,00194940128fb.jpg,sunaayehfdqcyxggsej.jpg,00631940928fa.jpg,sunadbdqzigzwipuipr.jpg,,,<,Place,,,,,1,,,,,,,x
153,16,Presentation,3,00125931230fa_sunaalltyvjhbzhkmvg.jpg,00138931230fa_sunaapfaivxqoynnwwp.jpg,00125931230fa.jpg,sunaalltyvjhbzhkmvg.jpg,00138931230fa.jpg,sunaapfaivxqoynnwwp.jpg,,,<,Place,,,,,1,,,,,,,x
154,16,Presentation,3,00854940307fa_sunaiwduelojtwaqeyh.jpg,00728941205fa_sunaejnvnpltdmhbcsi.jpg,00854940307fa.jpg,sunaiwduelojtwaqeyh.jpg,00728941205fa.jpg,sunaejnvnpltdmhbcsi.jpg,,,<,Place,,,,,1,,,,,,,x
155,16,Presentation,3,00581940928fa_sunacvzhvcksnwqcqbw.jpg,00762941201fa_sunafgzgbisbopcyslr.jpg,00581940928fa.jpg,sunacvzhvcksnwqcqbw.jpg,00762941201fa.jpg,sunafgzgbisbopcyslr.jpg,,,<,Place,,,,,1,,,,,,,x
156,16,Presentation,3,00263940128fb_sunabjuovqvyfuzvqwt.jpg,00242940128fa_sunabcuurugvxwparpk.jpg,00263940128fb.jpg,sunabjuovqvyfuzvqwt.jpg,00242940128fa.jpg,sunabcuurugvxwparpk.jpg,,,<,Place,,,,,1,,,,,,,o
157,16,Presentation,3,00884960530fa_sunakodkcslgqhqlgwl.jpg,00815941205fa_sunahiphsekjihkafsl.jpg,00884960530fa.jpg,sunakodkcslgqhqlgwl.jpg,00815941205fa.jpg,sunahiphsekjihkafsl.jpg,,,<,Place,,,,,1,,,,,,,o
158,16,Presentation,3,00635941031fa_sunaddsaeicthrfbkhe.jpg,00507940519fa_sunacacflqoyxhsqzhe.jpg,00635941031fa.jpg,sunaddsaeicthrfbkhe.jpg,00507940519fa.jpg,sunacacflqoyxhsqzhe.jpg,,,<,Place,,,,,1,,,,,,,o
159,16,Presentation,3,00914960620fa_sunaozisvwfbmlkfhzv.jpg,00109931230fa_sunaajuzribjrizdshh.jpg,00914960620fa.jpg,sunaozisvwfbmlkfhzv.jpg,00109931230fa.jpg,sunaajuzribjrizdshh.jpg,,,<,Place,,,,,1,,,,,,,o
160,16,Memory,3,,,,,,,sunabtlfmiwtljmoues.jpg,,,,,,,,,,,,,,,
161,16,Memory,3,,,,,,,00302940422fa.jpg,,,,,,,,,,,,,,,
162,16,Memory,3,,,,,,,00082931230fa.jpg,,,,,,,,,,,,,,,
163,16,Memory,3,,,,,,,00242940128fa.jpg,,,,,,,,,,,,,,,
164,16,Memory,3,,,,,,,sunacerqowiaeoqkmsq.jpg,,,,,,,,,,,,,,,
165,16,Memory,3,,,,,,,00884960530fa.jpg,,,,,,,,,,,,,,,
166,16,Memory,3,,,,,,,00815941205fa.jpg,,,,,,,,,,,,,,,
167,16,Memory,3,,,,,,,sunadfndyrtqqiasoig.jpg,,,,,,,,,,,,,,,
168,16,Memory,3,,,,,,,sunacacflqoyxhsqzhe.jpg,,,,,,,,,,,,,,,
169,16,Memory,3,,,,,,,00860940307fa.jpg,,,,,,,,,,,,,,,
170,16,Memory,3,,,,,,,00548940519fa.jpg,,,,,,,,,,,,,,,
171,16,Memory,3,,,,,,,00581940928fa.jpg,,,,,,,,,,,,,,,
172,16,Memory,3,,,,,,,00138931230fa.jpg,,,,,,,,,,,,,,,
173,16,Memory,3,,,,,,,sunalcrtwiycqobgelp.jpg,,,,,,,,,,,,,,,
174,16,Memory,3,,,,,,,00507940519fa.jpg,,,,,,,,,,,,,,,
175,16,Memory,3,,,,,,,00743941201fa.jpg,,,,,,,,,,,,,,,
176,16,Memory,3,,,,,,,00263940128fb.jpg,,,,,,,,,,,,,,,
177,16,Memory,3,,,,,,,00887960530.jpg,,,,,,,,,,,,,,,
178,16,Memory,3,,,,,,,sunahiphsekjihkafsl.jpg,,,,,,,,,,,,,,,
179,16,Memory,3,,,,,,,sunabcuurugvxwparpk.jpg,,,,,,,,,,,,,,,
180,16,Memory,3,,,,,,,sunbwaafjdebjzttuvq.jpg,,,,,,,,,,,,,,,
181,16,Memory,3,,,,,,,sunaetydippjxikifsb.jpg,,,,,,,,,,,,,,,
182,16,Memory,3,,,,,,,sunakodkcslgqhqlgwl.jpg,,,,,,,,,,,,,,,
183,16,Memory,3,,,,,,,00965960627fa.jpg,,,,,,,,,,,,,,,
184,16,Memory,3,,,,,,,00746941201fa.jpg,,,,,,,,,,,,,,,
185,16,Memory,3,,,,,,,sunacvzhvcksnwqcqbw.jpg,,,,,,,,,,,,,,,
186,16,Memory,3,,,,,,,sunaydywdmvlfddbxbk.jpg,,,,,,,,,,,,,,,
187,16,Memory,3,,,,,,,sunaiozxhxgtfrmoagh.jpg,,,,,,,,,,,,,,,
188,16,Memory,3,,,,,,,01002960627fb.jpg,,,,,,,,,,,,,,,
189,16,Memory,3,,,,,,,sunabjuovqvyfuzvqwt.jpg,,,,,,,,,,,,,,,
190,16,Memory,3,,,,,,,sunaaxjpzcnxligjtjq.jpg,,,,,,,,,,,,,,,
191,16,Memory,3,,,,,,,00838940307fa.jpg,,,,,,,,,,,,,,,
192,16,Memory,3,,,,,,,00193940928fa.jpg,,,,,,,,,,,,,,,
193,16,Memory,3,,,,,,,sunaeoghzrjarigmwua.jpg,,,,,,,,,,,,,,,
194,16,Memory,3,,,,,,,sunaozisvwfbmlkfhzv.jpg,,,,,,,,,,,,,,,
195,16,Memory,3,,,,,,,00648941031fa.jpg,,,,,,,,,,,,,,,
196,16,Memory,3,,,,,,,00914960620fa.jpg,,,,,,,,,,,,,,,
197,16,Memory,3,,,,,,,sunaafvitpexrpvumsa.jpg,,,,,,,,,,,,,,,
198,16,Memory,3,,,,,,,sunaizeyhvjzknwjudw.jpg,,,,,,,,,,,,,,,
199,16,Memory,3,,,,,,,sunaapfaivxqoynnwwp.jpg,,,,,,,,,,,,,,,
200,16,Presentation,4,00080931230fb_sunaafjszryxyavjzln.jpg,00147931230fb_sunaatpkocdkocwxpkb.jpg,00080931230fb.jpg,sunaafjszryxyavjzln.jpg,00147931230fb.jpg,sunaatpkocdkocwxpkb.jpg,,,>,Place,,,,,1,,,,,,,o
201,16,Presentation,4,00905960530fa_sunanmoqeyprjjjfxjt.jpg,00670941121fa_sunadochqcucscehsgk.jpg,00905960530fa.jpg,sunanmoqeyprjjjfxjt.jpg,00670941121fa.jpg,sunadochqcucscehsgk.jpg,,,>,Place,,,,,1,,,,,,,x
202,16,Presentation,4,00069931230fb_sunaaeowapdkwzqpgqr.jpg,00719941201fa_sunadvithllcgmfxsrn.jpg,00069931230fb.jpg,sunaaeowapdkwzqpgqr.jpg,00719941201fa.jpg,sunadvithllcgmfxsrn.jpg,,,>,Place,,,,,1,,,,,,,o
203,16,Presentation,4,00870940307fa_sunajrgtewnualfcerj.jpg,00939960627fa_sunarceibpcyacbmfga.jpg,00870940307fa.jpg,sunajrgtewnualfcerj.jpg,00939960627fa.jpg,sunarceibpcyacbmfga.jpg,,,>,Place,,,,,1,,,,,,,x
204,16,Presentation,4,00130931230fa_sunaamvxnvouicstkjb.jpg,00598941031fa_sunacxtcahkymosigud.jpg,00130931230fa.jpg,sunaamvxnvouicstkjb.jpg,00598941031fa.jpg,sunacxtcahkymosigud.jpg,,,>,Place,,,,,1,,,,,,,x
205,16,Presentation,4,00197940128fa_sunaaylzyqlqrsmfwif.jpg,00828940307fa_sunahuynahneraqftyz.jpg,00197940128fa.jpg,sunaaylzyqlqrsmfwif.jpg,00828940307fa.jpg,sunahuynahneraqftyz.jpg,,,>,Place,,,,,1,,,,,,,x
206,16,Presentation,4,00071941031fa_sunaaexqbtdswxrqjvz.jpg,00620940928fa_sunacypmnujalygkunp.jpg,00071941031fa.jpg,sunaaexqbtdswxrqjvz.jpg,00620940928fa.jpg,sunacypmnujalygkunp.jpg,,,>,Place,,,,,1,,,,,,,x
207,16,Presentation,4,00805941205fa_sunagwzdbtlixdhgolm.jpg,00296940422fa_sunabrwnslxalcohfre.jpg,00805941205fa.jpg,sunagwzdbtlixdhgolm.jpg,00296940422fa.jpg,sunabrwnslxalcohfre.jpg,,,>,Place,,,,,1,,,,,,,o
208,16,Presentation,4,00878960530fa_sunakgbnzxmfohgehnu.jpg,00218940128fa_sunabbwggenhfbftyvi.jpg,00878960530fa.jpg,sunakgbnzxmfohgehnu.jpg,00218940128fa.jpg,sunabbwggenhfbftyvi.jpg,,,>,Place,,,,,1,,,,,,,o
209,16,Presentation,4,00986960627fa_sunbgzjryivyczuvkvm.jpg,00977960627fa_sunbbxkanhzjgbwyxqs.jpg,00986960627fa.jpg,sunbgzjryivyczuvkvm.jpg,00977960627fa.jpg,sunbbxkanhzjgbwyxqs.jpg,,,>,Place,,,,,0,,,,,,,x
210,16,Memory,4,,,,,,,00071941031fa.jpg,,,,,,,,,,,,,,,
211,16,Memory,4,,,,,,,00069931230fb.jpg,,,,,,,,,,,,,,,
212,16,Memory,4,,,,,,,00598941031fa.jpg,,,,,,,,,,,,,,,
213,16,Memory,4,,,,,,,sunabbwggenhfbftyvi.jpg,,,,,,,,,,,,,,,
214,16,Memory,4,,,,,,,sunaakmxzhuceuiryah.jpg,,,,,,,,,,,,,,,
215,16,Memory,4,,,,,,,sunaafjszryxyavjzln.jpg,,,,,,,,,,,,,,,
216,16,Memory,4,,,,,,,00977960627fa.jpg,,,,,,,,,,,,,,,
217,16,Memory,4,,,,,,,00096931230fa.jpg,,,,,,,,,,,,,,,
218,16,Memory,4,,,,,,,00957960627fa.jpg,,,,,,,,,,,,,,,
219,16,Memory,4,,,,,,,sunacxtcahkymosigud.jpg,,,,,,,,,,,,,,,
220,16,Memory,4,,,,,,,sunavhxgmgrqsaptynb.jpg,,,,,,,,,,,,,,,
221,16,Memory,4,,,,,,,sunaaiqiqcggrskoqgy.jpg,,,,,,,,,,,,,,,
222,16,Memory,4,,,,,,,00805941205fa.jpg,,,,,,,,,,,,,,,
223,16,Memory,4,,,,,,,sunabjzyxcjnmztdonj.jpg,,,,,,,,,,,,,,,
224,16,Memory,4,,,,,,,sunacypmnujalygkunp.jpg,,,,,,,,,,,,,,,
225,16,Memory,4,,,,,,,sunadochqcucscehsgk.jpg,,,,,,,,,,,,,,,
226,16,Memory,4,,,,,,,sunbxarcshsnqsefemx.jpg,,,,,,,,,,,,,,,
227,16,Memory,4,,,,,,,00080931230fb.jpg,,,,,,,,,,,,,,,
228,16,Memory,4,,,,,,,sunaivdylrawbmhryfp.jpg,,,,,,,,,,,,,,,
229,16,Memory,4,,,,,,,00115931230fa.jpg,,,,,,,,,,,,,,,
230,16,Memory,4,,,,,,,sunaaheqzstzxuadglu.jpg,,,,,,,,,,,,,,,
231,16,Memory,4,,,,,,,sunaavjinpnkappuonm.jpg,,,,,,,,,,,,,,,
232,16,Memory,4,,,,,,,00620940928fa.jpg,,,,,,,,,,,,,,,
233,16,Memory,4,,,,,,,00670941121fa.jpg,,,,,,,,,,,,,,,
234,16,Memory,4,,,,,,,00870940307fa.jpg,,,,,,,,,,,,,,,
235,16,Memory,4,,,,,,,00218940128fa.jpg,,,,,,,,,,,,,,,
236,16,Memory,4,,,,,,,00092931230fa.jpg,,,,,,,,,,,,,,,
237,16,Memory,4,,,,,,,00071940128fa.jpg,,,,,,,,,,,,,,,
238,16,Memory,4,,,,,,,sunaaeowapdkwzqpgqr.jpg,,,,,,,,,,,,,,,
239,16,Memory,4,,,,,,,sunajrgtewnualfcerj.jpg,,,,,,,,,,,,,,,
240,16,Memory,4,,,,,,,00848940307fa.jpg,,,,,,,,,,,,,,,
241,16,Memory,4,,,,,,,00162931230fb.jpg,,,,,,,,,,,,,,,
242,16,Memory,4,,,,,,,sunaaexpnawiehinlpy.jpg,,,,,,,,,,,,,,,
243,16,Memory,4,,,,,,,sunagwzdbtlixdhgolm.jpg,,,,,,,,,,,,,,,
244,16,Memory,4,,,,,,,00859940307fa.jpg,,,,,,,,,,,,,,,
245,16,Memory,4,,,,,,,01007960627fa.jpg,,,,,,,,,,,,,,,
246,16,Memory,4,,,,,,,sunaaexqbtdswxrqjvz.jpg,,,,,,,,,,,,,,,
247,16,Memory,4,,,,,,,sunbbxkanhzjgbwyxqs.jpg,,,,,,,,,,,,,,,
248,16,Memory,4,,,,,,,00264940128fb.jpg,,,,,,,,,,,,,,,
249,16,Memory,4,,,,,,,sunaiycurtqsfkvcaso.jpg,,,,,,,,,,,,,,,
250,16,Presentation,5,00119931230fb_sunaakvmbftkrgqhjun.jpg,00761960627fa_sunafgdqbclkwfocdhg.jpg,00119931230fb.jpg,sunaakvmbftkrgqhjun.jpg,00761960627fa.jpg,sunafgdqbclkwfocdhg.jpg,,,>,Face,,,,,1,,,,,,,o
251,16,Presentation,5,00142931230fb_sunaapxkpvrhpjplsok.jpg,00938960627fa_sunaqyylsngywqzwfmx.jpg,00142931230fb.jpg,sunaapxkpvrhpjplsok.jpg,00938960627fa.jpg,sunaqyylsngywqzwfmx.jpg,,,>,Face,,,,,1,,,,,,,x
252,16,Presentation,5,00969960627fa_sunbaoizrfijvhpnnjn.jpg,00906960530fa_sunantryfbloeaomfta.jpg,00969960627fa.jpg,sunbaoizrfijvhpnnjn.jpg,00906960530fa.jpg,sunantryfbloeaomfta.jpg,,,>,Face,,,,,1,,,,,,,o
253,16,Presentation,5,00864940307fa_sunajawzbrlrwafowen.jpg,00787960620fa_sunagoufulkpsxrmklt.jpg,00864940307fa.jpg,sunajawzbrlrwafowen.jpg,00787960620fa.jpg,sunagoufulkpsxrmklt.jpg,,,>,Face,,,,,1,,,,,,,o
254,16,Presentation,5,00505960627fa_sunabzuqsrgcsonqlkz.jpg,00936960627fa_sunaqgjuuwvdcyiccjt.jpg,00505960627fa.jpg,sunabzuqsrgcsonqlkz.jpg,00936960627fa.jpg,sunaqgjuuwvdcyiccjt.jpg,,,>,Face,,,,,1,,,,,,,x
255,16,Presentation,5,00952960627fa_sunathzzbcwjykldrem.jpg,00851940307fa_sunaivflshbyfrfzhqb.jpg,00952960627fa.jpg,sunathzzbcwjykldrem.jpg,00851940307fa.jpg,sunaivflshbyfrfzhqb.jpg,,,>,Face,,,,,0,,,,,,,x
256,16,Presentation,5,00902960530fa_sunanaacmmosxrfwmvl.jpg,00929960627fa_sunaprnrbmgkomdbchr.jpg,00902960530fa.jpg,sunanaacmmosxrfwmvl.jpg,00929960627fa.jpg,sunaprnrbmgkomdbchr.jpg,,,>,Face,,,,,1,,,,,,,o
257,16,Presentation,5,00129931230fb_sunaamsdyakblkfoydx.jpg,00065931230fb_sunaaemixhfquhnxxlm.jpg,00129931230fb.jpg,sunaamsdyakblkfoydx.jpg,00065931230fb.jpg,sunaaemixhfquhnxxlm.jpg,,,>,Face,,,,,1,,,,,,,o
258,16,Presentation,5,00949960627fb_sunasnqkkyhilqkxiqm.jpg,00675941121fa_sunadoxcchtmsxewsau.jpg,00949960627fb.jpg,sunasnqkkyhilqkxiqm.jpg,00675941121fa.jpg,sunadoxcchtmsxewsau.jpg,,,>,Face,,,,,1,,,,,,,x
259,16,Presentation,5,00266940128fb_sunabkngeblodihjvbk.jpg,00989960627fa_sunbondbduabvijnmch.jpg,00266940128fb.jpg,sunabkngeblodihjvbk.jpg,00989960627fa.jpg,sunbondbduabvijnmch.jpg,,,>,Face,,,,,1,,,,,,,o
260,16,Memory,5,,,,,,,sunabwmcbaxwioksdgw.jpg,,,,,,,,,,,,,,,
261,16,Memory,5,,,,,,,00095931230fa.jpg,,,,,,,,,,,,,,,
262,16,Memory,5,,,,,,,00314940422fa.jpg,,,,,,,,,,,,,,,
263,16,Memory,5,,,,,,,sunabqowuarvqqcnipn.jpg,,,,,,,,,,,,,,,
264,16,Memory,5,,,,,,,sunabkngeblodihjvbk.jpg,,,,,,,,,,,,,,,
265,16,Memory,5,,,,,,,00889960530fa.jpg,,,,,,,,,,,,,,,
266,16,Memory,5,,,,,,,00129931230fb.jpg,,,,,,,,,,,,,,,
267,16,Memory,5,,,,,,,00290940422fa.jpg,,,,,,,,,,,,,,,
268,16,Memory,5,,,,,,,00142931230fb.jpg,,,,,,,,,,,,,,,
269,16,Memory,5,,,,,,,sunaqgjuuwvdcyiccjt.jpg,,,,,,,,,,,,,,,
270,16,Memory,5,,,,,,,sunaddtdkycxbqlpfqa.jpg,,,,,,,,,,,,,,,
271,16,Memory,5,,,,,,,sunaqyylsngywqzwfmx.jpg,,,,,,,,,,,,,,,
272,16,Memory,5,,,,,,,sunaakqepfoeqomfgxf.jpg,,,,,,,,,,,,,,,
273,16,Memory,5,,,,,,,00144931230fb.jpg,,,,,,,,,,,,,,,
274,16,Memory,5,,,,,,,sunaahzooisqkwlxwoz.jpg,,,,,,,,,,,,,,,
275,16,Memory,5,,,,,,,sunahrltmuwbiehihpe.jpg,,,,,,,,,,,,,,,
276,16,Memory,5,,,,,,,sunaaemixhfquhnxxlm.jpg,,,,,,,,,,,,,,,
277,16,Memory,5,,,,,,,00065931230fb.jpg,,,,,,,,,,,,,,,
278,16,Memory,5,,,,,,,00949960627fb.jpg,,,,,,,,,,,,,,,
279,16,Memory,5,,,,,,,sunajxpkuhbizeveguy.jpg,,,,,,,,,,,,,,,
280,16,Memory,5,,,,,,,00913960530fa.jpg,,,,,,,,,,,,,,,
281,16,Memory,5,,,,,,,00636941031fa.jpg,,,,,,,,,,,,,,,
282,16,Memory,5,,,,,,,sunasnqkkyhilqkxiqm.jpg,,,,,,,,,,,,,,,
283,16,Memory,5,,,,,,,00989960627fa.jpg,,,,,,,,,,,,,,,
284,16,Memory,5,,,,,,,sunaamsdyakblkfoydx.jpg,,,,,,,,,,,,,,,
285,16,Memory,5,,,,,,,sunagoufulkpsxrmklt.jpg,,,,,,,,,,,,,,,
286,16,Memory,5,,,,,,,00938960627fa.jpg,,,,,,,,,,,,,,,
287,16,Memory,5,,,,,,,sunanaacmmosxrfwmvl.jpg,,,,,,,,,,,,,,,
288,16,Memory,5,,,,,,,sunaletopenvvozhpxc.jpg,,,,,,,,,,,,,,,
289,16,Memory,5,,,,,,,sunaathajvxrgptwhoj.jpg,,,,,,,,,,,,,,,
290,16,Memory,5,,,,,,,sunbondbduabvijnmch.jpg,,,,,,,,,,,,,,,
291,16,Memory,5,,,,,,,00902960530fa.jpg,,,,,,,,,,,,,,,
292,16,Memory,5,,,,,,,00877960530fa.jpg,,,,,,,,,,,,,,,
293,16,Memory,5,,,,,,,sunaapxkpvrhpjplsok.jpg,,,,,,,,,,,,,,,
294,16,Memory,5,,,,,,,sunaooffzffbhcpirmm.jpg,,,,,,,,,,,,,,,
295,16,Memory,5,,,,,,,00936960627fa.jpg,,,,,,,,,,,,,,,
296,16,Memory,5,,,,,,,00116931230fa.jpg,,,,,,,,,,,,,,,
297,16,Memory,5,,,,,,,00266940128fb.jpg,,,,,,,,,,,,,,,
298,16,Memory,5,,,,,,,00825940307fa.jpg,,,,,,,,,,,,,,,
299,16,Memory,5,,,,,,,00787960620fa.jpg,,,,,,,,,,,,,,,
300,16,Presentation,6,00858940307fa_sunaixpqndlwhwjtjek.jpg,00786941205fa_sunagmhildamktmqjss.jpg,00858940307fa.jpg,sunaixpqndlwhwjtjek.jpg,00786941205fa.jpg,sunagmhildamktmqjss.jpg,,,>,Place,,,,,0,,,,,,,o
301,16,Presentation,6,00963960627fa_sunayaepykrqvenaqqy.jpg,00609940928fa_sunacycdoztxoluxjyk.jpg,00963960627fa.jpg,sunayaepykrqvenaqqy.jpg,00609940928fa.jpg,sunacycdoztxoluxjyk.jpg,,,>,Place,,,,,1,,,,,,,o
302,16,Presentation,6,00791941205fa_sunagrmyoovzukhxmlo.jpg,00630941031fa_sunadakkdovnuzlycvp.jpg,00791941205fa.jpg,sunagrmyoovzukhxmlo.jpg,00630941031fa.jpg,sunadakkdovnuzlycvp.jpg,,,>,Place,,,,,1,,,,,,,o
303,16,Presentation,6,00792941205fa_sunagsiwrmuixqgdimb.jpg,00876960620fa_sunajwqkfsykceonyig.jpg,00792941205fa.jpg,sunagsiwrmuixqgdimb.jpg,00876960620fa.jpg,sunajwqkfsykceonyig.jpg,,,>,Place,,,,,0,,,,,,,o
304,16,Presentation,6,00750941201fa_sunaeuzwggvibufclwf.jpg,00574940928fa_sunacvbrcejzwmcgnoq.jpg,00750941201fa.jpg,sunaeuzwggvibufclwf.jpg,00574940928fa.jpg,sunacvbrcejzwmcgnoq.jpg,,,>,Place,,,,,1,,,,,,,o
305,16,Presentation,6,00866940307fa_sunajbwkywmsqkldfml.jpg,00260940128fa_sunabgfhvifeijihhjw.jpg,00866940307fa.jpg,sunajbwkywmsqkldfml.jpg,00260940128fa.jpg,sunabgfhvifeijihhjw.jpg,,,>,Place,,,,,1,,,,,,,x
306,16,Presentation,6,00267940128fb_sunablfqiwfqomjarht.jpg,00898960530fa_sunamkmeblgteyggink.jpg,00267940128fb.jpg,sunablfqiwfqomjarht.jpg,00898960530fa.jpg,sunamkmeblgteyggink.jpg,,,>,Place,,,,,1,,,,,,,x
307,16,Presentation,6,00961960627fa_sunawotxrevnqvamsfp.jpg,00270940422fb_sunabllobxadqcyttej.jpg,00961960627fa.jpg,sunawotxrevnqvamsfp.jpg,00270940422fb.jpg,sunabllobxadqcyttej.jpg,,,>,Place,,,,,1,,,,,,,x
308,16,Presentation,6,00149931230fa_sunaauglwmctnkxyird.jpg,00227940128fa_sunabckqabszusgcykj.jpg,00149931230fa.jpg,sunaauglwmctnkxyird.jpg,00227940128fa.jpg,sunabckqabszusgcykj.jpg,,,>,Place,,,,,1,,,,,,,x
309,16,Presentation,6,00891960530fa_sunalkiibhqpxfamlll.jpg,00239940128fa_sunabctlikybqabezjv.jpg,00891960530fa.jpg,sunalkiibhqpxfamlll.jpg,00239940128fa.jpg,sunabctlikybqabezjv.jpg,,,>,Place,,,,,1,,,,,,,x
310,16,Memory,6,,,,,,,01011960627fa.jpg,,,,,,,,,,,,,,,
311,16,Memory,6,,,,,,,00966960627fa.jpg,,,,,,,,,,,,,,,
312,16,Memory,6,,,,,,,sunahgtbwgsmtqeodwh.jpg,,,,,,,,,,,,,,,
313,16,Memory,6,,,,,,,00963960627fa.jpg,,,,,,,,,,,,,,,
314,16,Memory,6,,,,,,,sunahwgbqkqcrwprgvh.jpg,,,,,,,,,,,,,,,
315,16,Memory,6,,,,,,,00239940128fa.jpg,,,,,,,,,,,,,,,
316,16,Memory,6,,,,,,,00609940928fa.jpg,,,,,,,,,,,,,,,
317,16,Memory,6,,,,,,,sunagsiwrmuixqgdimb.jpg,,,,,,,,,,,,,,,
318,16,Memory,6,,,,,,,sunavxokzybtomhbmvm.jpg,,,,,,,,,,,,,,,
319,16,Memory,6,,,,,,,00792941205fa.jpg,,,,,,,,,,,,,,,
320,16,Memory,6,,,,,,,sunaeuzwggvibufclwf.jpg,,,,,,,,,,,,,,,
321,16,Memory,6,,,,,,,00750941201fa.jpg,,,,,,,,,,,,,,,
322,16,Memory,6,,,,,,,00893960530Fa.jpg,,,,,,,,,,,,,,,
323,16,Memory,6,,,,,,,00812941205fa.jpg,,,,,,,,,,,,,,,
324,16,Memory,6,,,,,,,00829940307fa.jpg,,,,,,,,,,,,,,,
325,16,Memory,6,,,,,,,00947960627fa.jpg,,,,,,,,,,,,,,,
326,16,Memory,6,,,,,,,sunacycdoztxoluxjyk.jpg,,,,,,,,,,,,,,,
327,16,Memory,6,,,,,,,sunayaepykrqvenaqqy.jpg,,,,,,,,,,,,,,,
328,16,Memory,6,,,,,,,00149931230fa.jpg,,,,,,,,,,,,,,,
329,16,Memory,6,,,,,,,01009960627fa.jpg,,,,,,,,,,,,,,,
330,16,Memory,6,,,,,,,sunbxzweleltykebgan.jpg,,,,,,,,,,,,,,,
331,16,Memory,6,,,,,,,sunawotxrevnqvamsfp.jpg,,,,,,,,,,,,,,,
332,16,Memory,6,,,,,,,00288940422fa.jpg,,,,,,,,,,,,,,,
333,16,Memory,6,,,,,,,sunaloffvbvysigxent.jpg,,,,,,,,,,,,,,,
334,16,Memory,6,,,,,,,sunamkmeblgteyggink.jpg,,,,,,,,,,,,,,,
335,16,Memory,6,,,,,,,sunacvbrcejzwmcgnoq.jpg,,,,,,,,,,,,,,,
336,16,Memory,6,,,,,,,00638941031fa.jpg,,,,,,,,,,,,,,,
337,16,Memory,6,,,,,,,sunasmmcxdddtmtazwx.jpg,,,,,,,,,,,,,,,
338,16,Memory,6,,,,,,,sunabppokiyglaxpcha.jpg,,,,,,,,,,,,,,,
339,16,Memory,6,,,,,,,sunadfktsqjthoglcsm.jpg,,,,,,,,,,,,,,,
340,16,Memory,6,,,,,,,sunabckqabszusgcykj.jpg,,,,,,,,,,,,,,,
341,16,Memory,6,,,,,,,00898960530fa.jpg,,,,,,,,,,,,,,,
342,16,Memory,6,,,,,,,sunabctlikybqabezjv.jpg,,,,,,,,,,,,,,,
343,16,Memory,6,,,,,,,00227940128fa.jpg,,,,,,,,,,,,,,,
344,16,Memory,6,,,,,,,sundahdxwmcdluscvot.jpg,,,,,,,,,,,,,,,
345,16,Memory,6,,,,,,,sunaauglwmctnkxyird.jpg,,,,,,,,,,,,,,,
346,16,Memory,6,,,,,,,00961960627fa.jpg,,,,,,,,,,,,,,,
347,16,Memory,6,,,,,,,00959960627fa.jpg,,,,,,,,,,,,,,,
348,16,Memory,6,,,,,,,sunaygrtwrwfezqjizr.jpg,,,,,,,,,,,,,,,
349,16,Memory,6,,,,,,,00574940928fa.jpg,,,,,,,,,,,,,,,
350,16,Presentation,7,00498960627fa_sunabzjxlmkwnwzimua.jpg,00705941205fa_sunadtlxenqqxsyjvix.jpg,00498960627fa.jpg,sunabzjxlmkwnwzimua.jpg,00705941205fa.jpg,sunadtlxenqqxsyjvix.jpg,,,>,Face,,,,,1,,,,,,,o
351,16,Presentation,7,00841940307fa_sunaisiwfgppimtnmxl.jpg,00953960627fa_sunatstrpjxhvtbaczf.jpg,00841940307fa.jpg,sunaisiwfgppimtnmxl.jpg,00953960627fa.jpg,sunatstrpjxhvtbaczf.jpg,,,>,Face,,,,,1,,,,,,,x
352,16,Presentation,7,00919960620fa_sunapmfmzadmosuogaz.jpg,00280940422fb_sunabohxbskznglnrhv.jpg,00919960620fa.jpg,sunapmfmzadmosuogaz.jpg,00280940422fb.jpg,sunabohxbskznglnrhv.jpg,,,>,Face,,,,,1,,,,,,,x
353,16,Presentation,7,00783941205fa_sunagjeesomrwjsfqie.jpg,00741941201fa_sunaemcowdozyphwknd.jpg,00783941205fa.jpg,sunagjeesomrwjsfqie.jpg,00741941201fa.jpg,sunaemcowdozyphwknd.jpg,,,>,Face,,,,,1,,,,,,,x
354,16,Presentation,7,00874940307fa_sunajtrfunvzdfticna.jpg,00705960530fa_sunaduslxfzlbxlllnz.jpg,00874940307fa.jpg,sunajtrfunvzdfticna.jpg,00705960530fa.jpg,sunaduslxfzlbxlllnz.jpg,,,>,Face,,,,,1,,,,,,,x
355,16,Presentation,7,00123931230fb_sunaalcrrdbjgdztbiz.jpg,00742941201fa_sunaenwuebvlpdmntju.jpg,00123931230fb.jpg,sunaalcrrdbjgdztbiz.jpg,00742941201fa.jpg,sunaenwuebvlpdmntju.jpg,,,>,Face,,,,,1,,,,,,,o
356,16,Presentation,7,00576941031fa_sunacvjlsylseoghjup.jpg,00901960530fa_sunammbnoambmhdxdwd.jpg,00576941031fa.jpg,sunacvjlsylseoghjup.jpg,00901960530fa.jpg,sunammbnoambmhdxdwd.jpg,,,>,Face,,,,,1,,,,,,,x
357,16,Presentation,7,00978960627fa_sunbddbivbptlrlauhy.jpg,00771941205fa_sunafowswglhxcsufpo.jpg,00978960627fa.jpg,sunbddbivbptlrlauhy.jpg,00771941205fa.jpg,sunafowswglhxcsufpo.jpg,,,>,Face,,,,,0,,,,,,,o
358,16,Presentation,7,00752960620fa_sunafbwnojpqeyzssoe.jpg,00265940128fb_sunabkmdplkdbvxriff.jpg,00752960620fa.jpg,sunafbwnojpqeyzssoe.jpg,00265940128fb.jpg,sunabkmdplkdbvxriff.jpg,,,>,Face,,,,,1,,,,,,,x
359,16,Presentation,7,00271940422fa_sunabmbnddafmywtjjj.jpg,00571940928fa_sunacuatpqpqhyjhjqk.jpg,00271940422fa.jpg,sunabmbnddafmywtjjj.jpg,00571940928fa.jpg,sunacuatpqpqhyjhjqk.jpg,,,>,Face,,,,,1,,,,,,,o
360,16,Memory,7,,,,,,,sunaatjesvdupctftmn.jpg,,,,,,,,,,,,,,,
361,16,Memory,7,,,,,,,00705941205fa.jpg,,,,,,,,,,,,,,,
362,16,Memory,7,,,,,,,sunaahedjlmtqekgyvj.jpg,,,,,,,,,,,,,,,
363,16,Memory,7,,,,,,,00788941205fa.jpg,,,,,,,,,,,,,,,
364,16,Memory,7,,,,,,,00874940307fa.jpg,,,,,,,,,,,,,,,
365,16,Memory,7,,,,,,,sunagountlxpzkytsmp.jpg,,,,,,,,,,,,,,,
366,16,Memory,7,,,,,,,sunaaelotvjgibjtjhs.jpg,,,,,,,,,,,,,,,
367,16,Memory,7,,,,,,,00834940307fa.jpg,,,,,,,,,,,,,,,
368,16,Memory,7,,,,,,,00062931230fb.jpg,,,,,,,,,,,,,,,
369,16,Memory,7,,,,,,,sunabmbnddafmywtjjj.jpg,,,,,,,,,,,,,,,
370,16,Memory,7,,,,,,,sunajtrfunvzdfticna.jpg,,,,,,,,,,,,,,,
371,16,Memory,7,,,,,,,00146960620fb.jpg,,,,,,,,,,,,,,,
372,16,Memory,7,,,,,,,00145931230fb.jpg,,,,,,,,,,,,,,,
373,16,Memory,7,,,,,,,00090931230fa.jpg,,,,,,,,,,,,,,,
374,16,Memory,7,,,,,,,00265940128fb.jpg,,,,,,,,,,,,,,,
375,16,Memory,7,,,,,,,sunabasphceswhwwqvv.jpg,,,,,,,,,,,,,,,
376,16,Memory,7,,,,,,,sunaamdjwemxpmmtypi.jpg,,,,,,,,,,,,,,,
377,16,Memory,7,,,,,,,sunabkmdplkdbvxriff.jpg,,,,,,,,,,,,,,,
378,16,Memory,7,,,,,,,00807941205fa.jpg,,,,,,,,,,,,,,,
379,16,Memory,7,,,,,,,sunammbnoambmhdxdwd.jpg,,,,,,,,,,,,,,,
380,16,Memory,7,,,,,,,sunabohxbskznglnrhv.jpg,,,,,,,,,,,,,,,
381,16,Memory,7,,,,,,,00498960627fa.jpg,,,,,,,,,,,,,,,
382,16,Memory,7,,,,,,,sunabzjxlmkwnwzimua.jpg,,,,,,,,,,,,,,,
383,16,Memory,7,,,,,,,sunadkazmlajmohnwfl.jpg,,,,,,,,,,,,,,,
384,16,Memory,7,,,,,,,00705960530fa.jpg,,,,,,,,,,,,,,,
385,16,Memory,7,,,,,,,sunaatpeezlljqaxlhj.jpg,,,,,,,,,,,,,,,
386,16,Memory,7,,,,,,,00662941121fa.jpg,,,,,,,,,,,,,,,
387,16,Memory,7,,,,,,,sunaduslxfzlbxlllnz.jpg,,,,,,,,,,,,,,,
388,16,Memory,7,,,,,,,00280940422fb.jpg,,,,,,,,,,,,,,,
389,16,Memory,7,,,,,,,sunaisiwfgppimtnmxl.jpg,,,,,,,,,,,,,,,
390,16,Memory,7,,,,,,,sunaalcrrdbjgdztbiz.jpg,,,,,,,,,,,,,,,
391,16,Memory,7,,,,,,,00123931230fb.jpg,,,,,,,,,,,,,,,
392,16,Memory,7,,,,,,,00901960530fa.jpg,,,,,,,,,,,,,,,
393,16,Memory,7,,,,,,,00841940307fa.jpg,,,,,,,,,,,,,,,
394,16,Memory,7,,,,,,,sunadtlxenqqxsyjvix.jpg,,,,,,,,,,,,,,,
395,16,Memory,7,,,,,,,sunahawfngukizslzsd.jpg,,,,,,,,,,,,,,,
396,16,Memory,7,,,,,,,sunaibnpvhkdpdnzcnz.jpg,,,,,,,,,,,,,,,
397,16,Memory,7,,,,,,,00126931230fb.jpg,,,,,,,,,,,,,,,
398,16,Memory,7,,,,,,,00211940128fa.jpg,,,,,,,,,,,,,,,
399,16,Memory,7,,,,,,,00271940422fa.jpg,,,,,,,,,,,,,,,
