,Subject,Trial Type,Run,Cued Composite,Uncued Composite,Cued Face,Cued Place,Uncued Face,Uncued Place,Memory Image,Category,Cued Side,Cued Category,Attention Reaction Time (s),Familiarity Reaction Time (s),Familiarity Rating,Attention Level,Cue Validity,Post Invalid Cue,Pre Invalid Cue,Attention Button,Rating History,Stimulus Onset,Stimulus End,Attention Probe
0,7,Presentation,0,00123931230fb_sunaalcrrdbjgdztbiz.jpg,00265940128fb_sunabkmdplkdbvxriff.jpg,00123931230fb.jpg,sunaalcrrdbjgdztbiz.jpg,00265940128fb.jpg,sunabkmdplkdbvxriff.jpg,,,<,Place,,,,,1,,,,,,,o
1,7,Presentation,0,00210940128fb_sunabanoxjtqxamkucc.jpg,00634940928fa_sunadcphrizvfpljiqt.jpg,00210940128fb.jpg,sunabanoxjtqxamkucc.jpg,00634940928fa.jpg,sunadcphrizvfpljiqt.jpg,,,<,Place,,,,,1,,,,,,,o
2,7,Presentation,0,00984960627fa_sunbfzchmomnvzhbxdg.jpg,00073931230fa_sunaafbmtoniaasysgu.jpg,00984960627fa.jpg,sunbfzchmomnvzhbxdg.jpg,00073931230fa.jpg,sunaafbmtoniaasysgu.jpg,,,>,Face,,,,,1,,,,,,,x
3,7,Presentation,0,00557940519fa_sunachtuarilwyqnvjx.jpg,00760960620fa_sunaffstbkappprzxnv.jpg,00557940519fa.jpg,sunachtuarilwyqnvjx.jpg,00760960620fa.jpg,sunaffstbkappprzxnv.jpg,,,<,Face,,,,,0,,,,,,,o
4,7,Presentation,0,00972960627fa_sunbbfqwjpdxniyhies.jpg,00109931230fa_sunaajuzribjrizdshh.jpg,00972960627fa.jpg,sunbbfqwjpdxniyhies.jpg,00109931230fa.jpg,sunaajuzribjrizdshh.jpg,,,<,Face,,,,,1,,,,,,,o
5,7,Presentation,0,00245940128fa_sunabeyhmxodahoieyk.jpg,00939960627fa_sunarceibpcyacbmfga.jpg,00245940128fa.jpg,sunabeyhmxodahoieyk.jpg,00939960627fa.jpg,sunarceibpcyacbmfga.jpg,,,>,Place,,,,,1,,,,,,,o
6,7,Presentation,0,00260940128fa_sunabgfhvifeijihhjw.jpg,00911960530fa_sunaooaqzputrowwbsw.jpg,00260940128fa.jpg,sunabgfhvifeijihhjw.jpg,00911960530fa.jpg,sunaooaqzputrowwbsw.jpg,,,>,Place,,,,,1,,,,,,,x
7,7,Presentation,0,00145931230fb_sunaatjesvdupctftmn.jpg,00308940422fb_sunabwfvcqqidycwypa.jpg,00145931230fb.jpg,sunaatjesvdupctftmn.jpg,00308940422fb.jpg,sunabwfvcqqidycwypa.jpg,,,>,Face,,,,,1,,,,,,,x
8,7,Presentation,0,00080931230fb_sunaafjszryxyavjzln.jpg,00115931230fa_sunaakmxzhuceuiryah.jpg,00080931230fb.jpg,sunaafjszryxyavjzln.jpg,00115931230fa.jpg,sunaakmxzhuceuiryah.jpg,,,>,Face,,,,,1,,,,,,,x
9,7,Presentation,0,00898960530fa_sunamkmeblgteyggink.jpg,00214940128fa_sunabbafjowbzcvbucc.jpg,00898960530fa.jpg,sunamkmeblgteyggink.jpg,00214940128fa.jpg,sunabbafjowbzcvbucc.jpg,,,<,Place,,,,,1,,,,,,,x
10,7,Memory,0,,,,,,,sunbpvgllfdejxcpjqp.jpg,,,,,,,,,,,,,,,
11,7,Memory,0,,,,,,,00914960620fa.jpg,,,,,,,,,,,,,,,
12,7,Memory,0,,,,,,,00760960620fa.jpg,,,,,,,,,,,,,,,
13,7,Memory,0,,,,,,,00115931230fa.jpg,,,,,,,,,,,,,,,
14,7,Memory,0,,,,,,,sunaakmxzhuceuiryah.jpg,,,,,,,,,,,,,,,
15,7,Memory,0,,,,,,,sunaaylzyqlqrsmfwif.jpg,,,,,,,,,,,,,,,
16,7,Memory,0,,,,,,,sunaooaqzputrowwbsw.jpg,,,,,,,,,,,,,,,
17,7,Memory,0,,,,,,,sunbfzchmomnvzhbxdg.jpg,,,,,,,,,,,,,,,
18,7,Memory,0,,,,,,,00123931230fb.jpg,,,,,,,,,,,,,,,
19,7,Memory,0,,,,,,,00634940928fa.jpg,,,,,,,,,,,,,,,
20,7,Memory,0,,,,,,,00210940128fb.jpg,,,,,,,,,,,,,,,
21,7,Memory,0,,,,,,,sunaalcrrdbjgdztbiz.jpg,,,,,,,,,,,,,,,
22,7,Memory,0,,,,,,,sunadakkdovnuzlycvp.jpg,,,,,,,,,,,,,,,
23,7,Memory,0,,,,,,,00557940519fa.jpg,,,,,,,,,,,,,,,
24,7,Memory,0,,,,,,,00996960627fa.jpg,,,,,,,,,,,,,,,
25,7,Memory,0,,,,,,,00305940422fa.jpg,,,,,,,,,,,,,,,
26,7,Memory,0,,,,,,,sunaatpeezlljqaxlhj.jpg,,,,,,,,,,,,,,,
27,7,Memory,0,,,,,,,sunaozisvwfbmlkfhzv.jpg,,,,,,,,,,,,,,,
28,7,Memory,0,,,,,,,sunaayehfdqcyxggsej.jpg,,,,,,,,,,,,,,,
29,7,Memory,0,,,,,,,00911960530fa.jpg,,,,,,,,,,,,,,,
30,7,Memory,0,,,,,,,00953960627fa.jpg,,,,,,,,,,,,,,,
31,7,Memory,0,,,,,,,00194940128fb.jpg,,,,,,,,,,,,,,,
32,7,Memory,0,,,,,,,sunaffstbkappprzxnv.jpg,,,,,,,,,,,,,,,
33,7,Memory,0,,,,,,,00984960627fa.jpg,,,,,,,,,,,,,,,
34,7,Memory,0,,,,,,,sunatstrpjxhvtbaczf.jpg,,,,,,,,,,,,,,,
35,7,Memory,0,,,,,,,00109931230fa.jpg,,,,,,,,,,,,,,,
36,7,Memory,0,,,,,,,sunaajuzribjrizdshh.jpg,,,,,,,,,,,,,,,
37,7,Memory,0,,,,,,,sunaakgekhjklxmvulj.jpg,,,,,,,,,,,,,,,
38,7,Memory,0,,,,,,,sunabgfhvifeijihhjw.jpg,,,,,,,,,,,,,,,
39,7,Memory,0,,,,,,,00146960620fb.jpg,,,,,,,,,,,,,,,
40,7,Memory,0,,,,,,,sunachtuarilwyqnvjx.jpg,,,,,,,,,,,,,,,
41,7,Memory,0,,,,,,,00197940128fa.jpg,,,,,,,,,,,,,,,
42,7,Memory,0,,,,,,,00630941031fa.jpg,,,,,,,,,,,,,,,
43,7,Memory,0,,,,,,,sunaavchcbptaerhcfy.jpg,,,,,,,,,,,,,,,
44,7,Memory,0,,,,,,,00111931230fb.jpg,,,,,,,,,,,,,,,
45,7,Memory,0,,,,,,,sunabtrnbvpppgczjim.jpg,,,,,,,,,,,,,,,
46,7,Memory,0,,,,,,,sunadcphrizvfpljiqt.jpg,,,,,,,,,,,,,,,
47,7,Memory,0,,,,,,,00158931230fb.jpg,,,,,,,,,,,,,,,
48,7,Memory,0,,,,,,,00260940128fa.jpg,,,,,,,,,,,,,,,
49,7,Memory,0,,,,,,,sunabanoxjtqxamkucc.jpg,,,,,,,,,,,,,,,
50,7,Presentation,1,00925960627fa_sunapqwnqzxlsfvgsjm.jpg,00112931230fa_sunaakjaacuzulqckgl.jpg,00925960627fa.jpg,sunapqwnqzxlsfvgsjm.jpg,00112931230fa.jpg,sunaakjaacuzulqckgl.jpg,,,<,Face,,,,,1,,,,,,,o
51,7,Presentation,1,00288940422fa_sunabppokiyglaxpcha.jpg,00070940307fa_sunaaeplwsfslcbtojr.jpg,00288940422fa.jpg,sunabppokiyglaxpcha.jpg,00070940307fa.jpg,sunaaeplwsfslcbtojr.jpg,,,<,Place,,,,,1,,,,,,,o
52,7,Presentation,1,00262940128fa_sunabizydfotqddlnjp.jpg,00801941205fa_sunagvprlbprarvgdvj.jpg,00262940128fa.jpg,sunabizydfotqddlnjp.jpg,00801941205fa.jpg,sunagvprlbprarvgdvj.jpg,,,>,Face,,,,,1,,,,,,,x
53,7,Presentation,1,00564940928fa_sunacmpqqfbsvlzinzl.jpg,00095931230fa_sunaahzooisqkwlxwoz.jpg,00564940928fa.jpg,sunacmpqqfbsvlzinzl.jpg,00095931230fa.jpg,sunaahzooisqkwlxwoz.jpg,,,<,Face,,,,,1,,,,,,,o
54,7,Presentation,1,00741941201fa_sunaemcowdozyphwknd.jpg,00108960530fa_sunaajtnvzzpsjdzres.jpg,00741941201fa.jpg,sunaemcowdozyphwknd.jpg,00108960530fa.jpg,sunaajtnvzzpsjdzres.jpg,,,<,Place,,,,,1,,,,,,,o
55,7,Presentation,1,00676941121fa_sunadpnqovzckyikrjo.jpg,00797960620fa_sunagufzbeteqdjxais.jpg,00676941121fa.jpg,sunadpnqovzckyikrjo.jpg,00797960620fa.jpg,sunagufzbeteqdjxais.jpg,,,>,Place,,,,,1,,,,,,,x
56,7,Presentation,1,00942960627fa_sunarfdklgdnjgeqfjg.jpg,00997960627fa_sunbtpilbhhbmhmeuzq.jpg,00942960627fa.jpg,sunarfdklgdnjgeqfjg.jpg,00997960627fa.jpg,sunbtpilbhhbmhmeuzq.jpg,,,>,Face,,,,,1,,,,,,,o
57,7,Presentation,1,00313940422fa_sunabwjvmoaddlyxfjr.jpg,00063931230fa_sunaaelyvurpntclgau.jpg,00313940422fa.jpg,sunabwjvmoaddlyxfjr.jpg,00063931230fa.jpg,sunaaelyvurpntclgau.jpg,,,>,Place,,,,,1,,,,,,,x
58,7,Presentation,1,00988960627fa_sunbmaiocftdtvnzgap.jpg,00543940519fa_sunacepzfrmtkiqonpy.jpg,00988960627fa.jpg,sunbmaiocftdtvnzgap.jpg,00543940519fa.jpg,sunacepzfrmtkiqonpy.jpg,,,<,Place,,,,,1,,,,,,,x
59,7,Presentation,1,00483940519fa_sunabyvpwkgsjtijdwj.jpg,00235940128fb_sunabclssnoeuigtawp.jpg,00483940519fa.jpg,sunabyvpwkgsjtijdwj.jpg,00235940128fb.jpg,sunabclssnoeuigtawp.jpg,,,>,Face,,,,,1,,,,,,,o
60,7,Memory,1,,,,,,,00112931230fa.jpg,,,,,,,,,,,,,,,
61,7,Memory,1,,,,,,,sunaemcowdozyphwknd.jpg,,,,,,,,,,,,,,,
62,7,Memory,1,,,,,,,00598941031fa.jpg,,,,,,,,,,,,,,,
63,7,Memory,1,,,,,,,sunahawfngukizslzsd.jpg,,,,,,,,,,,,,,,
64,7,Memory,1,,,,,,,00063931230fa.jpg,,,,,,,,,,,,,,,
65,7,Memory,1,,,,,,,00208940128fa.jpg,,,,,,,,,,,,,,,
66,7,Memory,1,,,,,,,sunacxtcahkymosigud.jpg,,,,,,,,,,,,,,,
67,7,Memory,1,,,,,,,00543940519fa.jpg,,,,,,,,,,,,,,,
68,7,Memory,1,,,,,,,sunabyvpwkgsjtijdwj.jpg,,,,,,,,,,,,,,,
69,7,Memory,1,,,,,,,00745941205fa.jpg,,,,,,,,,,,,,,,
70,7,Memory,1,,,,,,,sunbmaiocftdtvnzgap.jpg,,,,,,,,,,,,,,,
71,7,Memory,1,,,,,,,00483940519fa.jpg,,,,,,,,,,,,,,,
72,7,Memory,1,,,,,,,00797960620fa.jpg,,,,,,,,,,,,,,,
73,7,Memory,1,,,,,,,sunadfktsqjthoglcsm.jpg,,,,,,,,,,,,,,,
74,7,Memory,1,,,,,,,sunaeouogqolxvggaoq.jpg,,,,,,,,,,,,,,,
75,7,Memory,1,,,,,,,sunacepzfrmtkiqonpy.jpg,,,,,,,,,,,,,,,
76,7,Memory,1,,,,,,,00070940307fa.jpg,,,,,,,,,,,,,,,
77,7,Memory,1,,,,,,,sunagufzbeteqdjxais.jpg,,,,,,,,,,,,,,,
78,7,Memory,1,,,,,,,00313940422fa.jpg,,,,,,,,,,,,,,,
79,7,Memory,1,,,,,,,00944960627fa.jpg,,,,,,,,,,,,,,,
80,7,Memory,1,,,,,,,sunaazzyhbvqjpmazjq.jpg,,,,,,,,,,,,,,,
81,7,Memory,1,,,,,,,00741941201fa.jpg,,,,,,,,,,,,,,,
82,7,Memory,1,,,,,,,sunasbbntuiheekqyaq.jpg,,,,,,,,,,,,,,,
83,7,Memory,1,,,,,,,00807941205fa.jpg,,,,,,,,,,,,,,,
84,7,Memory,1,,,,,,,00198940128fb.jpg,,,,,,,,,,,,,,,
85,7,Memory,1,,,,,,,sunapqwnqzxlsfvgsjm.jpg,,,,,,,,,,,,,,,
86,7,Memory,1,,,,,,,00966960627fa.jpg,,,,,,,,,,,,,,,
87,7,Memory,1,,,,,,,sunaakjaacuzulqckgl.jpg,,,,,,,,,,,,,,,
88,7,Memory,1,,,,,,,00988960627fa.jpg,,,,,,,,,,,,,,,
89,7,Memory,1,,,,,,,sunabwjvmoaddlyxfjr.jpg,,,,,,,,,,,,,,,
90,7,Memory,1,,,,,,,sunaaeplwsfslcbtojr.jpg,,,,,,,,,,,,,,,
91,7,Memory,1,,,,,,,00925960627fa.jpg,,,,,,,,,,,,,,,
92,7,Memory,1,,,,,,,sunapileznnbbmrwoei.jpg,,,,,,,,,,,,,,,
93,7,Memory,1,,,,,,,00694941121fa.jpg,,,,,,,,,,,,,,,
94,7,Memory,1,,,,,,,sunaazezcsunmhttzxz.jpg,,,,,,,,,,,,,,,
95,7,Memory,1,,,,,,,00915960620fa.jpg,,,,,,,,,,,,,,,
96,7,Memory,1,,,,,,,sunaygrtwrwfezqjizr.jpg,,,,,,,,,,,,,,,
97,7,Memory,1,,,,,,,sunaaelyvurpntclgau.jpg,,,,,,,,,,,,,,,
98,7,Memory,1,,,,,,,00638941031fa.jpg,,,,,,,,,,,,,,,
99,7,Memory,1,,,,,,,sunadrmfzmstgdjdcod.jpg,,,,,,,,,,,,,,,
100,7,Presentation,2,00127931230fa_sunaampvucecsfbdafn.jpg,00753941201fa_sunafcofuuzebuadceo.jpg,00127931230fa.jpg,sunaampvucecsfbdafn.jpg,00753941201fa.jpg,sunafcofuuzebuadceo.jpg,,,>,Face,,,,,1,,,,,,,o
101,7,Presentation,2,00858940307fa_sunaixpqndlwhwjtjek.jpg,00789960620fa_sunagpancjmxqfazssf.jpg,00858940307fa.jpg,sunaixpqndlwhwjtjek.jpg,00789960620fa.jpg,sunagpancjmxqfazssf.jpg,,,>,Place,,,,,1,,,,,,,o
102,7,Presentation,2,00728941205fa_sunaejnvnpltdmhbcsi.jpg,00138931230fa_sunaapfaivxqoynnwwp.jpg,00728941205fa.jpg,sunaejnvnpltdmhbcsi.jpg,00138931230fa.jpg,sunaapfaivxqoynnwwp.jpg,,,<,Face,,,,,1,,,,,,,o
103,7,Presentation,2,00242940128fa_sunabcuurugvxwparpk.jpg,00663941121fa_sunadnjjzohjhbohlwq.jpg,00242940128fa.jpg,sunabcuurugvxwparpk.jpg,00663941121fa.jpg,sunadnjjzohjhbohlwq.jpg,,,<,Place,,,,,0,,,,,,,o
104,7,Presentation,2,00633940928fa_sunadbhmrgrrpyzglxs.jpg,00792941205fa_sunagsiwrmuixqgdimb.jpg,00633940928fa.jpg,sunadbhmrgrrpyzglxs.jpg,00792941205fa.jpg,sunagsiwrmuixqgdimb.jpg,,,<,Place,,,,,1,,,,,,,x
105,7,Presentation,2,00901960530fa_sunammbnoambmhdxdwd.jpg,00191940128fb_sunaawsdjisukbbginm.jpg,00901960530fa.jpg,sunammbnoambmhdxdwd.jpg,00191940128fb.jpg,sunaawsdjisukbbginm.jpg,,,>,Place,,,,,1,,,,,,,o
106,7,Presentation,2,00719941201fa_sunadvithllcgmfxsrn.jpg,00086931230fa_sunaafynehyrzpsoaml.jpg,00719941201fa.jpg,sunadvithllcgmfxsrn.jpg,00086931230fa.jpg,sunaafynehyrzpsoaml.jpg,,,<,Face,,,,,1,,,,,,,x
107,7,Presentation,2,00505960627fa_sunabzuqsrgcsonqlkz.jpg,00647941031fa_sunadflbrkckmepztql.jpg,00505960627fa.jpg,sunabzuqsrgcsonqlkz.jpg,00647941031fa.jpg,sunadflbrkckmepztql.jpg,,,<,Face,,,,,1,,,,,,,x
108,7,Presentation,2,01003960627fb_sunbwdrdvsweerwsdrj.jpg,00120931230fa_sunaakxgygjfqrzpyoz.jpg,01003960627fb.jpg,sunbwdrdvsweerwsdrj.jpg,00120931230fa.jpg,sunaakxgygjfqrzpyoz.jpg,,,>,Face,,,,,1,,,,,,,o
109,7,Presentation,2,00576941031fa_sunacvjlsylseoghjup.jpg,00969960627fa_sunbaoizrfijvhpnnjn.jpg,00576941031fa.jpg,sunacvjlsylseoghjup.jpg,00969960627fa.jpg,sunbaoizrfijvhpnnjn.jpg,,,>,Place,,,,,0,,,,,,,x
110,7,Memory,2,,,,,,,sunabcuurugvxwparpk.jpg,,,,,,,,,,,,,,,
111,7,Memory,2,,,,,,,sunajbwkywmsqkldfml.jpg,,,,,,,,,,,,,,,
112,7,Memory,2,,,,,,,00086931230fa.jpg,,,,,,,,,,,,,,,
113,7,Memory,2,,,,,,,sunapmfmzadmosuogaz.jpg,,,,,,,,,,,,,,,
114,7,Memory,2,,,,,,,00901960530fa.jpg,,,,,,,,,,,,,,,
115,7,Memory,2,,,,,,,suncnkvbhypnivcohyx.jpg,,,,,,,,,,,,,,,
116,7,Memory,2,,,,,,,00969960627fa.jpg,,,,,,,,,,,,,,,
117,7,Memory,2,,,,,,,sunaivdjruhkrfywfed.jpg,,,,,,,,,,,,,,,
118,7,Memory,2,,,,,,,00633940928fa.jpg,,,,,,,,,,,,,,,
119,7,Memory,2,,,,,,,sunaofikylqtxphvdem.jpg,,,,,,,,,,,,,,,
120,7,Memory,2,,,,,,,sunaczwgyukesaajxnx.jpg,,,,,,,,,,,,,,,
121,7,Memory,2,,,,,,,00847940307fa.jpg,,,,,,,,,,,,,,,
122,7,Memory,2,,,,,,,00242940128fa.jpg,,,,,,,,,,,,,,,
123,7,Memory,2,,,,,,,00681941121fa.jpg,,,,,,,,,,,,,,,
124,7,Memory,2,,,,,,,00663941121fa.jpg,,,,,,,,,,,,,,,
125,7,Memory,2,,,,,,,00866940307fa.jpg,,,,,,,,,,,,,,,
126,7,Memory,2,,,,,,,sunapqkyghktgtosuuk.jpg,,,,,,,,,,,,,,,
127,7,Memory,2,,,,,,,sunammbnoambmhdxdwd.jpg,,,,,,,,,,,,,,,
128,7,Memory,2,,,,,,,sunagsiwrmuixqgdimb.jpg,,,,,,,,,,,,,,,
129,7,Memory,2,,,,,,,01010960627fa.jpg,,,,,,,,,,,,,,,
130,7,Memory,2,,,,,,,00792941205fa.jpg,,,,,,,,,,,,,,,
131,7,Memory,2,,,,,,,sunaampvucecsfbdafn.jpg,,,,,,,,,,,,,,,
132,7,Memory,2,,,,,,,sunadnjjzohjhbohlwq.jpg,,,,,,,,,,,,,,,
133,7,Memory,2,,,,,,,00120931230fa.jpg,,,,,,,,,,,,,,,
134,7,Memory,2,,,,,,,sunaejnvnpltdmhbcsi.jpg,,,,,,,,,,,,,,,
135,7,Memory,2,,,,,,,00728941205fa.jpg,,,,,,,,,,,,,,,
136,7,Memory,2,,,,,,,00620940928fa.jpg,,,,,,,,,,,,,,,
137,7,Memory,2,,,,,,,sunaezuszgtxnmsxdbk.jpg,,,,,,,,,,,,,,,
138,7,Memory,2,,,,,,,sunacypmnujalygkunp.jpg,,,,,,,,,,,,,,,
139,7,Memory,2,,,,,,,sunadqmjrhfjyuzyvdd.jpg,,,,,,,,,,,,,,,
140,7,Memory,2,,,,,,,sunaakxgygjfqrzpyoz.jpg,,,,,,,,,,,,,,,
141,7,Memory,2,,,,,,,00127931230fa.jpg,,,,,,,,,,,,,,,
142,7,Memory,2,,,,,,,00922960627fa.jpg,,,,,,,,,,,,,,,
143,7,Memory,2,,,,,,,00751960620fa.jpg,,,,,,,,,,,,,,,
144,7,Memory,2,,,,,,,sunbaoizrfijvhpnnjn.jpg,,,,,,,,,,,,,,,
145,7,Memory,2,,,,,,,00630940928fa.jpg,,,,,,,,,,,,,,,
146,7,Memory,2,,,,,,,sunadbhmrgrrpyzglxs.jpg,,,,,,,,,,,,,,,
147,7,Memory,2,,,,,,,00919960620fa.jpg,,,,,,,,,,,,,,,
148,7,Memory,2,,,,,,,sunaafynehyrzpsoaml.jpg,,,,,,,,,,,,,,,
149,7,Memory,2,,,,,,,00910960530fa.jpg,,,,,,,,,,,,,,,
150,7,Presentation,3,00747941201fa_sunaeutbrtswvsozxyk.jpg,00854940307fa_sunaiwduelojtwaqeyh.jpg,00747941201fa.jpg,sunaeutbrtswvsozxyk.jpg,00854940307fa.jpg,sunaiwduelojtwaqeyh.jpg,,,<,Face,,,,,1,,,,,,,o
151,7,Presentation,3,00791941205fa_sunagrmyoovzukhxmlo.jpg,00302940422fa_sunabtlfmiwtljmoues.jpg,00791941205fa.jpg,sunagrmyoovzukhxmlo.jpg,00302940422fa.jpg,sunabtlfmiwtljmoues.jpg,,,<,Place,,,,,1,,,,,,,o
152,7,Presentation,3,00154931230fa_sunaauueuhhvklldjik.jpg,00804960530fa_sunagwswhkvnsmuszlz.jpg,00154931230fa.jpg,sunaauueuhhvklldjik.jpg,00804960530fa.jpg,sunagwswhkvnsmuszlz.jpg,,,>,Place,,,,,1,,,,,,,o
153,7,Presentation,3,00076931230fa_sunaafewhewbxmjiurz.jpg,00507940519fa_sunacacflqoyxhsqzhe.jpg,00076931230fa.jpg,sunaafewhewbxmjiurz.jpg,00507940519fa.jpg,sunacacflqoyxhsqzhe.jpg,,,<,Place,,,,,0,,,,,,,x
154,7,Presentation,3,00893960530Fa_sunaloffvbvysigxent.jpg,00967960627fa_sunbaejotfklekvpxcz.jpg,00893960530Fa.jpg,sunaloffvbvysigxent.jpg,00967960627fa.jpg,sunbaejotfklekvpxcz.jpg,,,>,Place,,,,,1,,,,,,,o
155,7,Presentation,3,00271940422fa_sunabmbnddafmywtjjj.jpg,00263940128fb_sunabjuovqvyfuzvqwt.jpg,00271940422fa.jpg,sunabmbnddafmywtjjj.jpg,00263940128fb.jpg,sunabjuovqvyfuzvqwt.jpg,,,>,Face,,,,,1,,,,,,,o
156,7,Presentation,3,00800941205fb_sunagvjurcwdbixvnyi.jpg,00805941205fa_sunagwzdbtlixdhgolm.jpg,00800941205fb.jpg,sunagvjurcwdbixvnyi.jpg,00805941205fa.jpg,sunagwzdbtlixdhgolm.jpg,,,>,Place,,,,,1,,,,,,,x
157,7,Presentation,3,00193940928fa_sunaaxjpzcnxligjtjq.jpg,00761960627fa_sunafgdqbclkwfocdhg.jpg,00193940928fa.jpg,sunaaxjpzcnxligjtjq.jpg,00761960627fa.jpg,sunafgdqbclkwfocdhg.jpg,,,<,Face,,,,,0,,,,,,,o
158,7,Presentation,3,00101931230fb_sunaajqmsaavkmgbsth.jpg,00933960627fa_sunapwjkcxdaeqehfql.jpg,00101931230fb.jpg,sunaajqmsaavkmgbsth.jpg,00933960627fa.jpg,sunapwjkcxdaeqehfql.jpg,,,>,Face,,,,,1,,,,,,,o
159,7,Presentation,3,00125931230fa_sunaalltyvjhbzhkmvg.jpg,00559940519fa_sunacjkmnpawfzbyvae.jpg,00125931230fa.jpg,sunaalltyvjhbzhkmvg.jpg,00559940519fa.jpg,sunacjkmnpawfzbyvae.jpg,,,<,Face,,,,,1,,,,,,,x
160,7,Memory,3,,,,,,,00854940307fa.jpg,,,,,,,,,,,,,,,
161,7,Memory,3,,,,,,,00270940422fb.jpg,,,,,,,,,,,,,,,
162,7,Memory,3,,,,,,,sunaauueuhhvklldjik.jpg,,,,,,,,,,,,,,,
163,7,Memory,3,,,,,,,00116931230fa.jpg,,,,,,,,,,,,,,,
164,7,Memory,3,,,,,,,00581940928fa.jpg,,,,,,,,,,,,,,,
165,7,Memory,3,,,,,,,sunaduslxfzlbxlllnz.jpg,,,,,,,,,,,,,,,
166,7,Memory,3,,,,,,,sunacjkmnpawfzbyvae.jpg,,,,,,,,,,,,,,,
167,7,Memory,3,,,,,,,00933960627fa.jpg,,,,,,,,,,,,,,,
168,7,Memory,3,,,,,,,sunacvzhvcksnwqcqbw.jpg,,,,,,,,,,,,,,,
169,7,Memory,3,,,,,,,sunafgdqbclkwfocdhg.jpg,,,,,,,,,,,,,,,
170,7,Memory,3,,,,,,,sunabmbnddafmywtjjj.jpg,,,,,,,,,,,,,,,
171,7,Memory,3,,,,,,,00747941201fa.jpg,,,,,,,,,,,,,,,
172,7,Memory,3,,,,,,,sunagwzdbtlixdhgolm.jpg,,,,,,,,,,,,,,,
173,7,Memory,3,,,,,,,sunapwjkcxdaeqehfql.jpg,,,,,,,,,,,,,,,
174,7,Memory,3,,,,,,,sunabckqabszusgcykj.jpg,,,,,,,,,,,,,,,
175,7,Memory,3,,,,,,,00193940928fa.jpg,,,,,,,,,,,,,,,
176,7,Memory,3,,,,,,,sunacerqowiaeoqkmsq.jpg,,,,,,,,,,,,,,,
177,7,Memory,3,,,,,,,00860940307fa.jpg,,,,,,,,,,,,,,,
178,7,Memory,3,,,,,,,00805941205fa.jpg,,,,,,,,,,,,,,,
179,7,Memory,3,,,,,,,sunaizeyhvjzknwjudw.jpg,,,,,,,,,,,,,,,
180,7,Memory,3,,,,,,,sunaeutbrtswvsozxyk.jpg,,,,,,,,,,,,,,,
181,7,Memory,3,,,,,,,00154931230fa.jpg,,,,,,,,,,,,,,,
182,7,Memory,3,,,,,,,00705960530fa.jpg,,,,,,,,,,,,,,,
183,7,Memory,3,,,,,,,sunaaxjpzcnxligjtjq.jpg,,,,,,,,,,,,,,,
184,7,Memory,3,,,,,,,sunaakqepfoeqomfgxf.jpg,,,,,,,,,,,,,,,
185,7,Memory,3,,,,,,,00960960627fa.jpg,,,,,,,,,,,,,,,
186,7,Memory,3,,,,,,,00742941201fa.jpg,,,,,,,,,,,,,,,
187,7,Memory,3,,,,,,,sunaiwduelojtwaqeyh.jpg,,,,,,,,,,,,,,,
188,7,Memory,3,,,,,,,00227940128fa.jpg,,,,,,,,,,,,,,,
189,7,Memory,3,,,,,,,sunabllobxadqcyttej.jpg,,,,,,,,,,,,,,,
190,7,Memory,3,,,,,,,00559940519fa.jpg,,,,,,,,,,,,,,,
191,7,Memory,3,,,,,,,00761960627fa.jpg,,,,,,,,,,,,,,,
192,7,Memory,3,,,,,,,00125931230fa.jpg,,,,,,,,,,,,,,,
193,7,Memory,3,,,,,,,sunawksfbacycuhbrsc.jpg,,,,,,,,,,,,,,,
194,7,Memory,3,,,,,,,00271940422fa.jpg,,,,,,,,,,,,,,,
195,7,Memory,3,,,,,,,sunaalltyvjhbzhkmvg.jpg,,,,,,,,,,,,,,,
196,7,Memory,3,,,,,,,00548940519fa.jpg,,,,,,,,,,,,,,,
197,7,Memory,3,,,,,,,sunaenwuebvlpdmntju.jpg,,,,,,,,,,,,,,,
198,7,Memory,3,,,,,,,sunahqldjibofgsfdgb.jpg,,,,,,,,,,,,,,,
199,7,Memory,3,,,,,,,00819940307fa.jpg,,,,,,,,,,,,,,,
200,7,Presentation,4,00882960530fa_sunaknlirqjqiwbbeeg.jpg,00985960627fa_sunbgklxeqjhdbyfhhy.jpg,00882960530fa.jpg,sunaknlirqjqiwbbeeg.jpg,00985960627fa.jpg,sunbgklxeqjhdbyfhhy.jpg,,,>,Face,,,,,1,,,,,,,x
201,7,Presentation,4,00773960620fa_sunafvsxtzaizojicxx.jpg,00889960530fa_sunaletopenvvozhpxc.jpg,00773960620fa.jpg,sunafvsxtzaizojicxx.jpg,00889960530fa.jpg,sunaletopenvvozhpxc.jpg,,,>,Place,,,,,1,,,,,,,x
202,7,Presentation,4,00848940307fa_sunaivdylrawbmhryfp.jpg,00943960627fa_sunarpsxqkduedrrzyi.jpg,00848940307fa.jpg,sunaivdylrawbmhryfp.jpg,00943960627fa.jpg,sunarpsxqkduedrrzyi.jpg,,,>,Place,,,,,1,,,,,,,x
203,7,Presentation,4,00793941205fa_sunagtjwilqjvxohypn.jpg,00163931230fb_sunaavodbcpygkggnfp.jpg,00793941205fa.jpg,sunagtjwilqjvxohypn.jpg,00163931230fb.jpg,sunaavodbcpygkggnfp.jpg,,,<,Place,,,,,1,,,,,,,x
204,7,Presentation,4,00851940307fa_sunaivflshbyfrfzhqb.jpg,00763941205fa_sunafhmnhsdurlvddpw.jpg,00851940307fa.jpg,sunaivflshbyfrfzhqb.jpg,00763941205fa.jpg,sunafhmnhsdurlvddpw.jpg,,,<,Face,,,,,1,,,,,,,x
205,7,Presentation,4,00562941031fa_sunacjnahdmqfnjfwqx.jpg,00762941201fa_sunafgzgbisbopcyslr.jpg,00562941031fa.jpg,sunacjnahdmqfnjfwqx.jpg,00762941201fa.jpg,sunafgzgbisbopcyslr.jpg,,,>,Place,,,,,1,,,,,,,x
206,7,Presentation,4,00092931230fa_sunaaheqzstzxuadglu.jpg,00093931230fa_sunaahwnmtqsrhocysw.jpg,00092931230fa.jpg,sunaaheqzstzxuadglu.jpg,00093931230fa.jpg,sunaahwnmtqsrhocysw.jpg,,,>,Face,,,,,1,,,,,,,o
207,7,Presentation,4,00931960627fa_sunaptrqvaooxfvktvw.jpg,00221940128fa_sunabcfpwlpolnutyju.jpg,00931960627fa.jpg,sunaptrqvaooxfvktvw.jpg,00221940128fa.jpg,sunabcfpwlpolnutyju.jpg,,,<,Face,,,,,1,,,,,,,o
208,7,Presentation,4,00129931230fb_sunaamsdyakblkfoydx.jpg,00788941205fa_sunagountlxpzkytsmp.jpg,00129931230fb.jpg,sunaamsdyakblkfoydx.jpg,00788941205fa.jpg,sunagountlxpzkytsmp.jpg,,,<,Face,,,,,1,,,,,,,x
209,7,Presentation,4,00935960627fa_sunaqbmgkgqucajzrkp.jpg,00498960627fa_sunabzjxlmkwnwzimua.jpg,00935960627fa.jpg,sunaqbmgkgqucajzrkp.jpg,00498960627fa.jpg,sunabzjxlmkwnwzimua.jpg,,,<,Place,,,,,1,,,,,,,x
210,7,Memory,4,,,,,,,sunaamsdyakblkfoydx.jpg,,,,,,,,,,,,,,,
211,7,Memory,4,,,,,,,sunagoufulkpsxrmklt.jpg,,,,,,,,,,,,,,,
212,7,Memory,4,,,,,,,00762941201fa.jpg,,,,,,,,,,,,,,,
213,7,Memory,4,,,,,,,sunafbwnojpqeyzssoe.jpg,,,,,,,,,,,,,,,
214,7,Memory,4,,,,,,,00129931230fb.jpg,,,,,,,,,,,,,,,
215,7,Memory,4,,,,,,,00985960627fa.jpg,,,,,,,,,,,,,,,
216,7,Memory,4,,,,,,,sunaivflshbyfrfzhqb.jpg,,,,,,,,,,,,,,,
217,7,Memory,4,,,,,,,sunaajspcoepticvplv.jpg,,,,,,,,,,,,,,,
218,7,Memory,4,,,,,,,00793941205fa.jpg,,,,,,,,,,,,,,,
219,7,Memory,4,,,,,,,00787960620fa.jpg,,,,,,,,,,,,,,,
220,7,Memory,4,,,,,,,sunbgklxeqjhdbyfhhy.jpg,,,,,,,,,,,,,,,
221,7,Memory,4,,,,,,,sunafvsxtzaizojicxx.jpg,,,,,,,,,,,,,,,
222,7,Memory,4,,,,,,,sunagtjwilqjvxohypn.jpg,,,,,,,,,,,,,,,
223,7,Memory,4,,,,,,,sunabcfpwlpolnutyju.jpg,,,,,,,,,,,,,,,
224,7,Memory,4,,,,,,,sunbbgtoeuzierkkajt.jpg,,,,,,,,,,,,,,,
225,7,Memory,4,,,,,,,00943960627fa.jpg,,,,,,,,,,,,,,,
226,7,Memory,4,,,,,,,sunafgzgbisbopcyslr.jpg,,,,,,,,,,,,,,,
227,7,Memory,4,,,,,,,sunaeuvjbmdpknaqqaj.jpg,,,,,,,,,,,,,,,
228,7,Memory,4,,,,,,,00957960627fa.jpg,,,,,,,,,,,,,,,
229,7,Memory,4,,,,,,,sunavhxgmgrqsaptynb.jpg,,,,,,,,,,,,,,,
230,7,Memory,4,,,,,,,00102931230fa.jpg,,,,,,,,,,,,,,,
231,7,Memory,4,,,,,,,00749941201fa.jpg,,,,,,,,,,,,,,,
232,7,Memory,4,,,,,,,00221940128fa.jpg,,,,,,,,,,,,,,,
233,7,Memory,4,,,,,,,00973960627fa.jpg,,,,,,,,,,,,,,,
234,7,Memory,4,,,,,,,00848940307fa.jpg,,,,,,,,,,,,,,,
235,7,Memory,4,,,,,,,sunarpsxqkduedrrzyi.jpg,,,,,,,,,,,,,,,
236,7,Memory,4,,,,,,,00958960627fa.jpg,,,,,,,,,,,,,,,
237,7,Memory,4,,,,,,,00752960620fa.jpg,,,,,,,,,,,,,,,
238,7,Memory,4,,,,,,,sunavxokzybtomhbmvm.jpg,,,,,,,,,,,,,,,
239,7,Memory,4,,,,,,,00889960530fa.jpg,,,,,,,,,,,,,,,
240,7,Memory,4,,,,,,,00851940307fa.jpg,,,,,,,,,,,,,,,
241,7,Memory,4,,,,,,,sunabrlndkruqokhury.jpg,,,,,,,,,,,,,,,
242,7,Memory,4,,,,,,,00959960627fa.jpg,,,,,,,,,,,,,,,
243,7,Memory,4,,,,,,,00294940422fb.jpg,,,,,,,,,,,,,,,
244,7,Memory,4,,,,,,,00773960620fa.jpg,,,,,,,,,,,,,,,
245,7,Memory,4,,,,,,,sunakgbnzxmfohgehnu.jpg,,,,,,,,,,,,,,,
246,7,Memory,4,,,,,,,sunavspxmxubqaeidjt.jpg,,,,,,,,,,,,,,,
247,7,Memory,4,,,,,,,sunaletopenvvozhpxc.jpg,,,,,,,,,,,,,,,
248,7,Memory,4,,,,,,,00878960530fa.jpg,,,,,,,,,,,,,,,
249,7,Memory,4,,,,,,,sunaivdylrawbmhryfp.jpg,,,,,,,,,,,,,,,
250,7,Presentation,5,00574940928fa_sunacvbrcejzwmcgnoq.jpg,00720960620fa_sunaecpkgfewqqreqwe.jpg,00574940928fa.jpg,sunacvbrcejzwmcgnoq.jpg,00720960620fa.jpg,sunaecpkgfewqqreqwe.jpg,,,<,Face,,,,,1,,,,,,,o
251,7,Presentation,5,00971960627fa_sunbbegcweqnetpdlrh.jpg,00743941201fa_sunaeoghzrjarigmwua.jpg,00971960627fa.jpg,sunbbegcweqnetpdlrh.jpg,00743941201fa.jpg,sunaeoghzrjarigmwua.jpg,,,<,Face,,,,,1,,,,,,,x
252,7,Presentation,5,00976960627fa_sunbbhqyyzmsxhsbjmp.jpg,00799941205fa_sunagutjvdvnhxejerz.jpg,00976960627fa.jpg,sunbbhqyyzmsxhsbjmp.jpg,00799941205fa.jpg,sunagutjvdvnhxejerz.jpg,,,>,Place,,,,,1,,,,,,,x
253,7,Presentation,5,00834940307fa_sunaibnpvhkdpdnzcnz.jpg,00609940928fa_sunacycdoztxoluxjyk.jpg,00834940307fa.jpg,sunaibnpvhkdpdnzcnz.jpg,00609940928fa.jpg,sunacycdoztxoluxjyk.jpg,,,>,Place,,,,,1,,,,,,,x
254,7,Presentation,5,00794960620fa_sunagtqhhwxjeuxdebe.jpg,00719960620fa_sunadzuvtmtmgupotmf.jpg,00794960620fa.jpg,sunagtqhhwxjeuxdebe.jpg,00719960620fa.jpg,sunadzuvtmtmgupotmf.jpg,,,>,Face,,,,,1,,,,,,,o
255,7,Presentation,5,00648941031fa_sunadfndyrtqqiasoig.jpg,01005960627fa_sunbwyuesflwdpqtgoy.jpg,00648941031fa.jpg,sunadfndyrtqqiasoig.jpg,01005960627fa.jpg,sunbwyuesflwdpqtgoy.jpg,,,>,Place,,,,,1,,,,,,,o
256,7,Presentation,5,01009960627fa_sunbxzweleltykebgan.jpg,00725941201fa_sunaefgzwiramypjvtd.jpg,01009960627fa.jpg,sunbxzweleltykebgan.jpg,00725941201fa.jpg,sunaefgzwiramypjvtd.jpg,,,<,Face,,,,,1,,,,,,,o
257,7,Presentation,5,00841940307fa_sunaisiwfgppimtnmxl.jpg,00098931230fa_sunaajpqmulidejvjsr.jpg,00841940307fa.jpg,sunaisiwfgppimtnmxl.jpg,00098931230fa.jpg,sunaajpqmulidejvjsr.jpg,,,<,Place,,,,,1,,,,,,,x
258,7,Presentation,5,00986960627fa_sunbgzjryivyczuvkvm.jpg,00280940422fb_sunabohxbskznglnrhv.jpg,00986960627fa.jpg,sunbgzjryivyczuvkvm.jpg,00280940422fb.jpg,sunabohxbskznglnrhv.jpg,,,>,Face,,,,,1,,,,,,,x
259,7,Presentation,5,00775941205fa_sunafvwfsmqkjrutjta.jpg,00810941205fa_sunahctntqrunhdxhtb.jpg,00775941205fa.jpg,sunafvwfsmqkjrutjta.jpg,00810941205fa.jpg,sunahctntqrunhdxhtb.jpg,,,<,Place,,,,,1,,,,,,,o
260,7,Memory,5,,,,,,,sunbgzjryivyczuvkvm.jpg,,,,,,,,,,,,,,,
261,7,Memory,5,,,,,,,sunaibnpvhkdpdnzcnz.jpg,,,,,,,,,,,,,,,
262,7,Memory,5,,,,,,,sunadfndyrtqqiasoig.jpg,,,,,,,,,,,,,,,
263,7,Memory,5,,,,,,,00089931230fa.jpg,,,,,,,,,,,,,,,
264,7,Memory,5,,,,,,,00834940307fa.jpg,,,,,,,,,,,,,,,
265,7,Memory,5,,,,,,,00700941121fa.jpg,,,,,,,,,,,,,,,
266,7,Memory,5,,,,,,,sunadsgmtznewzyasnk.jpg,,,,,,,,,,,,,,,
267,7,Memory,5,,,,,,,00081941031fa.jpg,,,,,,,,,,,,,,,
268,7,Memory,5,,,,,,,sunahqrxievfeusiqlt.jpg,,,,,,,,,,,,,,,
269,7,Memory,5,,,,,,,00609940928fa.jpg,,,,,,,,,,,,,,,
270,7,Memory,5,,,,,,,sunayaepykrqvenaqqy.jpg,,,,,,,,,,,,,,,
271,7,Memory,5,,,,,,,01005960627fa.jpg,,,,,,,,,,,,,,,
272,7,Memory,5,,,,,,,sunbbegcweqnetpdlrh.jpg,,,,,,,,,,,,,,,
273,7,Memory,5,,,,,,,sunaauhozyxzeeqstxi.jpg,,,,,,,,,,,,,,,
274,7,Memory,5,,,,,,,sunaagcpoejbuzyvddd.jpg,,,,,,,,,,,,,,,
275,7,Memory,5,,,,,,,00822940307fa.jpg,,,,,,,,,,,,,,,
276,7,Memory,5,,,,,,,00986960627fa.jpg,,,,,,,,,,,,,,,
277,7,Memory,5,,,,,,,00648941031fa.jpg,,,,,,,,,,,,,,,
278,7,Memory,5,,,,,,,sunahctntqrunhdxhtb.jpg,,,,,,,,,,,,,,,
279,7,Memory,5,,,,,,,00799941205fa.jpg,,,,,,,,,,,,,,,
280,7,Memory,5,,,,,,,00153931230fa.jpg,,,,,,,,,,,,,,,
281,7,Memory,5,,,,,,,sunaefgzwiramypjvtd.jpg,,,,,,,,,,,,,,,
282,7,Memory,5,,,,,,,sunajjxttslobudoqbv.jpg,,,,,,,,,,,,,,,
283,7,Memory,5,,,,,,,00775941205fa.jpg,,,,,,,,,,,,,,,
284,7,Memory,5,,,,,,,00631940928fa.jpg,,,,,,,,,,,,,,,
285,7,Memory,5,,,,,,,sunbwyuesflwdpqtgoy.jpg,,,,,,,,,,,,,,,
286,7,Memory,5,,,,,,,sunabbwggenhfbftyvi.jpg,,,,,,,,,,,,,,,
287,7,Memory,5,,,,,,,00868960307fa.jpg,,,,,,,,,,,,,,,
288,7,Memory,5,,,,,,,sunagutjvdvnhxejerz.jpg,,,,,,,,,,,,,,,
289,7,Memory,5,,,,,,,sunacycdoztxoluxjyk.jpg,,,,,,,,,,,,,,,
290,7,Memory,5,,,,,,,sunagmwxxwymwojbvgi.jpg,,,,,,,,,,,,,,,
291,7,Memory,5,,,,,,,00810941205fa.jpg,,,,,,,,,,,,,,,
292,7,Memory,5,,,,,,,00963960627fa.jpg,,,,,,,,,,,,,,,
293,7,Memory,5,,,,,,,sunafvwfsmqkjrutjta.jpg,,,,,,,,,,,,,,,
294,7,Memory,5,,,,,,,sunaaftlyfudyzuhqzf.jpg,,,,,,,,,,,,,,,
295,7,Memory,5,,,,,,,00218940128fa.jpg,,,,,,,,,,,,,,,
296,7,Memory,5,,,,,,,00787941205fa.jpg,,,,,,,,,,,,,,,
297,7,Memory,5,,,,,,,sunadbdqzigzwipuipr.jpg,,,,,,,,,,,,,,,
298,7,Memory,5,,,,,,,00725941201fa.jpg,,,,,,,,,,,,,,,
299,7,Memory,5,,,,,,,00971960627fa.jpg,,,,,,,,,,,,,,,
300,7,Presentation,6,00065931230fb_sunaaemixhfquhnxxlm.jpg,00999960627fa_sunbvbrvgbpanfrawft.jpg,00065931230fb.jpg,sunaaemixhfquhnxxlm.jpg,00999960627fa.jpg,sunbvbrvgbpanfrawft.jpg,,,<,Place,,,,,1,,,,,,,x
301,7,Presentation,6,00779941205fa_sunagdzlvkqtpnfxfcg.jpg,00993960627fa_sunbprywzqxjcezkbch.jpg,00779941205fa.jpg,sunagdzlvkqtpnfxfcg.jpg,00993960627fa.jpg,sunbprywzqxjcezkbch.jpg,,,<,Face,,,,,1,,,,,,,x
302,7,Presentation,6,00096931230fa_sunaaiqiqcggrskoqgy.jpg,00540940519fa_sunacdnquypmsshhsbk.jpg,00096931230fa.jpg,sunaaiqiqcggrskoqgy.jpg,00540940519fa.jpg,sunacdnquypmsshhsbk.jpg,,,>,Place,,,,,1,,,,,,,o
303,7,Presentation,6,00071941031fa_sunaaexqbtdswxrqjvz.jpg,00952960627fa_sunathzzbcwjykldrem.jpg,00071941031fa.jpg,sunaaexqbtdswxrqjvz.jpg,00952960627fa.jpg,sunathzzbcwjykldrem.jpg,,,<,Place,,,,,1,,,,,,,o
304,7,Presentation,6,00771941205fa_sunafowswglhxcsufpo.jpg,00239940128fa_sunabctlikybqabezjv.jpg,00771941205fa.jpg,sunafowswglhxcsufpo.jpg,00239940128fa.jpg,sunabctlikybqabezjv.jpg,,,<,Face,,,,,1,,,,,,,o
305,7,Presentation,6,00989960627fa_sunbondbduabvijnmch.jpg,00140931230fb_sunaapllqyqlykszopd.jpg,00989960627fa.jpg,sunbondbduabvijnmch.jpg,00140931230fb.jpg,sunaapllqyqlykszopd.jpg,,,>,Face,,,,,1,,,,,,,o
306,7,Presentation,6,00662941121fa_sunadkazmlajmohnwfl.jpg,00869940307fa_sunajoveqhiprwqgoco.jpg,00662941121fa.jpg,sunadkazmlajmohnwfl.jpg,00869940307fa.jpg,sunajoveqhiprwqgoco.jpg,,,>,Place,,,,,1,,,,,,,x
307,7,Presentation,6,00481940519fa_sunabxsuqbleluwczoy.jpg,00977960627fa_sunbbxkanhzjgbwyxqs.jpg,00481940519fa.jpg,sunabxsuqbleluwczoy.jpg,00977960627fa.jpg,sunbbxkanhzjgbwyxqs.jpg,,,<,Face,,,,,1,,,,,,,x
308,7,Presentation,6,00895960530fa_sunamczizlzavhzhpay.jpg,00768941205fa_sunafkmnlytenlsywia.jpg,00895960530fa.jpg,sunamczizlzavhzhpay.jpg,00768941205fa.jpg,sunafkmnlytenlsywia.jpg,,,>,Face,,,,,1,,,,,,,o
309,7,Presentation,6,00636941031fa_sunaddtdkycxbqlpfqa.jpg,00479940519fa_sunabxsbfwjccqxxzxq.jpg,00636941031fa.jpg,sunaddtdkycxbqlpfqa.jpg,00479940519fa.jpg,sunabxsbfwjccqxxzxq.jpg,,,>,Place,,,,,1,,,,,,,x
310,7,Memory,6,,,,,,,sunamczizlzavhzhpay.jpg,,,,,,,,,,,,,,,
311,7,Memory,6,,,,,,,00952960627fa.jpg,,,,,,,,,,,,,,,
312,7,Memory,6,,,,,,,sunathzzbcwjykldrem.jpg,,,,,,,,,,,,,,,
313,7,Memory,6,,,,,,,00968960627fa.jpg,,,,,,,,,,,,,,,
314,7,Memory,6,,,,,,,sunaahedjlmtqekgyvj.jpg,,,,,,,,,,,,,,,
315,7,Memory,6,,,,,,,00071941031fa.jpg,,,,,,,,,,,,,,,
316,7,Memory,6,,,,,,,sunaedtgwjvvziytspa.jpg,,,,,,,,,,,,,,,
317,7,Memory,6,,,,,,,00062931230fb.jpg,,,,,,,,,,,,,,,
318,7,Memory,6,,,,,,,sunadkazmlajmohnwfl.jpg,,,,,,,,,,,,,,,
319,7,Memory,6,,,,,,,00723941201fa.jpg,,,,,,,,,,,,,,,
320,7,Memory,6,,,,,,,00479940519fa.jpg,,,,,,,,,,,,,,,
321,7,Memory,6,,,,,,,00895960530fa.jpg,,,,,,,,,,,,,,,
322,7,Memory,6,,,,,,,00993960627fa.jpg,,,,,,,,,,,,,,,
323,7,Memory,6,,,,,,,sunabxsbfwjccqxxzxq.jpg,,,,,,,,,,,,,,,
324,7,Memory,6,,,,,,,sunagmhildamktmqjss.jpg,,,,,,,,,,,,,,,
325,7,Memory,6,,,,,,,00786941205fa.jpg,,,,,,,,,,,,,,,
326,7,Memory,6,,,,,,,sundbixjudsgeuuehrn.jpg,,,,,,,,,,,,,,,
327,7,Memory,6,,,,,,,sunaaehaikpckyjsety.jpg,,,,,,,,,,,,,,,
328,7,Memory,6,,,,,,,00142931230fb.jpg,,,,,,,,,,,,,,,
329,7,Memory,6,,,,,,,sundahdxwmcdluscvot.jpg,,,,,,,,,,,,,,,
330,7,Memory,6,,,,,,,sunbprywzqxjcezkbch.jpg,,,,,,,,,,,,,,,
331,7,Memory,6,,,,,,,sunbondbduabvijnmch.jpg,,,,,,,,,,,,,,,
332,7,Memory,6,,,,,,,01207940128fa.jpg,,,,,,,,,,,,,,,
333,7,Memory,6,,,,,,,00119931230fb.jpg,,,,,,,,,,,,,,,
334,7,Memory,6,,,,,,,00060931230fa.jpg,,,,,,,,,,,,,,,
335,7,Memory,6,,,,,,,00989960627fa.jpg,,,,,,,,,,,,,,,
336,7,Memory,6,,,,,,,00768941205fa.jpg,,,,,,,,,,,,,,,
337,7,Memory,6,,,,,,,00999960627fa.jpg,,,,,,,,,,,,,,,
338,7,Memory,6,,,,,,,sunbagfpovqwbuexqdn.jpg,,,,,,,,,,,,,,,
339,7,Memory,6,,,,,,,sunabxsuqbleluwczoy.jpg,,,,,,,,,,,,,,,
340,7,Memory,6,,,,,,,sunaaexqbtdswxrqjvz.jpg,,,,,,,,,,,,,,,
341,7,Memory,6,,,,,,,sunaakvmbftkrgqhjun.jpg,,,,,,,,,,,,,,,
342,7,Memory,6,,,,,,,sunafkmnlytenlsywia.jpg,,,,,,,,,,,,,,,
343,7,Memory,6,,,,,,,sunbvbrvgbpanfrawft.jpg,,,,,,,,,,,,,,,
344,7,Memory,6,,,,,,,01011960627fa.jpg,,,,,,,,,,,,,,,
345,7,Memory,6,,,,,,,00662941121fa.jpg,,,,,,,,,,,,,,,
346,7,Memory,6,,,,,,,00090931230fa.jpg,,,,,,,,,,,,,,,
347,7,Memory,6,,,,,,,sunaapxkpvrhpjplsok.jpg,,,,,,,,,,,,,,,
348,7,Memory,6,,,,,,,00481940519fa.jpg,,,,,,,,,,,,,,,
349,7,Memory,6,,,,,,,sunaaelotvjgibjtjhs.jpg,,,,,,,,,,,,,,,
350,7,Presentation,7,00926960627Fa_sunapqwoeotxshkukbh.jpg,00812941205fa_sunahgtbwgsmtqeodwh.jpg,00926960627Fa.jpg,sunapqwoeotxshkukbh.jpg,00812941205fa.jpg,sunahgtbwgsmtqeodwh.jpg,,,>,Face,,,,,1,,,,,,,x
351,7,Presentation,7,00839940307fa_sunaipyohrqlwngaqif.jpg,00829940307fa_sunahwgbqkqcrwprgvh.jpg,00839940307fa.jpg,sunaipyohrqlwngaqif.jpg,00829940307fa.jpg,sunahwgbqkqcrwprgvh.jpg,,,>,Face,,,,,1,,,,,,,o
352,7,Presentation,7,00809960620fa_sunahbvlpavurqoxdeq.jpg,00149931230fa_sunaauglwmctnkxyird.jpg,00809960620fa.jpg,sunahbvlpavurqoxdeq.jpg,00149931230fa.jpg,sunaauglwmctnkxyird.jpg,,,<,Face,,,,,1,,,,,,,x
353,7,Presentation,7,00675941121fa_sunadoxcchtmsxewsau.jpg,00950960627fa_sunasrjlmglmjzbmqxb.jpg,00675941121fa.jpg,sunadoxcchtmsxewsau.jpg,00950960627fa.jpg,sunasrjlmglmjzbmqxb.jpg,,,>,Place,,,,,0,,,,,,,x
354,7,Presentation,7,00082931230fa_sunaafvitpexrpvumsa.jpg,00884960530fa_sunakodkcslgqhqlgwl.jpg,00082931230fa.jpg,sunaafvitpexrpvumsa.jpg,00884960530fa.jpg,sunakodkcslgqhqlgwl.jpg,,,<,Place,,,,,1,,,,,,,x
355,7,Presentation,7,00790941205fa_sunagpjzsbltchlwvou.jpg,00929960627fa_sunaprnrbmgkomdbchr.jpg,00790941205fa.jpg,sunagpjzsbltchlwvou.jpg,00929960627fa.jpg,sunaprnrbmgkomdbchr.jpg,,,>,Place,,,,,1,,,,,,,o
356,7,Presentation,7,00306940422fa_sunabueyoajufbkraki.jpg,00589940928fa_sunacwggadqsfpovdjv.jpg,00306940422fa.jpg,sunabueyoajufbkraki.jpg,00589940928fa.jpg,sunacwggadqsfpovdjv.jpg,,,<,Place,,,,,0,,,,,,,o
357,7,Presentation,7,00705941205fa_sunadtlxenqqxsyjvix.jpg,00292940422fb_sunabrjdpmoedcdjbpo.jpg,00705941205fa.jpg,sunadtlxenqqxsyjvix.jpg,00292940422fb.jpg,sunabrjdpmoedcdjbpo.jpg,,,>,Face,,,,,0,,,,,,,o
358,7,Presentation,7,00670941121fa_sunadochqcucscehsgk.jpg,00185940422fb_sunaawqdbpihmlbwyyn.jpg,00670941121fa.jpg,sunadochqcucscehsgk.jpg,00185940422fb.jpg,sunaawqdbpihmlbwyyn.jpg,,,<,Place,,,,,1,,,,,,,x
359,7,Presentation,7,00871940307_sunajrujcsdxmfbssmc.jpg,00316940422fa_sunabxmguapjekttvwm.jpg,00871940307.jpg,sunajrujcsdxmfbssmc.jpg,00316940422fa.jpg,sunabxmguapjekttvwm.jpg,,,<,Face,,,,,1,,,,,,,x
360,7,Memory,7,,,,,,,00829940307fa.jpg,,,,,,,,,,,,,,,
361,7,Memory,7,,,,,,,sunahwgbqkqcrwprgvh.jpg,,,,,,,,,,,,,,,
362,7,Memory,7,,,,,,,sunakodkcslgqhqlgwl.jpg,,,,,,,,,,,,,,,
363,7,Memory,7,,,,,,,00885960530fa.jpg,,,,,,,,,,,,,,,
364,7,Memory,7,,,,,,,00069931230fb.jpg,,,,,,,,,,,,,,,
365,7,Memory,7,,,,,,,00149931230fa.jpg,,,,,,,,,,,,,,,
366,7,Memory,7,,,,,,,00133931230fa.jpg,,,,,,,,,,,,,,,
367,7,Memory,7,,,,,,,sunaauglwmctnkxyird.jpg,,,,,,,,,,,,,,,
368,7,Memory,7,,,,,,,sunamlotskmmsjeogby.jpg,,,,,,,,,,,,,,,
369,7,Memory,7,,,,,,,sunagpjzsbltchlwvou.jpg,,,,,,,,,,,,,,,
370,7,Memory,7,,,,,,,00884960530fa.jpg,,,,,,,,,,,,,,,
371,7,Memory,7,,,,,,,sunaetydippjxikifsb.jpg,,,,,,,,,,,,,,,
372,7,Memory,7,,,,,,,sunadikxpvqeabxrvvc.jpg,,,,,,,,,,,,,,,
373,7,Memory,7,,,,,,,00589940928fa.jpg,,,,,,,,,,,,,,,
374,7,Memory,7,,,,,,,00705941205fa.jpg,,,,,,,,,,,,,,,
375,7,Memory,7,,,,,,,sunasrjlmglmjzbmqxb.jpg,,,,,,,,,,,,,,,
376,7,Memory,7,,,,,,,sunafijbgncijwykrnl.jpg,,,,,,,,,,,,,,,
377,7,Memory,7,,,,,,,00950960627fa.jpg,,,,,,,,,,,,,,,
378,7,Memory,7,,,,,,,00900960530fa.jpg,,,,,,,,,,,,,,,
379,7,Memory,7,,,,,,,sunajawzbrlrwafowen.jpg,,,,,,,,,,,,,,,
380,7,Memory,7,,,,,,,00650941031fa.jpg,,,,,,,,,,,,,,,
381,7,Memory,7,,,,,,,sunaafvitpexrpvumsa.jpg,,,,,,,,,,,,,,,
382,7,Memory,7,,,,,,,00746941201fa.jpg,,,,,,,,,,,,,,,
383,7,Memory,7,,,,,,,sunacwggadqsfpovdjv.jpg,,,,,,,,,,,,,,,
384,7,Memory,7,,,,,,,00766960620fa.jpg,,,,,,,,,,,,,,,
385,7,Memory,7,,,,,,,00777941205fa.jpg,,,,,,,,,,,,,,,
386,7,Memory,7,,,,,,,00864940307fa.jpg,,,,,,,,,,,,,,,
387,7,Memory,7,,,,,,,sunahbvlpavurqoxdeq.jpg,,,,,,,,,,,,,,,
388,7,Memory,7,,,,,,,sunaanlwnpqndclffxt.jpg,,,,,,,,,,,,,,,
389,7,Memory,7,,,,,,,sunaaeowapdkwzqpgqr.jpg,,,,,,,,,,,,,,,
390,7,Memory,7,,,,,,,00082931230fa.jpg,,,,,,,,,,,,,,,
391,7,Memory,7,,,,,,,00839940307fa.jpg,,,,,,,,,,,,,,,
392,7,Memory,7,,,,,,,sunakwlvxjpddialozd.jpg,,,,,,,,,,,,,,,
393,7,Memory,7,,,,,,,00809960620fa.jpg,,,,,,,,,,,,,,,
394,7,Memory,7,,,,,,,00770941201fa.jpg,,,,,,,,,,,,,,,
395,7,Memory,7,,,,,,,sunadtlxenqqxsyjvix.jpg,,,,,,,,,,,,,,,
396,7,Memory,7,,,,,,,sunaflojskatpeqyzqp.jpg,,,,,,,,,,,,,,,
397,7,Memory,7,,,,,,,sunagcinxkccdtrjmlv.jpg,,,,,,,,,,,,,,,
398,7,Memory,7,,,,,,,sunaipyohrqlwngaqif.jpg,,,,,,,,,,,,,,,
399,7,Memory,7,,,,,,,00790941205fa.jpg,,,,,,,,,,,,,,,
