,Subject,Trial Type,Run,Cued Composite,Uncued Composite,Cued Face,Cued Place,Uncued Face,Uncued Place,Memory Image,Category,Cued Side,Cued Category,Attention Reaction Time (s),Familiarity Reaction Time (s),Familiarity Rating,Attention Level,Cue Validity,Post Invalid Cue,Pre Invalid Cue,Attention Button,Rating History,Stimulus Onset,Stimulus End,Attention Probe
60,7,Memory,1,,,,,,,00112931230fa.jpg,,,,,2.161,2.0,,,,,,,1551371143.458728,1551371146.822003,
61,7,Memory,1,,,,,,,sunaemcowdozyphwknd.jpg,,,,,1.778,4.0,,,,,,,1551371148.409871,1551371151.411175,
62,7,Memory,1,,,,,,,00598941031fa.jpg,,,,,3.001,,,,,,,,1551371152.728421,1551371156.362432,
63,7,Memory,1,,,,,,,sunahawfngukizslzsd.jpg,,,,,1.275,1.0,,,,,,,1551371157.696378,1551371160.592516,
64,7,Memory,1,,,,,,,00063931230fa.jpg,,,,,2.742,2.0,,,,,,,1551371162.181008,1551371165.48273,
65,7,Memory,1,,,,,,,00208940128fa.jpg,,,,,1.991,2.0,,,,,,,1551371166.799872,1551371170.184105,
66,7,Memory,1,,,,,,,sunacxtcahkymosigud.jpg,,,,,1.843,2.0,,,,,,,1551371171.467278,1551371174.413294,
67,7,Memory,1,,,,,,,00543940519fa.jpg,,,,,1.591,4.0,,,,,,,1551371175.719484,1551371178.381836,
68,7,Memory,1,,,,,,,sunabyvpwkgsjtijdwj.jpg,,,,,1.376,3.0,,,,,,,1551371179.703966,1551371182.587702,
69,7,Memory,1,,,,,,,00745941205fa.jpg,,,,,1.493,3.0,,,,,,,1551371183.921079,1551371186.772521,
70,7,Memory,1,,,,,,,sunbmaiocftdtvnzgap.jpg,,,,,2.092,4.0,,,,,,,1551371188.090044,1551371190.990192,
71,7,Memory,1,,,,,,,00483940519fa.jpg,,,,,1.375,3.0,,,,,,,1551371192.27474,1551371195.281141,
72,7,Memory,1,,,,,,,00797960620fa.jpg,,,,,1.693,2.0,,,,,,,1551371196.609472,1551371199.587761,
73,7,Memory,1,,,,,,,sunadfktsqjthoglcsm.jpg,,,,,1.325,1.0,,,,,,,1551371200.877097,1551371203.822612,
74,7,Memory,1,,,,,,,sunaeouogqolxvggaoq.jpg,,,,,1.025,1.0,,,,,,,1551371205.112106,1551371208.008412,
75,7,Memory,1,,,,,,,sunacepzfrmtkiqonpy.jpg,,,,,1.604,1.0,,,,,,,1551371209.330285,1551371211.947365,
76,7,Memory,1,,,,,,,00070940307fa.jpg,,,,,0.942,3.0,,,,,,,1551371213.264519,1551371216.398805,
77,7,Memory,1,,,,,,,sunagufzbeteqdjxais.jpg,,,,,1.61,1.0,,,,,,,1551371217.732803,1551371220.653234,
78,7,Memory,1,,,,,,,00313940422fa.jpg,,,,,2.026,3.0,,,,,,,1551371222.067974,1551371224.768035,
79,7,Memory,1,,,,,,,00944960627fa.jpg,,,,,2.09,2.0,,,,,,,1551371226.102383,1551371228.948012,
80,7,Memory,1,,,,,,,sunaazzyhbvqjpmazjq.jpg,,,,,2.208,1.0,,,,,,,1551371230.353423,1551371233.307438,
81,7,Memory,1,,,,,,,00741941201fa.jpg,,,,,1.309,2.0,,,,,,,1551371234.638589,1551371237.389248,
82,7,Memory,1,,,,,,,sunasbbntuiheekqyaq.jpg,,,,,1.11,1.0,,,,,,,1551371238.922056,1551371241.552465,
83,7,Memory,1,,,,,,,00807941205fa.jpg,,,,,2.86,2.0,,,,,,,1551371242.957467,1551371246.20479,
84,7,Memory,1,,,,,,,00198940128fb.jpg,,,,,1.324,2.0,,,,,,,1551371247.526392,1551371250.705671,
85,7,Memory,1,,,,,,,sunapqwnqzxlsfvgsjm.jpg,,,,,1.359,1.0,,,,,,,1551371252.194708,1551371254.944365,
86,7,Memory,1,,,,,,,00966960627fa.jpg,,,,,2.192,2.0,,,,,,,1551371256.295945,1551371259.341015,
87,7,Memory,1,,,,,,,sunaakjaacuzulqckgl.jpg,,,,,2.263,3.0,,,,,,,1551371261.329438,1551371264.28415,
88,7,Memory,1,,,,,,,00988960627fa.jpg,,,,,1.24,2.0,,,,,,,1551371265.698493,1551371268.685626,
89,7,Memory,1,,,,,,,sunabwjvmoaddlyxfjr.jpg,,,,,1.976,4.0,,,,,,,1551371270.050666,1551371273.083919,
90,7,Memory,1,,,,,,,sunaaeplwsfslcbtojr.jpg,,,,,1.542,1.0,,,,,,,1551371274.401099,1551371277.330567,
91,7,Memory,1,,,,,,,00925960627fa.jpg,,,,,1.676,3.0,,,,,,,1551371278.618389,1551371281.520461,
92,7,Memory,1,,,,,,,sunapileznnbbmrwoei.jpg,,,,,1.976,1.0,,,,,,,1551371282.836501,1551371285.709396,
93,7,Memory,1,,,,,,,00694941121fa.jpg,,,,,0.874,1.0,,,,,,,1551371287.02243,1551371289.740128,
94,7,Memory,1,,,,,,,sunaazezcsunmhttzxz.jpg,,,,,1.258,2.0,,,,,,,1551371291.056934,1551371293.874125,
95,7,Memory,1,,,,,,,00915960620fa.jpg,,,,,1.575,3.0,,,,,,,1551371295.159266,1551371298.092154,
96,7,Memory,1,,,,,,,sunaygrtwrwfezqjizr.jpg,,,,,1.459,2.0,,,,,,,1551371299.441638,1551371302.438759,
97,7,Memory,1,,,,,,,sunaaelyvurpntclgau.jpg,,,,,0.961,1.0,,,,,,,1551371303.77676,1551371306.774098,
98,7,Memory,1,,,,,,,00638941031fa.jpg,,,,,1.643,1.0,,,,,,,1551371308.095043,1551371311.145928,
99,7,Memory,1,,,,,,,sunadrmfzmstgdjdcod.jpg,,,,,2.444,1.0,,,,,,,1551371312.463076,1551371315.313119,
