,Subject,Trial Type,Run,Cued Composite,Uncued Composite,Cued Face,Cued Place,Uncued Face,Uncued Place,Memory Image,Category,Cued Side,Cued Category,Attention Reaction Time (s),Familiarity Reaction Time (s),Familiarity Rating,Attention Level,Cue Validity,Post Invalid Cue,Pre Invalid Cue,Attention Button,Rating History,Stimulus Onset,Stimulus End,Attention Probe
360,7,Memory,7,,,,,,,00829940307fa.jpg,,,,,1.262,1.0,,,,,,,1551373289.874891,1551373293.892444,
361,7,Memory,7,,,,,,,sunahwgbqkqcrwprgvh.jpg,,,,,1.746,2.0,,,,,,,1551373295.242354,1551373299.210507,
362,7,Memory,7,,,,,,,sunakodkcslgqhqlgwl.jpg,,,,,1.145,1.0,,,,,,,1551373300.51193,1551373304.478938,
363,7,Memory,7,,,,,,,00885960530fa.jpg,,,,,0.776,1.0,,,,,,,1551373305.796246,1551373309.76499,
364,7,Memory,7,,,,,,,00069931230fb.jpg,,,,,1.18,1.0,,,,,,,1551373311.065523,1551373315.031648,
365,7,Memory,7,,,,,,,00149931230fa.jpg,,,,,0.87,1.0,,,,,,,1551373316.334418,1551373320.266948,
366,7,Memory,7,,,,,,,00133931230fa.jpg,,,,,1.245,1.0,,,,,,,1551373321.552821,1551373325.519387,
367,7,Memory,7,,,,,,,sunaauglwmctnkxyird.jpg,,,,,0.778,1.0,,,,,,,1551373326.837307,1551373330.804683,
368,7,Memory,7,,,,,,,sunamlotskmmsjeogby.jpg,,,,,0.646,1.0,,,,,,,1551373332.106256,1551373336.0727,
369,7,Memory,7,,,,,,,sunagpjzsbltchlwvou.jpg,,,,,1.646,3.0,,,,,,,1551373337.374575,1551373341.341465,
370,7,Memory,7,,,,,,,00884960530fa.jpg,,,,,0.912,1.0,,,,,,,1551373342.641762,1551373346.609462,
371,7,Memory,7,,,,,,,sunaetydippjxikifsb.jpg,,,,,0.943,1.0,,,,,,,1551373347.910588,1551373351.860757,
372,7,Memory,7,,,,,,,sunadikxpvqeabxrvvc.jpg,,,,,1.144,1.0,,,,,,,1551373353.162439,1551373357.129236,
373,7,Memory,7,,,,,,,00589940928fa.jpg,,,,,1.379,1.0,,,,,,,1551373358.430577,1551373362.397806,
374,7,Memory,7,,,,,,,00705941205fa.jpg,,,,,1.311,3.0,,,,,,,1551373363.698274,1551373367.666677,
375,7,Memory,7,,,,,,,sunasrjlmglmjzbmqxb.jpg,,,,,1.211,1.0,,,,,,,1551373368.983729,1551373372.951747,
376,7,Memory,7,,,,,,,sunafijbgncijwykrnl.jpg,,,,,1.71,3.0,,,,,,,1551373374.26813,1551373378.236895,
377,7,Memory,7,,,,,,,00950960627fa.jpg,,,,,0.478,1.0,,,,,,,1551373379.520257,1551373383.488321,
378,7,Memory,7,,,,,,,00900960530fa.jpg,,,,,0.711,1.0,,,,,,,1551373384.804609,1551373388.773689,
379,7,Memory,7,,,,,,,sunajawzbrlrwafowen.jpg,,,,,1.311,3.0,,,,,,,1551373390.055933,1551373394.025621,
380,7,Memory,7,,,,,,,00650941031fa.jpg,,,,,1.146,3.0,,,,,,,1551373395.325111,1551373399.294124,
381,7,Memory,7,,,,,,,sunaafvitpexrpvumsa.jpg,,,,,1.378,1.0,,,,,,,1551373400.66136,1551373404.628563,
382,7,Memory,7,,,,,,,00746941201fa.jpg,,,,,1.578,3.0,,,,,,,1551373405.946364,1551373409.895942,
383,7,Memory,7,,,,,,,sunacwggadqsfpovdjv.jpg,,,,,0.912,1.0,,,,,,,1551373411.198751,1551373415.165128,
384,7,Memory,7,,,,,,,00766960620fa.jpg,,,,,0.645,1.0,,,,,,,1551373416.483292,1551373420.433729,
385,7,Memory,7,,,,,,,00777941205fa.jpg,,,,,0.81,1.0,,,,,,,1551373421.734317,1551373425.701904,
386,7,Memory,7,,,,,,,00864940307fa.jpg,,,,,0.944,1.0,,,,,,,1551373427.002635,1551373430.954022,
387,7,Memory,7,,,,,,,sunahbvlpavurqoxdeq.jpg,,,,,1.112,1.0,,,,,,,1551373432.271368,1551373436.238765,
388,7,Memory,7,,,,,,,sunaanlwnpqndclffxt.jpg,,,,,0.676,1.0,,,,,,,1551373437.557264,1551373441.506858,
389,7,Memory,7,,,,,,,sunaaeowapdkwzqpgqr.jpg,,,,,0.912,1.0,,,,,,,1551373442.824623,1551373446.792152,
390,7,Memory,7,,,,,,,00082931230fa.jpg,,,,,0.845,1.0,,,,,,,1551373448.109902,1551373452.060563,
391,7,Memory,7,,,,,,,00839940307fa.jpg,,,,,0.744,1.0,,,,,,,1551373453.344337,1551373457.31161,
392,7,Memory,7,,,,,,,sunakwlvxjpddialozd.jpg,,,,,0.779,1.0,,,,,,,1551373458.612645,1551373462.564007,
393,7,Memory,7,,,,,,,00809960620fa.jpg,,,,,0.779,1.0,,,,,,,1551373463.863897,1551373467.832134,
394,7,Memory,7,,,,,,,00770941201fa.jpg,,,,,0.912,1.0,,,,,,,1551373469.115954,1551373473.08379,
395,7,Memory,7,,,,,,,sunadtlxenqqxsyjvix.jpg,,,,,0.677,1.0,,,,,,,1551373474.384337,1551373478.352823,
396,7,Memory,7,,,,,,,sunaflojskatpeqyzqp.jpg,,,,,0.913,1.0,,,,,,,1551373479.670427,1551373483.637325,
397,7,Memory,7,,,,,,,sunagcinxkccdtrjmlv.jpg,,,,,0.478,1.0,,,,,,,1551373484.938019,1551373488.905563,
398,7,Memory,7,,,,,,,sunaipyohrqlwngaqif.jpg,,,,,1.48,2.0,,,,,,,1551373490.222364,1551373494.190583,
399,7,Memory,7,,,,,,,00790941205fa.jpg,,,,,0.545,1.0,,,,,,,1551373495.49171,1551373499.45962,
