,Subject,Trial Type,Run,Cued Composite,Uncued Composite,Cued Face,Cued Place,Uncued Face,Uncued Place,Memory Image,Category,Cued Side,Cued Category,Attention Reaction Time (s),Familiarity Reaction Time (s),Familiarity Rating,Attention Level,Cue Validity,Post Invalid Cue,Pre Invalid Cue,Attention Button,Rating History,Stimulus Onset,Stimulus End,Attention Probe
110,34,Memory,2,,,,,,,sunaletopenvvozhpxc.jpg,,,,,0.954,1.0,,,,,,,1540387784.657033,1540387787.058203,
111,34,Memory,2,,,,,,,00746941201fa.jpg,,,,,0.787,1.0,,,,,,,1540387788.576096,1540387790.960682,
112,34,Memory,2,,,,,,,00763941205fa.jpg,,,,,1.255,2.0,,,,,,,1540387792.361123,1540387794.810759,
113,34,Memory,2,,,,,,,sunabllobxadqcyttej.jpg,,,,,1.051,2.0,,,,,,,1540387796.278136,1540387798.662667,
114,34,Memory,2,,,,,,,00557940519fa.jpg,,,,,2.286,1.0,,,,,,,1540387800.178375,1540387802.630997,
115,34,Memory,2,,,,,,,00939960627fa.jpg,,,,,1.085,1.0,,,,,,,1540387804.097989,1540387806.515382,
116,34,Memory,2,,,,,,,sunaetydippjxikifsb.jpg,,,,,1.553,3.0,,,,,,,1540387808.116258,1540387810.482319,
117,34,Memory,2,,,,,,,00778941205fa.jpg,,,,,1.104,4.0,,,,,,,1540387812.018175,1540387814.634294,
118,34,Memory,2,,,,,,,00812941205fa.jpg,,,,,1.084,2.0,,,,,,,1540387816.119504,1540387818.585719,
119,34,Memory,2,,,,,,,00071940128fa.jpg,,,,,1.137,3.0,,,,,,,1540387820.035319,1540387822.33731,
120,34,Memory,2,,,,,,,sunahrltmuwbiehihpe.jpg,,,,,1.502,4.0,,,,,,,1540387823.754797,1540387826.221449,
121,34,Memory,2,,,,,,,sunarceibpcyacbmfga.jpg,,,,,1.189,4.0,,,,,,,1540387827.672084,1540387830.089551,
122,34,Memory,2,,,,,,,00942960627fa.jpg,,,,,0.717,2.0,,,,,,,1540387831.590542,1540387834.091032,
123,34,Memory,2,,,,,,,00772941201fa.jpg,,,,,0.787,1.0,,,,,,,1540387835.623957,1540387838.096589,
124,34,Memory,2,,,,,,,sunaqbmgkgqucajzrkp.jpg,,,,,0.637,1.0,,,,,,,1540387839.60893,1540387841.994107,
125,34,Memory,2,,,,,,,sunahgtbwgsmtqeodwh.jpg,,,,,1.869,3.0,,,,,,,1540387843.427252,1540387845.995243,
126,34,Memory,2,,,,,,,00270940422fb.jpg,,,,,1.685,3.0,,,,,,,1540387847.495498,1540387849.945052,
127,34,Memory,2,,,,,,,00774941201fa.jpg,,,,,1.368,2.0,,,,,,,1540387851.447709,1540387853.913268,
128,34,Memory,2,,,,,,,sunarfdklgdnjgeqfjg.jpg,,,,,1.171,1.0,,,,,,,1540387855.330575,1540387857.665691,
129,34,Memory,2,,,,,,,00938960627fa.jpg,,,,,0.737,4.0,,,,,,,1540387859.149699,1540387861.700144,
130,34,Memory,2,,,,,,,00210940128fb.jpg,,,,,1.57,3.0,,,,,,,1540387863.200317,1540387865.61696,
131,34,Memory,2,,,,,,,sunafvtpfczkzopbgue.jpg,,,,,0.934,2.0,,,,,,,1540387867.051652,1540387869.452213,
132,34,Memory,2,,,,,,,sunafpfpiiujzoesnqg.jpg,,,,,0.871,2.0,,,,,,,1540387870.886552,1540387873.286703,
133,34,Memory,2,,,,,,,sunachtuarilwyqnvjx.jpg,,,,,1.103,3.0,,,,,,,1540387874.736357,1540387877.072004,
134,34,Memory,2,,,,,,,sunaaexpnawiehinlpy.jpg,,,,,0.97,1.0,,,,,,,1540387878.538225,1540387880.890174,
135,34,Memory,2,,,,,,,sunaangbuylfvckqqoo.jpg,,,,,1.155,2.0,,,,,,,1540387882.290267,1540387884.941167,
136,34,Memory,2,,,,,,,sunaqyylsngywqzwfmx.jpg,,,,,0.736,1.0,,,,,,,1540387886.541375,1540387888.824564,
137,34,Memory,2,,,,,,,sunadqmjrhfjyuzyvdd.jpg,,,,,1.254,4.0,,,,,,,1540387890.225126,1540387892.67708,
138,34,Memory,2,,,,,,,sunagcthdfirrcawoic.jpg,,,,,1.234,3.0,,,,,,,1540387894.110665,1540387896.478072,
139,34,Memory,2,,,,,,,00598940928fa.jpg,,,,,1.167,1.0,,,,,,,1540387897.828324,1540387900.16226,
140,34,Memory,2,,,,,,,sunafhmnhsdurlvddpw.jpg,,,,,1.001,1.0,,,,,,,1540387901.613585,1540387903.996467,
141,34,Memory,2,,,,,,,00825940307fa.jpg,,,,,0.888,1.0,,,,,,,1540387905.547761,1540387908.047325,
142,34,Memory,2,,,,,,,00681941121fa.jpg,,,,,1.322,1.0,,,,,,,1540387909.431881,1540387911.900027,
143,34,Memory,2,,,,,,,00889960530fa.jpg,,,,,1.352,1.0,,,,,,,1540387913.333181,1540387915.901157,
144,34,Memory,2,,,,,,,sunaygrtwrwfezqjizr.jpg,,,,,1.77,2.0,,,,,,,1540387917.352047,1540387919.752258,
145,34,Memory,2,,,,,,,sunabanoxjtqxamkucc.jpg,,,,,1.02,1.0,,,,,,,1540387921.203465,1540387923.737291,
146,34,Memory,2,,,,,,,00935960627fa.jpg,,,,,0.788,2.0,,,,,,,1540387925.270542,1540387927.653857,
147,34,Memory,2,,,,,,,00966960627fa.jpg,,,,,0.971,2.0,,,,,,,1540387929.104714,1540387931.456042,
148,34,Memory,2,,,,,,,00131931230fb.jpg,,,,,1.57,3.0,,,,,,,1540387932.94001,1540387935.490242,
149,34,Memory,2,,,,,,,sunacxeheuiigkcgquf.jpg,,,,,0.852,1.0,,,,,,,1540387936.991216,1540387939.258292,
