,Subject,Trial Type,Run,Cued Composite,Uncued Composite,Cued Face,Cued Place,Uncued Face,Uncued Place,Memory Image,Category,Cued Side,Cued Category,Attention Response Time (s),Familiarity Reaction Time (s),Familiarity Rating,Attention Level,Cue Validity,Post Invalid Cue,Pre Invalid Cue,Attention Button,Rating History,Stimulus Onset,Stimulus End,Attention Probe
0,18,Presentation,0,00070940307fa_sunaaeplwsfslcbtojr.jpg,00741941201fa_sunaemcowdozyphwknd.jpg,00070940307fa.jpg,sunaaeplwsfslcbtojr.jpg,00741941201fa.jpg,sunaemcowdozyphwknd.jpg,,,>,Place,,,,,1,,,,,,,o
1,18,Presentation,0,00557940519fa_sunachtuarilwyqnvjx.jpg,00719941201fa_sunadvithllcgmfxsrn.jpg,00557940519fa.jpg,sunachtuarilwyqnvjx.jpg,00719941201fa.jpg,sunadvithllcgmfxsrn.jpg,,,>,Place,,,,,1,,,,,,,o
2,18,Presentation,0,00847940307fa_sunaivdjruhkrfywfed.jpg,00983960627fa_sunbfyvfqiimvdaxlqn.jpg,00847940307fa.jpg,sunaivdjruhkrfywfed.jpg,00983960627fa.jpg,sunbfyvfqiimvdaxlqn.jpg,,,>,Place,,,,,1,,,,,,,x
3,18,Presentation,0,00191940128fb_sunaawsdjisukbbginm.jpg,00901960530fa_sunammbnoambmhdxdwd.jpg,00191940128fb.jpg,sunaawsdjisukbbginm.jpg,00901960530fa.jpg,sunammbnoambmhdxdwd.jpg,,,>,Place,,,,,1,,,,,,,o
4,18,Presentation,0,00987960627fa_sunbloeoiozwjjsiamp.jpg,00902960530fa_sunanaacmmosxrfwmvl.jpg,00987960627fa.jpg,sunbloeoiozwjjsiamp.jpg,00902960530fa.jpg,sunanaacmmosxrfwmvl.jpg,,,>,Place,,,,,1,,,,,,,x
5,18,Presentation,0,00763941205fa_sunafhmnhsdurlvddpw.jpg,00138931230fa_sunaapfaivxqoynnwwp.jpg,00763941205fa.jpg,sunafhmnhsdurlvddpw.jpg,00138931230fa.jpg,sunaapfaivxqoynnwwp.jpg,,,>,Place,,,,,1,,,,,,,o
6,18,Presentation,0,00208940128fa_sunaazzyhbvqjpmazjq.jpg,00800941205fb_sunagvjurcwdbixvnyi.jpg,00208940128fa.jpg,sunaazzyhbvqjpmazjq.jpg,00800941205fb.jpg,sunagvjurcwdbixvnyi.jpg,,,>,Place,,,,,1,,,,,,,o
7,18,Presentation,0,00242940128fa_sunabcuurugvxwparpk.jpg,00895960530fa_sunamczizlzavhzhpay.jpg,00242940128fa.jpg,sunabcuurugvxwparpk.jpg,00895960530fa.jpg,sunamczizlzavhzhpay.jpg,,,>,Place,,,,,1,,,,,,,x
8,18,Presentation,0,00264940128fb_sunabjzyxcjnmztdonj.jpg,00571940928fa_sunacuatpqpqhyjhjqk.jpg,00264940128fb.jpg,sunabjzyxcjnmztdonj.jpg,00571940928fa.jpg,sunacuatpqpqhyjhjqk.jpg,,,>,Place,,,,,0,,,,,,,x
9,18,Presentation,0,00745941205fa_sunaeouogqolxvggaoq.jpg,00092931230fa_sunaaheqzstzxuadglu.jpg,00745941205fa.jpg,sunaeouogqolxvggaoq.jpg,00092931230fa.jpg,sunaaheqzstzxuadglu.jpg,,,>,Place,,,,,1,,,,,,,x
10,18,Memory,0,,,,,,,00571940928fa.jpg,,,,,,,,,,,,,,,
11,18,Memory,0,,,,,,,sunbxzweleltykebgan.jpg,,,,,,,,,,,,,,,
12,18,Memory,0,,,,,,,sunacuatpqpqhyjhjqk.jpg,,,,,,,,,,,,,,,
13,18,Memory,0,,,,,,,sunafijbgncijwykrnl.jpg,,,,,,,,,,,,,,,
14,18,Memory,0,,,,,,,00987960627fa.jpg,,,,,,,,,,,,,,,
15,18,Memory,0,,,,,,,sunagvjurcwdbixvnyi.jpg,,,,,,,,,,,,,,,
16,18,Memory,0,,,,,,,00931960627fa.jpg,,,,,,,,,,,,,,,
17,18,Memory,0,,,,,,,00191940128fb.jpg,,,,,,,,,,,,,,,
18,18,Memory,0,,,,,,,01009960627fa.jpg,,,,,,,,,,,,,,,
19,18,Memory,0,,,,,,,00800941205fb.jpg,,,,,,,,,,,,,,,
20,18,Memory,0,,,,,,,00889960530fa.jpg,,,,,,,,,,,,,,,
21,18,Memory,0,,,,,,,00952960627fa.jpg,,,,,,,,,,,,,,,
22,18,Memory,0,,,,,,,00557940519fa.jpg,,,,,,,,,,,,,,,
23,18,Memory,0,,,,,,,00960960627fa.jpg,,,,,,,,,,,,,,,
24,18,Memory,0,,,,,,,00901960530fa.jpg,,,,,,,,,,,,,,,
25,18,Memory,0,,,,,,,sunbfyvfqiimvdaxlqn.jpg,,,,,,,,,,,,,,,
26,18,Memory,0,,,,,,,sunaletopenvvozhpxc.jpg,,,,,,,,,,,,,,,
27,18,Memory,0,,,,,,,00308940422fb.jpg,,,,,,,,,,,,,,,
28,18,Memory,0,,,,,,,sunadnjjzohjhbohlwq.jpg,,,,,,,,,,,,,,,
29,18,Memory,0,,,,,,,sunanaacmmosxrfwmvl.jpg,,,,,,,,,,,,,,,
30,18,Memory,0,,,,,,,00939960627fa.jpg,,,,,,,,,,,,,,,
31,18,Memory,0,,,,,,,sunabwfvcqqidycwypa.jpg,,,,,,,,,,,,,,,
32,18,Memory,0,,,,,,,sunabjzyxcjnmztdonj.jpg,,,,,,,,,,,,,,,
33,18,Memory,0,,,,,,,00766960620fa.jpg,,,,,,,,,,,,,,,
34,18,Memory,0,,,,,,,sunarceibpcyacbmfga.jpg,,,,,,,,,,,,,,,
35,18,Memory,0,,,,,,,sunawksfbacycuhbrsc.jpg,,,,,,,,,,,,,,,
36,18,Memory,0,,,,,,,00663941121fa.jpg,,,,,,,,,,,,,,,
37,18,Memory,0,,,,,,,sunabcuurugvxwparpk.jpg,,,,,,,,,,,,,,,
38,18,Memory,0,,,,,,,sunagvprlbprarvgdvj.jpg,,,,,,,,,,,,,,,
39,18,Memory,0,,,,,,,sunathzzbcwjykldrem.jpg,,,,,,,,,,,,,,,
40,18,Memory,0,,,,,,,00264940128fb.jpg,,,,,,,,,,,,,,,
41,18,Memory,0,,,,,,,sunammbnoambmhdxdwd.jpg,,,,,,,,,,,,,,,
42,18,Memory,0,,,,,,,00242940128fa.jpg,,,,,,,,,,,,,,,
43,18,Memory,0,,,,,,,sunaptrqvaooxfvktvw.jpg,,,,,,,,,,,,,,,
44,18,Memory,0,,,,,,,sunaawsdjisukbbginm.jpg,,,,,,,,,,,,,,,
45,18,Memory,0,,,,,,,00902960530fa.jpg,,,,,,,,,,,,,,,
46,18,Memory,0,,,,,,,sunbloeoiozwjjsiamp.jpg,,,,,,,,,,,,,,,
47,18,Memory,0,,,,,,,sunachtuarilwyqnvjx.jpg,,,,,,,,,,,,,,,
48,18,Memory,0,,,,,,,00801941205fa.jpg,,,,,,,,,,,,,,,
49,18,Memory,0,,,,,,,00983960627fa.jpg,,,,,,,,,,,,,,,
50,18,Presentation,1,00884960530fa_sunakodkcslgqhqlgwl.jpg,00548940519fa_sunacerqowiaeoqkmsq.jpg,00884960530fa.jpg,sunakodkcslgqhqlgwl.jpg,00548940519fa.jpg,sunacerqowiaeoqkmsq.jpg,,,>,Face,,,,,1,,,,,,,x
51,18,Presentation,1,00900960530fa_sunamlotskmmsjeogby.jpg,00089931230fa_sunaagcpoejbuzyvddd.jpg,00900960530fa.jpg,sunamlotskmmsjeogby.jpg,00089931230fa.jpg,sunaagcpoejbuzyvddd.jpg,,,>,Face,,,,,1,,,,,,,x
52,18,Presentation,1,00938960627fa_sunaqyylsngywqzwfmx.jpg,00868960307fa_sunajjxttslobudoqbv.jpg,00938960627fa.jpg,sunaqyylsngywqzwfmx.jpg,00868960307fa.jpg,sunajjxttslobudoqbv.jpg,,,>,Face,,,,,1,,,,,,,o
53,18,Presentation,1,00761960627fa_sunafgdqbclkwfocdhg.jpg,00130931230fa_sunaamvxnvouicstkjb.jpg,00761960627fa.jpg,sunafgdqbclkwfocdhg.jpg,00130931230fa.jpg,sunaamvxnvouicstkjb.jpg,,,>,Face,,,,,1,,,,,,,x
54,18,Presentation,1,00158931230fb_sunaavchcbptaerhcfy.jpg,00791941205fa_sunagrmyoovzukhxmlo.jpg,00158931230fb.jpg,sunaavchcbptaerhcfy.jpg,00791941205fa.jpg,sunagrmyoovzukhxmlo.jpg,,,>,Face,,,,,0,,,,,,,x
55,18,Presentation,1,00947960627fa_sunasmmcxdddtmtazwx.jpg,00878960530fa_sunakgbnzxmfohgehnu.jpg,00947960627fa.jpg,sunasmmcxdddtmtazwx.jpg,00878960530fa.jpg,sunakgbnzxmfohgehnu.jpg,,,>,Face,,,,,1,,,,,,,x
56,18,Presentation,1,00163931230fb_sunaavodbcpygkggnfp.jpg,00505960627fa_sunabzuqsrgcsonqlkz.jpg,00163931230fb.jpg,sunaavodbcpygkggnfp.jpg,00505960627fa.jpg,sunabzuqsrgcsonqlkz.jpg,,,>,Face,,,,,1,,,,,,,o
57,18,Presentation,1,00630940928fa_sunaczwgyukesaajxnx.jpg,00990960627fa_sunbpflsdaxnddnwcqi.jpg,00630940928fa.jpg,sunaczwgyukesaajxnx.jpg,00990960627fa.jpg,sunbpflsdaxnddnwcqi.jpg,,,>,Face,,,,,1,,,,,,,x
58,18,Presentation,1,00816941205fa_sunahmhrncocyhsjpxk.jpg,00631940928fa_sunadbdqzigzwipuipr.jpg,00816941205fa.jpg,sunahmhrncocyhsjpxk.jpg,00631940928fa.jpg,sunadbdqzigzwipuipr.jpg,,,>,Face,,,,,1,,,,,,,x
59,18,Presentation,1,00245940128fa_sunabeyhmxodahoieyk.jpg,00810941205fa_sunahctntqrunhdxhtb.jpg,00245940128fa.jpg,sunabeyhmxodahoieyk.jpg,00810941205fa.jpg,sunahctntqrunhdxhtb.jpg,,,>,Face,,,,,1,,,,,,,o
60,18,Memory,1,,,,,,,00630940928fa.jpg,,,,,,,,,,,,,,,
61,18,Memory,1,,,,,,,sunahpblecxtmuzkmxb.jpg,,,,,,,,,,,,,,,
62,18,Memory,1,,,,,,,sunagpjzsbltchlwvou.jpg,,,,,,,,,,,,,,,
63,18,Memory,1,,,,,,,00984960627fa.jpg,,,,,,,,,,,,,,,
64,18,Memory,1,,,,,,,00990960627fa.jpg,,,,,,,,,,,,,,,
65,18,Memory,1,,,,,,,sunaqyylsngywqzwfmx.jpg,,,,,,,,,,,,,,,
66,18,Memory,1,,,,,,,00810941205fa.jpg,,,,,,,,,,,,,,,
67,18,Memory,1,,,,,,,00109931230fa.jpg,,,,,,,,,,,,,,,
68,18,Memory,1,,,,,,,sunaajuzribjrizdshh.jpg,,,,,,,,,,,,,,,
69,18,Memory,1,,,,,,,00296940422fa.jpg,,,,,,,,,,,,,,,
70,18,Memory,1,,,,,,,sunabzuqsrgcsonqlkz.jpg,,,,,,,,,,,,,,,
71,18,Memory,1,,,,,,,sunabrwnslxalcohfre.jpg,,,,,,,,,,,,,,,
72,18,Memory,1,,,,,,,sunacbeefkxpymwevpk.jpg,,,,,,,,,,,,,,,
73,18,Memory,1,,,,,,,00111931230fb.jpg,,,,,,,,,,,,,,,
74,18,Memory,1,,,,,,,00884960530fa.jpg,,,,,,,,,,,,,,,
75,18,Memory,1,,,,,,,sunbpflsdaxnddnwcqi.jpg,,,,,,,,,,,,,,,
76,18,Memory,1,,,,,,,sunaakgekhjklxmvulj.jpg,,,,,,,,,,,,,,,
77,18,Memory,1,,,,,,,sunaczwgyukesaajxnx.jpg,,,,,,,,,,,,,,,
78,18,Memory,1,,,,,,,00529940519fa.jpg,,,,,,,,,,,,,,,
79,18,Memory,1,,,,,,,sunaagcpoejbuzyvddd.jpg,,,,,,,,,,,,,,,
80,18,Memory,1,,,,,,,sunaajpqmulidejvjsr.jpg,,,,,,,,,,,,,,,
81,18,Memory,1,,,,,,,00818940307fa.jpg,,,,,,,,,,,,,,,
82,18,Memory,1,,,,,,,sunaafgqutfaishsxyu.jpg,,,,,,,,,,,,,,,
83,18,Memory,1,,,,,,,sunagrmyoovzukhxmlo.jpg,,,,,,,,,,,,,,,
84,18,Memory,1,,,,,,,00089931230fa.jpg,,,,,,,,,,,,,,,
85,18,Memory,1,,,,,,,00098931230fa.jpg,,,,,,,,,,,,,,,
86,18,Memory,1,,,,,,,sunaavodbcpygkggnfp.jpg,,,,,,,,,,,,,,,
87,18,Memory,1,,,,,,,sunbfzchmomnvzhbxdg.jpg,,,,,,,,,,,,,,,
88,18,Memory,1,,,,,,,sunahctntqrunhdxhtb.jpg,,,,,,,,,,,,,,,
89,18,Memory,1,,,,,,,00505960627fa.jpg,,,,,,,,,,,,,,,
90,18,Memory,1,,,,,,,00790941205fa.jpg,,,,,,,,,,,,,,,
91,18,Memory,1,,,,,,,00938960627fa.jpg,,,,,,,,,,,,,,,
92,18,Memory,1,,,,,,,00163931230fb.jpg,,,,,,,,,,,,,,,
93,18,Memory,1,,,,,,,00791941205fa.jpg,,,,,,,,,,,,,,,
94,18,Memory,1,,,,,,,sunaguchqqnrtodtezq.jpg,,,,,,,,,,,,,,,
95,18,Memory,1,,,,,,,sunabeyhmxodahoieyk.jpg,,,,,,,,,,,,,,,
96,18,Memory,1,,,,,,,00245940128fa.jpg,,,,,,,,,,,,,,,
97,18,Memory,1,,,,,,,sunakodkcslgqhqlgwl.jpg,,,,,,,,,,,,,,,
98,18,Memory,1,,,,,,,00077931230fb.jpg,,,,,,,,,,,,,,,
99,18,Memory,1,,,,,,,00796941205fa.jpg,,,,,,,,,,,,,,,
100,18,Presentation,2,00788941205fa_sunagountlxpzkytsmp.jpg,00804960530fa_sunagwswhkvnsmuszlz.jpg,00788941205fa.jpg,sunagountlxpzkytsmp.jpg,00804960530fa.jpg,sunagwswhkvnsmuszlz.jpg,,,<,Place,,,,,1,,,,,,,x
101,18,Presentation,2,00854940307fa_sunaiwduelojtwaqeyh.jpg,00793941205fa_sunagtjwilqjvxohypn.jpg,00854940307fa.jpg,sunaiwduelojtwaqeyh.jpg,00793941205fa.jpg,sunagtjwilqjvxohypn.jpg,,,<,Place,,,,,1,,,,,,,x
102,18,Presentation,2,00778941205fa_sunagcthdfirrcawoic.jpg,00914960620fa_sunaozisvwfbmlkfhzv.jpg,00778941205fa.jpg,sunagcthdfirrcawoic.jpg,00914960620fa.jpg,sunaozisvwfbmlkfhzv.jpg,,,<,Place,,,,,1,,,,,,,x
103,18,Presentation,2,00705941205fa_sunadtlxenqqxsyjvix.jpg,00779941205fa_sunagdzlvkqtpnfxfcg.jpg,00705941205fa.jpg,sunadtlxenqqxsyjvix.jpg,00779941205fa.jpg,sunagdzlvkqtpnfxfcg.jpg,,,<,Place,,,,,1,,,,,,,x
104,18,Presentation,2,00062931230fb_sunaaelotvjgibjtjhs.jpg,00771941205fa_sunafowswglhxcsufpo.jpg,00062931230fb.jpg,sunaaelotvjgibjtjhs.jpg,00771941205fa.jpg,sunafowswglhxcsufpo.jpg,,,<,Place,,,,,1,,,,,,,x
105,18,Presentation,2,00877960530fa_sunajxpkuhbizeveguy.jpg,00080931230fb_sunaafjszryxyavjzln.jpg,00877960530fa.jpg,sunajxpkuhbizeveguy.jpg,00080931230fb.jpg,sunaafjszryxyavjzln.jpg,,,<,Place,,,,,1,,,,,,,o
106,18,Presentation,2,00869940307fa_sunajoveqhiprwqgoco.jpg,00115931230fa_sunaakmxzhuceuiryah.jpg,00869940307fa.jpg,sunajoveqhiprwqgoco.jpg,00115931230fa.jpg,sunaakmxzhuceuiryah.jpg,,,<,Place,,,,,1,,,,,,,x
107,18,Presentation,2,00936960627fa_sunaqgjuuwvdcyiccjt.jpg,00970960627fa_sunbasypfgzjtomktmu.jpg,00936960627fa.jpg,sunaqgjuuwvdcyiccjt.jpg,00970960627fa.jpg,sunbasypfgzjtomktmu.jpg,,,<,Place,,,,,1,,,,,,,o
108,18,Presentation,2,00676941121fa_sunadpnqovzckyikrjo.jpg,00988960627fa_sunbmaiocftdtvnzgap.jpg,00676941121fa.jpg,sunadpnqovzckyikrjo.jpg,00988960627fa.jpg,sunbmaiocftdtvnzgap.jpg,,,<,Place,,,,,1,,,,,,,x
109,18,Presentation,2,00564940928fa_sunacmpqqfbsvlzinzl.jpg,00211940128fa_sunabasphceswhwwqvv.jpg,00564940928fa.jpg,sunacmpqqfbsvlzinzl.jpg,00211940128fa.jpg,sunabasphceswhwwqvv.jpg,,,<,Place,,,,,1,,,,,,,o
110,18,Memory,2,,,,,,,00835940307fa.jpg,,,,,,,,,,,,,,,
111,18,Memory,2,,,,,,,sunagwswhkvnsmuszlz.jpg,,,,,,,,,,,,,,,
112,18,Memory,2,,,,,,,sunahbvlpavurqoxdeq.jpg,,,,,,,,,,,,,,,
113,18,Memory,2,,,,,,,00306940422fa.jpg,,,,,,,,,,,,,,,
114,18,Memory,2,,,,,,,sunabueyoajufbkraki.jpg,,,,,,,,,,,,,,,
115,18,Memory,2,,,,,,,sunaiwduelojtwaqeyh.jpg,,,,,,,,,,,,,,,
116,18,Memory,2,,,,,,,00227940128fa.jpg,,,,,,,,,,,,,,,
117,18,Memory,2,,,,,,,00728941205fa.jpg,,,,,,,,,,,,,,,
118,18,Memory,2,,,,,,,00804960530fa.jpg,,,,,,,,,,,,,,,
119,18,Memory,2,,,,,,,sunaaelotvjgibjtjhs.jpg,,,,,,,,,,,,,,,
120,18,Memory,2,,,,,,,00809960620fa.jpg,,,,,,,,,,,,,,,
121,18,Memory,2,,,,,,,sunaijsqpvodplbwxkf.jpg,,,,,,,,,,,,,,,
122,18,Memory,2,,,,,,,sunaakmxzhuceuiryah.jpg,,,,,,,,,,,,,,,
123,18,Memory,2,,,,,,,00771941205fa.jpg,,,,,,,,,,,,,,,
124,18,Memory,2,,,,,,,00936960627fa.jpg,,,,,,,,,,,,,,,
125,18,Memory,2,,,,,,,sunadtlxenqqxsyjvix.jpg,,,,,,,,,,,,,,,
126,18,Memory,2,,,,,,,00082931230fa.jpg,,,,,,,,,,,,,,,
127,18,Memory,2,,,,,,,sunabckqabszusgcykj.jpg,,,,,,,,,,,,,,,
128,18,Memory,2,,,,,,,sunacypmnujalygkunp.jpg,,,,,,,,,,,,,,,
129,18,Memory,2,,,,,,,sunaqgjuuwvdcyiccjt.jpg,,,,,,,,,,,,,,,
130,18,Memory,2,,,,,,,sunajoveqhiprwqgoco.jpg,,,,,,,,,,,,,,,
131,18,Memory,2,,,,,,,00869940307fa.jpg,,,,,,,,,,,,,,,
132,18,Memory,2,,,,,,,00543940519fa.jpg,,,,,,,,,,,,,,,
133,18,Memory,2,,,,,,,00620940928fa.jpg,,,,,,,,,,,,,,,
134,18,Memory,2,,,,,,,00211940128fa.jpg,,,,,,,,,,,,,,,
135,18,Memory,2,,,,,,,sunaflojskatpeqyzqp.jpg,,,,,,,,,,,,,,,
136,18,Memory,2,,,,,,,00705941205fa.jpg,,,,,,,,,,,,,,,
137,18,Memory,2,,,,,,,sunaafvitpexrpvumsa.jpg,,,,,,,,,,,,,,,
138,18,Memory,2,,,,,,,sunabasphceswhwwqvv.jpg,,,,,,,,,,,,,,,
139,18,Memory,2,,,,,,,sunacepzfrmtkiqonpy.jpg,,,,,,,,,,,,,,,
140,18,Memory,2,,,,,,,sunagtjwilqjvxohypn.jpg,,,,,,,,,,,,,,,
141,18,Memory,2,,,,,,,00793941205fa.jpg,,,,,,,,,,,,,,,
142,18,Memory,2,,,,,,,00115931230fa.jpg,,,,,,,,,,,,,,,
143,18,Memory,2,,,,,,,sunavxokzybtomhbmvm.jpg,,,,,,,,,,,,,,,
144,18,Memory,2,,,,,,,00770941201fa.jpg,,,,,,,,,,,,,,,
145,18,Memory,2,,,,,,,00959960627fa.jpg,,,,,,,,,,,,,,,
146,18,Memory,2,,,,,,,00854940307fa.jpg,,,,,,,,,,,,,,,
147,18,Memory,2,,,,,,,sunafowswglhxcsufpo.jpg,,,,,,,,,,,,,,,
148,18,Memory,2,,,,,,,00062931230fb.jpg,,,,,,,,,,,,,,,
149,18,Memory,2,,,,,,,sunaejnvnpltdmhbcsi.jpg,,,,,,,,,,,,,,,
150,18,Presentation,3,00061931230fb_sunaaekxzjzrfgtkwjf.jpg,00866940307fa_sunajbwkywmsqkldfml.jpg,00061931230fb.jpg,sunaaekxzjzrfgtkwjf.jpg,00866940307fa.jpg,sunajbwkywmsqkldfml.jpg,,,>,Face,,,,,1,,,,,,,o
151,18,Presentation,3,00935960627fa_sunaqbmgkgqucajzrkp.jpg,00314940422fa_sunabwmcbaxwioksdgw.jpg,00935960627fa.jpg,sunaqbmgkgqucajzrkp.jpg,00314940422fa.jpg,sunabwmcbaxwioksdgw.jpg,,,>,Face,,,,,1,,,,,,,o
152,18,Presentation,3,00239940128fa_sunabctlikybqabezjv.jpg,00795941205fa_sunagtumacdlmciqamz.jpg,00239940128fa.jpg,sunabctlikybqabezjv.jpg,00795941205fa.jpg,sunagtumacdlmciqamz.jpg,,,>,Face,,,,,1,,,,,,,x
153,18,Presentation,3,00972960627fa_sunbbfqwjpdxniyhies.jpg,00864940307fa_sunajawzbrlrwafowen.jpg,00972960627fa.jpg,sunbbfqwjpdxniyhies.jpg,00864940307fa.jpg,sunajawzbrlrwafowen.jpg,,,>,Face,,,,,1,,,,,,,x
154,18,Presentation,3,00069931230fb_sunaaeowapdkwzqpgqr.jpg,00507940519fa_sunacacflqoyxhsqzhe.jpg,00069931230fb.jpg,sunaaeowapdkwzqpgqr.jpg,00507940519fa.jpg,sunacacflqoyxhsqzhe.jpg,,,>,Face,,,,,1,,,,,,,x
155,18,Presentation,3,00744941201fa_sunaeomlfaabhpswasy.jpg,00140931230fb_sunaapllqyqlykszopd.jpg,00744941201fa.jpg,sunaeomlfaabhpswasy.jpg,00140931230fb.jpg,sunaapllqyqlykszopd.jpg,,,>,Face,,,,,1,,,,,,,o
156,18,Presentation,3,00848940307fa_sunaivdylrawbmhryfp.jpg,00965960627fa_sunaydywdmvlfddbxbk.jpg,00848940307fa.jpg,sunaivdylrawbmhryfp.jpg,00965960627fa.jpg,sunaydywdmvlfddbxbk.jpg,,,>,Face,,,,,1,,,,,,,o
157,18,Presentation,3,00828940307fa_sunahuynahneraqftyz.jpg,00762941201fa_sunafgzgbisbopcyslr.jpg,00828940307fa.jpg,sunahuynahneraqftyz.jpg,00762941201fa.jpg,sunafgzgbisbopcyslr.jpg,,,>,Face,,,,,1,,,,,,,o
158,18,Presentation,3,01010960627fa_suncnkvbhypnivcohyx.jpg,00971960627fa_sunbbegcweqnetpdlrh.jpg,01010960627fa.jpg,suncnkvbhypnivcohyx.jpg,00971960627fa.jpg,sunbbegcweqnetpdlrh.jpg,,,>,Face,,,,,0,,,,,,,x
159,18,Presentation,3,00126931230fb_sunaamdjwemxpmmtypi.jpg,00953960627fa_sunatstrpjxhvtbaczf.jpg,00126931230fb.jpg,sunaamdjwemxpmmtypi.jpg,00953960627fa.jpg,sunatstrpjxhvtbaczf.jpg,,,>,Face,,,,,0,,,,,,,o
160,18,Memory,3,,,,,,,00635941031fa.jpg,,,,,,,,,,,,,,,
161,18,Memory,3,,,,,,,sunbbfqwjpdxniyhies.jpg,,,,,,,,,,,,,,,
162,18,Memory,3,,,,,,,sunapmfmzadmosuogaz.jpg,,,,,,,,,,,,,,,
163,18,Memory,3,,,,,,,sunahuynahneraqftyz.jpg,,,,,,,,,,,,,,,
164,18,Memory,3,,,,,,,sunaapllqyqlykszopd.jpg,,,,,,,,,,,,,,,
165,18,Memory,3,,,,,,,00997960627fa.jpg,,,,,,,,,,,,,,,
166,18,Memory,3,,,,,,,sunajbwkywmsqkldfml.jpg,,,,,,,,,,,,,,,
167,18,Memory,3,,,,,,,00126931230fb.jpg,,,,,,,,,,,,,,,
168,18,Memory,3,,,,,,,00993960627fa.jpg,,,,,,,,,,,,,,,
169,18,Memory,3,,,,,,,00785941205fa.jpg,,,,,,,,,,,,,,,
170,18,Memory,3,,,,,,,suncnkvbhypnivcohyx.jpg,,,,,,,,,,,,,,,
171,18,Memory,3,,,,,,,sunabmytpyhsgigllxu.jpg,,,,,,,,,,,,,,,
172,18,Memory,3,,,,,,,00953960627fa.jpg,,,,,,,,,,,,,,,
173,18,Memory,3,,,,,,,sunacjkmnpawfzbyvae.jpg,,,,,,,,,,,,,,,
174,18,Memory,3,,,,,,,00828940307fa.jpg,,,,,,,,,,,,,,,
175,18,Memory,3,,,,,,,sunaglqunwuycxydmyu.jpg,,,,,,,,,,,,,,,
176,18,Memory,3,,,,,,,00276940422fa.jpg,,,,,,,,,,,,,,,
177,18,Memory,3,,,,,,,00762941201fa.jpg,,,,,,,,,,,,,,,
178,18,Memory,3,,,,,,,00239940128fa.jpg,,,,,,,,,,,,,,,
179,18,Memory,3,,,,,,,sunaddsaeicthrfbkhe.jpg,,,,,,,,,,,,,,,
180,18,Memory,3,,,,,,,sunaamdjwemxpmmtypi.jpg,,,,,,,,,,,,,,,
181,18,Memory,3,,,,,,,00971960627fa.jpg,,,,,,,,,,,,,,,
182,18,Memory,3,,,,,,,sunagoufulkpsxrmklt.jpg,,,,,,,,,,,,,,,
183,18,Memory,3,,,,,,,sunarpsxqkduedrrzyi.jpg,,,,,,,,,,,,,,,
184,18,Memory,3,,,,,,,00943960627fa.jpg,,,,,,,,,,,,,,,
185,18,Memory,3,,,,,,,00140931230fb.jpg,,,,,,,,,,,,,,,
186,18,Memory,3,,,,,,,sunatstrpjxhvtbaczf.jpg,,,,,,,,,,,,,,,
187,18,Memory,3,,,,,,,00787960620fa.jpg,,,,,,,,,,,,,,,
188,18,Memory,3,,,,,,,sunbtpilbhhbmhmeuzq.jpg,,,,,,,,,,,,,,,
189,18,Memory,3,,,,,,,00972960627fa.jpg,,,,,,,,,,,,,,,
190,18,Memory,3,,,,,,,00559940519fa.jpg,,,,,,,,,,,,,,,
191,18,Memory,3,,,,,,,sunbprywzqxjcezkbch.jpg,,,,,,,,,,,,,,,
192,18,Memory,3,,,,,,,sunafgzgbisbopcyslr.jpg,,,,,,,,,,,,,,,
193,18,Memory,3,,,,,,,sunbbegcweqnetpdlrh.jpg,,,,,,,,,,,,,,,
194,18,Memory,3,,,,,,,01010960627fa.jpg,,,,,,,,,,,,,,,
195,18,Memory,3,,,,,,,sunabctlikybqabezjv.jpg,,,,,,,,,,,,,,,
196,18,Memory,3,,,,,,,00919960620fa.jpg,,,,,,,,,,,,,,,
197,18,Memory,3,,,,,,,00866940307fa.jpg,,,,,,,,,,,,,,,
198,18,Memory,3,,,,,,,00985960627fa.jpg,,,,,,,,,,,,,,,
199,18,Memory,3,,,,,,,sunbgklxeqjhdbyfhhy.jpg,,,,,,,,,,,,,,,
200,18,Presentation,4,00670941121fa_sunadochqcucscehsgk.jpg,00609940928fa_sunacycdoztxoluxjyk.jpg,00670941121fa.jpg,sunadochqcucscehsgk.jpg,00609940928fa.jpg,sunacycdoztxoluxjyk.jpg,,,<,Face,,,,,1,,,,,,,o
201,18,Presentation,4,00209940128fb_sunabaergayifsgacxt.jpg,00123931230fb_sunaalcrrdbjgdztbiz.jpg,00209940128fb.jpg,sunabaergayifsgacxt.jpg,00123931230fb.jpg,sunaalcrrdbjgdztbiz.jpg,,,<,Face,,,,,0,,,,,,,o
202,18,Presentation,4,00270940422fb_sunabllobxadqcyttej.jpg,00851940307fa_sunaivflshbyfrfzhqb.jpg,00270940422fb.jpg,sunabllobxadqcyttej.jpg,00851940307fa.jpg,sunaivflshbyfrfzhqb.jpg,,,<,Face,,,,,1,,,,,,,x
203,18,Presentation,4,00576941031fa_sunacvjlsylseoghjup.jpg,00598941031fa_sunacxtcahkymosigud.jpg,00576941031fa.jpg,sunacvjlsylseoghjup.jpg,00598941031fa.jpg,sunacxtcahkymosigud.jpg,,,<,Face,,,,,1,,,,,,,x
204,18,Presentation,4,00838940307fa_sunaiozxhxgtfrmoagh.jpg,00483940519fa_sunabyvpwkgsjtijdwj.jpg,00838940307fa.jpg,sunaiozxhxgtfrmoagh.jpg,00483940519fa.jpg,sunabyvpwkgsjtijdwj.jpg,,,<,Face,,,,,1,,,,,,,x
205,18,Presentation,4,00154931230fa_sunaauueuhhvklldjik.jpg,00194940128fb_sunaayehfdqcyxggsej.jpg,00154931230fa.jpg,sunaauueuhhvklldjik.jpg,00194940128fb.jpg,sunaayehfdqcyxggsej.jpg,,,<,Face,,,,,1,,,,,,,o
206,18,Presentation,4,00260940128fa_sunabgfhvifeijihhjw.jpg,00968960627fa_sunbagfpovqwbuexqdn.jpg,00260940128fa.jpg,sunabgfhvifeijihhjw.jpg,00968960627fa.jpg,sunbagfpovqwbuexqdn.jpg,,,<,Face,,,,,1,,,,,,,x
207,18,Presentation,4,00910960530fa_sunaofikylqtxphvdem.jpg,00125931230fa_sunaalltyvjhbzhkmvg.jpg,00910960530fa.jpg,sunaofikylqtxphvdem.jpg,00125931230fa.jpg,sunaalltyvjhbzhkmvg.jpg,,,<,Face,,,,,1,,,,,,,o
208,18,Presentation,4,00554940519fa_sunacfdkbsrughwqwtt.jpg,00288940422fa_sunabppokiyglaxpcha.jpg,00554940519fa.jpg,sunacfdkbsrughwqwtt.jpg,00288940422fa.jpg,sunabppokiyglaxpcha.jpg,,,<,Face,,,,,1,,,,,,,o
209,18,Presentation,4,00705960530fa_sunaduslxfzlbxlllnz.jpg,00124931230fa_sunaalhlvzmjmitybdn.jpg,00705960530fa.jpg,sunaduslxfzlbxlllnz.jpg,00124931230fa.jpg,sunaalhlvzmjmitybdn.jpg,,,<,Face,,,,,0,,,,,,,x
210,18,Memory,4,,,,,,,00910960530fa.jpg,,,,,,,,,,,,,,,
211,18,Memory,4,,,,,,,00705960530fa.jpg,,,,,,,,,,,,,,,
212,18,Memory,4,,,,,,,sunaivflshbyfrfzhqb.jpg,,,,,,,,,,,,,,,
213,18,Memory,4,,,,,,,00554940519fa.jpg,,,,,,,,,,,,,,,
214,18,Memory,4,,,,,,,00124931230fa.jpg,,,,,,,,,,,,,,,
215,18,Memory,4,,,,,,,00294940422fb.jpg,,,,,,,,,,,,,,,
216,18,Memory,4,,,,,,,sunaayehfdqcyxggsej.jpg,,,,,,,,,,,,,,,
217,18,Memory,4,,,,,,,sunabohxbskznglnrhv.jpg,,,,,,,,,,,,,,,
218,18,Memory,4,,,,,,,00851940307fa.jpg,,,,,,,,,,,,,,,
219,18,Memory,4,,,,,,,00968960627fa.jpg,,,,,,,,,,,,,,,
220,18,Memory,4,,,,,,,00125931230fa.jpg,,,,,,,,,,,,,,,
221,18,Memory,4,,,,,,,00921960627fa.jpg,,,,,,,,,,,,,,,
222,18,Memory,4,,,,,,,sunbagfpovqwbuexqdn.jpg,,,,,,,,,,,,,,,
223,18,Memory,4,,,,,,,sunaakvmbftkrgqhjun.jpg,,,,,,,,,,,,,,,
224,18,Memory,4,,,,,,,00871940307.jpg,,,,,,,,,,,,,,,
225,18,Memory,4,,,,,,,sunbvbrvgbpanfrawft.jpg,,,,,,,,,,,,,,,
226,18,Memory,4,,,,,,,sunaofikylqtxphvdem.jpg,,,,,,,,,,,,,,,
227,18,Memory,4,,,,,,,00700941121fa.jpg,,,,,,,,,,,,,,,
228,18,Memory,4,,,,,,,sunbondbduabvijnmch.jpg,,,,,,,,,,,,,,,
229,18,Memory,4,,,,,,,sunaiozxhxgtfrmoagh.jpg,,,,,,,,,,,,,,,
230,18,Memory,4,,,,,,,sunapqkpqdfvxlbqwyo.jpg,,,,,,,,,,,,,,,
231,18,Memory,4,,,,,,,sunajrujcsdxmfbssmc.jpg,,,,,,,,,,,,,,,
232,18,Memory,4,,,,,,,00670941121fa.jpg,,,,,,,,,,,,,,,
233,18,Memory,4,,,,,,,00780960530fa.jpg,,,,,,,,,,,,,,,
234,18,Memory,4,,,,,,,sunaalhlvzmjmitybdn.jpg,,,,,,,,,,,,,,,
235,18,Memory,4,,,,,,,00999960627fa.jpg,,,,,,,,,,,,,,,
236,18,Memory,4,,,,,,,sunagetqixeypsysbpn.jpg,,,,,,,,,,,,,,,
237,18,Memory,4,,,,,,,sunaalltyvjhbzhkmvg.jpg,,,,,,,,,,,,,,,
238,18,Memory,4,,,,,,,sunabrlndkruqokhury.jpg,,,,,,,,,,,,,,,
239,18,Memory,4,,,,,,,00119931230fb.jpg,,,,,,,,,,,,,,,
240,18,Memory,4,,,,,,,00989960627fa.jpg,,,,,,,,,,,,,,,
241,18,Memory,4,,,,,,,sunaduslxfzlbxlllnz.jpg,,,,,,,,,,,,,,,
242,18,Memory,4,,,,,,,00280940422fb.jpg,,,,,,,,,,,,,,,
243,18,Memory,4,,,,,,,sunaahwnmtqsrhocysw.jpg,,,,,,,,,,,,,,,
244,18,Memory,4,,,,,,,sunadsgmtznewzyasnk.jpg,,,,,,,,,,,,,,,
245,18,Memory,4,,,,,,,00838940307fa.jpg,,,,,,,,,,,,,,,
246,18,Memory,4,,,,,,,sunacfdkbsrughwqwtt.jpg,,,,,,,,,,,,,,,
247,18,Memory,4,,,,,,,00194940128fb.jpg,,,,,,,,,,,,,,,
248,18,Memory,4,,,,,,,sunadochqcucscehsgk.jpg,,,,,,,,,,,,,,,
249,18,Memory,4,,,,,,,00093931230fa.jpg,,,,,,,,,,,,,,,
250,18,Presentation,5,00784941205fb_sunagjzcrjvmxzqzljx.jpg,01004960627fa_sunbwtlihsuptkrckid.jpg,00784941205fb.jpg,sunagjzcrjvmxzqzljx.jpg,01004960627fa.jpg,sunbwtlihsuptkrckid.jpg,,,<,Place,,,,,1,,,,,,,o
251,18,Presentation,5,00271940422fa_sunabmbnddafmywtjjj.jpg,00807941205fa_sunahawfngukizslzsd.jpg,00271940422fa.jpg,sunabmbnddafmywtjjj.jpg,00807941205fa.jpg,sunahawfngukizslzsd.jpg,,,<,Place,,,,,0,,,,,,,o
252,18,Presentation,5,00782941205fa_sunagfvluwixdsozaql.jpg,00836940307fa_sunainqelldeebvxtcz.jpg,00782941205fa.jpg,sunagfvluwixdsozaql.jpg,00836940307fa.jpg,sunainqelldeebvxtcz.jpg,,,<,Place,,,,,1,,,,,,,o
253,18,Presentation,5,00235940128fb_sunabclssnoeuigtawp.jpg,00822940307fa_sunahqrxievfeusiqlt.jpg,00235940128fb.jpg,sunabclssnoeuigtawp.jpg,00822940307fa.jpg,sunahqrxievfeusiqlt.jpg,,,<,Place,,,,,1,,,,,,,o
254,18,Presentation,5,00944960627fa_sunasbbntuiheekqyaq.jpg,00096931230fa_sunaaiqiqcggrskoqgy.jpg,00944960627fa.jpg,sunasbbntuiheekqyaq.jpg,00096931230fa.jpg,sunaaiqiqcggrskoqgy.jpg,,,<,Place,,,,,1,,,,,,,o
255,18,Presentation,5,00743941201fa_sunaeoghzrjarigmwua.jpg,00937960627fa_sunaqsolmfydodnakub.jpg,00743941201fa.jpg,sunaeoghzrjarigmwua.jpg,00937960627fa.jpg,sunaqsolmfydodnakub.jpg,,,<,Place,,,,,1,,,,,,,o
256,18,Presentation,5,00076931230fa_sunaafewhewbxmjiurz.jpg,00265940128fb_sunabkmdplkdbvxriff.jpg,00076931230fa.jpg,sunaafewhewbxmjiurz.jpg,00265940128fb.jpg,sunabkmdplkdbvxriff.jpg,,,<,Place,,,,,1,,,,,,,x
257,18,Presentation,5,00162931230fb_sunaavjinpnkappuonm.jpg,00996960627fa_sunbpvgllfdejxcpjqp.jpg,00162931230fb.jpg,sunaavjinpnkappuonm.jpg,00996960627fa.jpg,sunbpvgllfdejxcpjqp.jpg,,,<,Place,,,,,1,,,,,,,o
258,18,Presentation,5,00794960620fa_sunagtqhhwxjeuxdebe.jpg,00071940128fa_sunaaexpnawiehinlpy.jpg,00794960620fa.jpg,sunagtqhhwxjeuxdebe.jpg,00071940128fa.jpg,sunaaexpnawiehinlpy.jpg,,,<,Place,,,,,1,,,,,,,x
259,18,Presentation,5,00986960627fa_sunbgzjryivyczuvkvm.jpg,00532960627fa_sunaccdtpgenvcbcbcf.jpg,00986960627fa.jpg,sunbgzjryivyczuvkvm.jpg,00532960627fa.jpg,sunaccdtpgenvcbcbcf.jpg,,,<,Place,,,,,1,,,,,,,x
260,18,Memory,5,,,,,,,00774941201fa.jpg,,,,,,,,,,,,,,,
261,18,Memory,5,,,,,,,sunabanoxjtqxamkucc.jpg,,,,,,,,,,,,,,,
262,18,Memory,5,,,,,,,00271940422fa.jpg,,,,,,,,,,,,,,,
263,18,Memory,5,,,,,,,sunabmbnddafmywtjjj.jpg,,,,,,,,,,,,,,,
264,18,Memory,5,,,,,,,00986960627fa.jpg,,,,,,,,,,,,,,,
265,18,Memory,5,,,,,,,00743941201fa.jpg,,,,,,,,,,,,,,,
266,18,Memory,5,,,,,,,00096931230fa.jpg,,,,,,,,,,,,,,,
267,18,Memory,5,,,,,,,00060931230fa.jpg,,,,,,,,,,,,,,,
268,18,Memory,5,,,,,,,sunaauhozyxzeeqstxi.jpg,,,,,,,,,,,,,,,
269,18,Memory,5,,,,,,,00127931230fa.jpg,,,,,,,,,,,,,,,
270,18,Memory,5,,,,,,,sunaampvucecsfbdafn.jpg,,,,,,,,,,,,,,,
271,18,Memory,5,,,,,,,00898960530fa.jpg,,,,,,,,,,,,,,,
272,18,Memory,5,,,,,,,00568940928fa.jpg,,,,,,,,,,,,,,,
273,18,Memory,5,,,,,,,sunaaexpnawiehinlpy.jpg,,,,,,,,,,,,,,,
274,18,Memory,5,,,,,,,sunaccdtpgenvcbcbcf.jpg,,,,,,,,,,,,,,,
275,18,Memory,5,,,,,,,sunadfktsqjthoglcsm.jpg,,,,,,,,,,,,,,,
276,18,Memory,5,,,,,,,00153931230fa.jpg,,,,,,,,,,,,,,,
277,18,Memory,5,,,,,,,sunbwtlihsuptkrckid.jpg,,,,,,,,,,,,,,,
278,18,Memory,5,,,,,,,sunaeoghzrjarigmwua.jpg,,,,,,,,,,,,,,,
279,18,Memory,5,,,,,,,00162931230fb.jpg,,,,,,,,,,,,,,,
280,18,Memory,5,,,,,,,sunabclssnoeuigtawp.jpg,,,,,,,,,,,,,,,
281,18,Memory,5,,,,,,,01004960627fa.jpg,,,,,,,,,,,,,,,
282,18,Memory,5,,,,,,,00210940128fb.jpg,,,,,,,,,,,,,,,
283,18,Memory,5,,,,,,,sunaaiqiqcggrskoqgy.jpg,,,,,,,,,,,,,,,
284,18,Memory,5,,,,,,,sunacwggadqsfpovdjv.jpg,,,,,,,,,,,,,,,
285,18,Memory,5,,,,,,,00235940128fb.jpg,,,,,,,,,,,,,,,
286,18,Memory,5,,,,,,,sunamkmeblgteyggink.jpg,,,,,,,,,,,,,,,
287,18,Memory,5,,,,,,,sunafvtpfczkzopbgue.jpg,,,,,,,,,,,,,,,
288,18,Memory,5,,,,,,,00822940307fa.jpg,,,,,,,,,,,,,,,
289,18,Memory,5,,,,,,,sunaavjinpnkappuonm.jpg,,,,,,,,,,,,,,,
290,18,Memory,5,,,,,,,sunahqrxievfeusiqlt.jpg,,,,,,,,,,,,,,,
291,18,Memory,5,,,,,,,00859940307fa.jpg,,,,,,,,,,,,,,,
292,18,Memory,5,,,,,,,00532960627fa.jpg,,,,,,,,,,,,,,,
293,18,Memory,5,,,,,,,sunaaehaikpckyjsety.jpg,,,,,,,,,,,,,,,
294,18,Memory,5,,,,,,,sunacsdhbbsybcyxnel.jpg,,,,,,,,,,,,,,,
295,18,Memory,5,,,,,,,sunbgzjryivyczuvkvm.jpg,,,,,,,,,,,,,,,
296,18,Memory,5,,,,,,,00589940928fa.jpg,,,,,,,,,,,,,,,
297,18,Memory,5,,,,,,,00071940128fa.jpg,,,,,,,,,,,,,,,
298,18,Memory,5,,,,,,,sunaiycurtqsfkvcaso.jpg,,,,,,,,,,,,,,,
299,18,Memory,5,,,,,,,00638941031fa.jpg,,,,,,,,,,,,,,,
300,18,Presentation,6,00913960530fa_sunaooffzffbhcpirmm.jpg,00681941121fa_sunadqmjrhfjyuzyvdd.jpg,00913960530fa.jpg,sunaooffzffbhcpirmm.jpg,00681941121fa.jpg,sunadqmjrhfjyuzyvdd.jpg,,,>,Place,,,,,1,,,,,,,x
301,18,Presentation,6,00819940307fa_sunahqldjibofgsfdgb.jpg,00267940128fb_sunablfqiwfqomjarht.jpg,00819940307fa.jpg,sunahqldjibofgsfdgb.jpg,00267940128fb.jpg,sunablfqiwfqomjarht.jpg,,,>,Place,,,,,1,,,,,,,o
302,18,Presentation,6,01207940128fa_sundbixjudsgeuuehrn.jpg,00768941205fa_sunafkmnlytenlsywia.jpg,01207940128fa.jpg,sundbixjudsgeuuehrn.jpg,00768941205fa.jpg,sunafkmnlytenlsywia.jpg,,,>,Place,,,,,1,,,,,,,x
303,18,Presentation,6,00776941205fa_sunafxokyavhgptyfye.jpg,00812941205fa_sunahgtbwgsmtqeodwh.jpg,00776941205fa.jpg,sunafxokyavhgptyfye.jpg,00812941205fa.jpg,sunahgtbwgsmtqeodwh.jpg,,,>,Place,,,,,1,,,,,,,o
304,18,Presentation,6,00149931230fa_sunaauglwmctnkxyird.jpg,00302940422fa_sunabtlfmiwtljmoues.jpg,00149931230fa.jpg,sunaauglwmctnkxyird.jpg,00302940422fa.jpg,sunabtlfmiwtljmoues.jpg,,,>,Place,,,,,1,,,,,,,x
305,18,Presentation,6,00479940519fa_sunabxsbfwjccqxxzxq.jpg,00958960627fa_sunavspxmxubqaeidjt.jpg,00479940519fa.jpg,sunabxsbfwjccqxxzxq.jpg,00958960627fa.jpg,sunavspxmxubqaeidjt.jpg,,,>,Place,,,,,1,,,,,,,x
306,18,Presentation,6,00108960530fa_sunaajtnvzzpsjdzres.jpg,00857940307fa_sunaiwfobocrruqznsv.jpg,00108960530fa.jpg,sunaajtnvzzpsjdzres.jpg,00857940307fa.jpg,sunaiwfobocrruqznsv.jpg,,,>,Place,,,,,1,,,,,,,o
307,18,Presentation,6,00720960620fa_sunaecpkgfewqqreqwe.jpg,00982960627fa_sunbesrwkdsffeogeqq.jpg,00720960620fa.jpg,sunaecpkgfewqqreqwe.jpg,00982960627fa.jpg,sunbesrwkdsffeogeqq.jpg,,,>,Place,,,,,1,,,,,,,o
308,18,Presentation,6,00540940519fa_sunacdnquypmsshhsbk.jpg,01003960627fb_sunbwdrdvsweerwsdrj.jpg,00540940519fa.jpg,sunacdnquypmsshhsbk.jpg,01003960627fb.jpg,sunbwdrdvsweerwsdrj.jpg,,,>,Place,,,,,0,,,,,,,o
309,18,Presentation,6,00829940307fa_sunahwgbqkqcrwprgvh.jpg,00102931230fa_sunaajspcoepticvplv.jpg,00829940307fa.jpg,sunahwgbqkqcrwprgvh.jpg,00102931230fa.jpg,sunaajspcoepticvplv.jpg,,,>,Place,,,,,1,,,,,,,x
310,18,Memory,6,,,,,,,sunahgtbwgsmtqeodwh.jpg,,,,,,,,,,,,,,,
311,18,Memory,6,,,,,,,sunadqmjrhfjyuzyvdd.jpg,,,,,,,,,,,,,,,
312,18,Memory,6,,,,,,,00982960627fa.jpg,,,,,,,,,,,,,,,
313,18,Memory,6,,,,,,,sunablfqiwfqomjarht.jpg,,,,,,,,,,,,,,,
314,18,Memory,6,,,,,,,sunahwgbqkqcrwprgvh.jpg,,,,,,,,,,,,,,,
315,18,Memory,6,,,,,,,00792941205fa.jpg,,,,,,,,,,,,,,,
316,18,Memory,6,,,,,,,sunaizgnnplsvajzhkc.jpg,,,,,,,,,,,,,,,
317,18,Memory,6,,,,,,,sunabxsbfwjccqxxzxq.jpg,,,,,,,,,,,,,,,
318,18,Memory,6,,,,,,,sunabxsuqbleluwczoy.jpg,,,,,,,,,,,,,,,
319,18,Memory,6,,,,,,,00776941205fa.jpg,,,,,,,,,,,,,,,
320,18,Memory,6,,,,,,,00906960530fa.jpg,,,,,,,,,,,,,,,
321,18,Memory,6,,,,,,,sunafxokyavhgptyfye.jpg,,,,,,,,,,,,,,,
322,18,Memory,6,,,,,,,sunagsiwrmuixqgdimb.jpg,,,,,,,,,,,,,,,
323,18,Memory,6,,,,,,,00681941121fa.jpg,,,,,,,,,,,,,,,
324,18,Memory,6,,,,,,,sundbixjudsgeuuehrn.jpg,,,,,,,,,,,,,,,
325,18,Memory,6,,,,,,,01207940128fa.jpg,,,,,,,,,,,,,,,
326,18,Memory,6,,,,,,,00966960627fa.jpg,,,,,,,,,,,,,,,
327,18,Memory,6,,,,,,,00746941201fa.jpg,,,,,,,,,,,,,,,
328,18,Memory,6,,,,,,,sunantryfbloeaomfta.jpg,,,,,,,,,,,,,,,
329,18,Memory,6,,,,,,,00149931230fa.jpg,,,,,,,,,,,,,,,
330,18,Memory,6,,,,,,,00071941031fa.jpg,,,,,,,,,,,,,,,
331,18,Memory,6,,,,,,,sunajtrfunvzdfticna.jpg,,,,,,,,,,,,,,,
332,18,Memory,6,,,,,,,sunaaexqbtdswxrqjvz.jpg,,,,,,,,,,,,,,,
333,18,Memory,6,,,,,,,00874940307fa.jpg,,,,,,,,,,,,,,,
334,18,Memory,6,,,,,,,00829940307fa.jpg,,,,,,,,,,,,,,,
335,18,Memory,6,,,,,,,00950960627fa.jpg,,,,,,,,,,,,,,,
336,18,Memory,6,,,,,,,00267940128fb.jpg,,,,,,,,,,,,,,,
337,18,Memory,6,,,,,,,00862940307fa.jpg,,,,,,,,,,,,,,,
338,18,Memory,6,,,,,,,00290940422fa.jpg,,,,,,,,,,,,,,,
339,18,Memory,6,,,,,,,00812941205fa.jpg,,,,,,,,,,,,,,,
340,18,Memory,6,,,,,,,sunbesrwkdsffeogeqq.jpg,,,,,,,,,,,,,,,
341,18,Memory,6,,,,,,,sunaetydippjxikifsb.jpg,,,,,,,,,,,,,,,
342,18,Memory,6,,,,,,,sunabtlfmiwtljmoues.jpg,,,,,,,,,,,,,,,
343,18,Memory,6,,,,,,,00481940519fa.jpg,,,,,,,,,,,,,,,
344,18,Memory,6,,,,,,,sunaauglwmctnkxyird.jpg,,,,,,,,,,,,,,,
345,18,Memory,6,,,,,,,sunabqowuarvqqcnipn.jpg,,,,,,,,,,,,,,,
346,18,Memory,6,,,,,,,sunasrjlmglmjzbmqxb.jpg,,,,,,,,,,,,,,,
347,18,Memory,6,,,,,,,sunaygrtwrwfezqjizr.jpg,,,,,,,,,,,,,,,
348,18,Memory,6,,,,,,,00302940422fa.jpg,,,,,,,,,,,,,,,
349,18,Memory,6,,,,,,,00479940519fa.jpg,,,,,,,,,,,,,,,
350,18,Presentation,7,00751960620fa_sunaezuszgtxnmsxdbk.jpg,00719960620fa_sunadzuvtmtmgupotmf.jpg,00751960620fa.jpg,sunaezuszgtxnmsxdbk.jpg,00719960620fa.jpg,sunadzuvtmtmgupotmf.jpg,,,<,Face,,,,,1,,,,,,,o
351,18,Presentation,7,00915960620fa_sunapileznnbbmrwoei.jpg,00870940307fa_sunajrgtewnualfcerj.jpg,00915960620fa.jpg,sunapileznnbbmrwoei.jpg,00870940307fa.jpg,sunajrgtewnualfcerj.jpg,,,<,Face,,,,,1,,,,,,,o
352,18,Presentation,7,00101931230fb_sunaajqmsaavkmgbsth.jpg,00963960627fa_sunayaepykrqvenaqqy.jpg,00101931230fb.jpg,sunaajqmsaavkmgbsth.jpg,00963960627fa.jpg,sunayaepykrqvenaqqy.jpg,,,<,Face,,,,,1,,,,,,,o
353,18,Presentation,7,00787941205fa_sunagmwxxwymwojbvgi.jpg,00894960620fa_sunalqmfgeadpqsyzpd.jpg,00787941205fa.jpg,sunagmwxxwymwojbvgi.jpg,00894960620fa.jpg,sunalqmfgeadpqsyzpd.jpg,,,<,Face,,,,,1,,,,,,,x
354,18,Presentation,7,00797960620fa_sunagufzbeteqdjxais.jpg,00925960627fa_sunapqwnqzxlsfvgsjm.jpg,00797960620fa.jpg,sunagufzbeteqdjxais.jpg,00925960627fa.jpg,sunapqwnqzxlsfvgsjm.jpg,,,<,Face,,,,,1,,,,,,,x
355,18,Presentation,7,00803941205fa_sunagvxkjokqimstxpe.jpg,00147931230fb_sunaatpkocdkocwxpkb.jpg,00803941205fa.jpg,sunagvxkjokqimstxpe.jpg,00147931230fb.jpg,sunaatpkocdkocwxpkb.jpg,,,<,Face,,,,,1,,,,,,,o
356,18,Presentation,7,00977960627fa_sunbbxkanhzjgbwyxqs.jpg,00723941201fa_sunaedtgwjvvziytspa.jpg,00977960627fa.jpg,sunbbxkanhzjgbwyxqs.jpg,00723941201fa.jpg,sunaedtgwjvvziytspa.jpg,,,<,Face,,,,,1,,,,,,,x
357,18,Presentation,7,00773941201fa_sunafvcflzhlqloapyo.jpg,00839940307fa_sunaipyohrqlwngaqif.jpg,00773941201fa.jpg,sunafvcflzhlqloapyo.jpg,00839940307fa.jpg,sunaipyohrqlwngaqif.jpg,,,<,Face,,,,,1,,,,,,,x
358,18,Presentation,7,00880960530fa_sunakmnfgklupjijsgf.jpg,00860940307fa_sunaizeyhvjzknwjudw.jpg,00880960530fa.jpg,sunakmnfgklupjijsgf.jpg,00860940307fa.jpg,sunaizeyhvjzknwjudw.jpg,,,<,Face,,,,,1,,,,,,,o
359,18,Presentation,7,00129931230fb_sunaamsdyakblkfoydx.jpg,00574940928fa_sunacvbrcejzwmcgnoq.jpg,00129931230fb.jpg,sunaamsdyakblkfoydx.jpg,00574940928fa.jpg,sunacvbrcejzwmcgnoq.jpg,,,<,Face,,,,,1,,,,,,,o
360,18,Memory,7,,,,,,,sunarfdklgdnjgeqfjg.jpg,,,,,,,,,,,,,,,
361,18,Memory,7,,,,,,,00803941205fa.jpg,,,,,,,,,,,,,,,
362,18,Memory,7,,,,,,,sunanainkqdvktzoxyl.jpg,,,,,,,,,,,,,,,
363,18,Memory,7,,,,,,,00880960530fa.jpg,,,,,,,,,,,,,,,
364,18,Memory,7,,,,,,,00751960620fa.jpg,,,,,,,,,,,,,,,
365,18,Memory,7,,,,,,,sunabyfxcxhdebvdyfd.jpg,,,,,,,,,,,,,,,
366,18,Memory,7,,,,,,,sunacvbrcejzwmcgnoq.jpg,,,,,,,,,,,,,,,
367,18,Memory,7,,,,,,,00193940928fa.jpg,,,,,,,,,,,,,,,
368,18,Memory,7,,,,,,,sunaajqmsaavkmgbsth.jpg,,,,,,,,,,,,,,,
369,18,Memory,7,,,,,,,sunafpfpiiujzoesnqg.jpg,,,,,,,,,,,,,,,
370,18,Memory,7,,,,,,,00112931230fa.jpg,,,,,,,,,,,,,,,
371,18,Memory,7,,,,,,,00131931230fb.jpg,,,,,,,,,,,,,,,
372,18,Memory,7,,,,,,,sunakmnfgklupjijsgf.jpg,,,,,,,,,,,,,,,
373,18,Memory,7,,,,,,,00147931230fb.jpg,,,,,,,,,,,,,,,
374,18,Memory,7,,,,,,,sunaatpkocdkocwxpkb.jpg,,,,,,,,,,,,,,,
375,18,Memory,7,,,,,,,00903960620fa.jpg,,,,,,,,,,,,,,,
376,18,Memory,7,,,,,,,sunaipyohrqlwngaqif.jpg,,,,,,,,,,,,,,,
377,18,Memory,7,,,,,,,00942960627fa.jpg,,,,,,,,,,,,,,,
378,18,Memory,7,,,,,,,sunalqmfgeadpqsyzpd.jpg,,,,,,,,,,,,,,,
379,18,Memory,7,,,,,,,00925960627fa.jpg,,,,,,,,,,,,,,,
380,18,Memory,7,,,,,,,00101931230fb.jpg,,,,,,,,,,,,,,,
381,18,Memory,7,,,,,,,00772941201fa.jpg,,,,,,,,,,,,,,,
382,18,Memory,7,,,,,,,00090931230fa.jpg,,,,,,,,,,,,,,,
383,18,Memory,7,,,,,,,00648941031fa.jpg,,,,,,,,,,,,,,,
384,18,Memory,7,,,,,,,00787941205fa.jpg,,,,,,,,,,,,,,,
385,18,Memory,7,,,,,,,00839940307fa.jpg,,,,,,,,,,,,,,,
386,18,Memory,7,,,,,,,sunaaftlyfudyzuhqzf.jpg,,,,,,,,,,,,,,,
387,18,Memory,7,,,,,,,00894960620fa.jpg,,,,,,,,,,,,,,,
388,18,Memory,7,,,,,,,sunagmwxxwymwojbvgi.jpg,,,,,,,,,,,,,,,
389,18,Memory,7,,,,,,,sunaangbuylfvckqqoo.jpg,,,,,,,,,,,,,,,
390,18,Memory,7,,,,,,,sunagvxkjokqimstxpe.jpg,,,,,,,,,,,,,,,
391,18,Memory,7,,,,,,,sunaakjaacuzulqckgl.jpg,,,,,,,,,,,,,,,
392,18,Memory,7,,,,,,,sunaezuszgtxnmsxdbk.jpg,,,,,,,,,,,,,,,
393,18,Memory,7,,,,,,,00081941031fa.jpg,,,,,,,,,,,,,,,
394,18,Memory,7,,,,,,,00482940519fa.jpg,,,,,,,,,,,,,,,
395,18,Memory,7,,,,,,,sunaahedjlmtqekgyvj.jpg,,,,,,,,,,,,,,,
396,18,Memory,7,,,,,,,sunaaxjpzcnxligjtjq.jpg,,,,,,,,,,,,,,,
397,18,Memory,7,,,,,,,00574940928fa.jpg,,,,,,,,,,,,,,,
398,18,Memory,7,,,,,,,sunadfndyrtqqiasoig.jpg,,,,,,,,,,,,,,,
399,18,Memory,7,,,,,,,sunapqwnqzxlsfvgsjm.jpg,,,,,,,,,,,,,,,
