,Subject,Trial Type,Run,Cued Composite,Uncued Composite,Cued Face,Cued Place,Uncued Face,Uncued Place,Memory Image,Category,Cued Side,Cued Category,Attention Reaction Time (s),Familiarity Reaction Time (s),Familiarity Rating,Attention Level,Cue Validity,Post Invalid Cue,Pre Invalid Cue,Attention Button,Rating History,Stimulus Onset,Stimulus End,Attention Probe
0,2,Presentation,0,00589940928fa_sunacwggadqsfpovdjv.jpg,00949960627fb_sunasnqkkyhilqkxiqm.jpg,00589940928fa.jpg,sunacwggadqsfpovdjv.jpg,00949960627fb.jpg,sunasnqkkyhilqkxiqm.jpg,,,>,Face,,,,,0,,,,,,,x
1,2,Presentation,0,00154931230fa_sunaauueuhhvklldjik.jpg,00936960627fa_sunaqgjuuwvdcyiccjt.jpg,00154931230fa.jpg,sunaauueuhhvklldjik.jpg,00936960627fa.jpg,sunaqgjuuwvdcyiccjt.jpg,,,>,Face,,,,,1,,,,,,,o
2,2,Presentation,0,00898960530fa_sunamkmeblgteyggink.jpg,00970960627fa_sunbasypfgzjtomktmu.jpg,00898960530fa.jpg,sunamkmeblgteyggink.jpg,00970960627fa.jpg,sunbasypfgzjtomktmu.jpg,,,>,Face,,,,,1,,,,,,,x
3,2,Presentation,0,00071940128fa_sunaaexpnawiehinlpy.jpg,00069931230fb_sunaaeowapdkwzqpgqr.jpg,00071940128fa.jpg,sunaaexpnawiehinlpy.jpg,00069931230fb.jpg,sunaaeowapdkwzqpgqr.jpg,,,>,Face,,,,,1,,,,,,,o
4,2,Presentation,0,00895960530fa_sunamczizlzavhzhpay.jpg,00125931230fa_sunaalltyvjhbzhkmvg.jpg,00895960530fa.jpg,sunamczizlzavhzhpay.jpg,00125931230fa.jpg,sunaalltyvjhbzhkmvg.jpg,,,>,Face,,,,,1,,,,,,,o
5,2,Presentation,0,00799941205fa_sunagutjvdvnhxejerz.jpg,00800941205fb_sunagvjurcwdbixvnyi.jpg,00799941205fa.jpg,sunagutjvdvnhxejerz.jpg,00800941205fb.jpg,sunagvjurcwdbixvnyi.jpg,,,>,Face,,,,,1,,,,,,,o
6,2,Presentation,0,00146960620fb_sunaatpeezlljqaxlhj.jpg,00892960530fa_sunalntxqqadigcletd.jpg,00146960620fb.jpg,sunaatpeezlljqaxlhj.jpg,00892960530fa.jpg,sunalntxqqadigcletd.jpg,,,>,Face,,,,,1,,,,,,,o
7,2,Presentation,0,00209940128fb_sunabaergayifsgacxt.jpg,00131931230fb_sunaangbuylfvckqqoo.jpg,00209940128fb.jpg,sunabaergayifsgacxt.jpg,00131931230fb.jpg,sunaangbuylfvckqqoo.jpg,,,>,Face,,,,,1,,,,,,,o
8,2,Presentation,0,00871940307_sunajrujcsdxmfbssmc.jpg,00242940128fa_sunabcuurugvxwparpk.jpg,00871940307.jpg,sunajrujcsdxmfbssmc.jpg,00242940128fa.jpg,sunabcuurugvxwparpk.jpg,,,>,Face,,,,,1,,,,,,,o
9,2,Presentation,0,00785941205fa_sunaglqunwuycxydmyu.jpg,00149931230fa_sunaauglwmctnkxyird.jpg,00785941205fa.jpg,sunaglqunwuycxydmyu.jpg,00149931230fa.jpg,sunaauglwmctnkxyird.jpg,,,>,Face,,,,,1,,,,,,,x
10,2,Memory,0,,,,,,,00895960530fa.jpg,,,,,,,,,,,,,,,
11,2,Memory,0,,,,,,,sunaddsaeicthrfbkhe.jpg,,,,,,,,,,,,,,,
12,2,Memory,0,,,,,,,sunadqmjrhfjyuzyvdd.jpg,,,,,,,,,,,,,,,
13,2,Memory,0,,,,,,,sunaangbuylfvckqqoo.jpg,,,,,,,,,,,,,,,
14,2,Memory,0,,,,,,,sunaenwuebvlpdmntju.jpg,,,,,,,,,,,,,,,
15,2,Memory,0,,,,,,,sunaajayojuslbbnneg.jpg,,,,,,,,,,,,,,,
16,2,Memory,0,,,,,,,00742941201fa.jpg,,,,,,,,,,,,,,,
17,2,Memory,0,,,,,,,sunalntxqqadigcletd.jpg,,,,,,,,,,,,,,,
18,2,Memory,0,,,,,,,00681941121fa.jpg,,,,,,,,,,,,,,,
19,2,Memory,0,,,,,,,00970960627fa.jpg,,,,,,,,,,,,,,,
20,2,Memory,0,,,,,,,sunbagfpovqwbuexqdn.jpg,,,,,,,,,,,,,,,
21,2,Memory,0,,,,,,,sunakodkcslgqhqlgwl.jpg,,,,,,,,,,,,,,,
22,2,Memory,0,,,,,,,sunamkmeblgteyggink.jpg,,,,,,,,,,,,,,,
23,2,Memory,0,,,,,,,sunalcrtwiycqobgelp.jpg,,,,,,,,,,,,,,,
24,2,Memory,0,,,,,,,00635941031fa.jpg,,,,,,,,,,,,,,,
25,2,Memory,0,,,,,,,00874940307fa.jpg,,,,,,,,,,,,,,,
26,2,Memory,0,,,,,,,sunamczizlzavhzhpay.jpg,,,,,,,,,,,,,,,
27,2,Memory,0,,,,,,,00125931230fa.jpg,,,,,,,,,,,,,,,
28,2,Memory,0,,,,,,,sunagutjvdvnhxejerz.jpg,,,,,,,,,,,,,,,
29,2,Memory,0,,,,,,,00131931230fb.jpg,,,,,,,,,,,,,,,
30,2,Memory,0,,,,,,,00242940128fa.jpg,,,,,,,,,,,,,,,
31,2,Memory,0,,,,,,,sunaglqunwuycxydmyu.jpg,,,,,,,,,,,,,,,
32,2,Memory,0,,,,,,,00898960530fa.jpg,,,,,,,,,,,,,,,
33,2,Memory,0,,,,,,,00097931230fa.jpg,,,,,,,,,,,,,,,
34,2,Memory,0,,,,,,,00997960627fa.jpg,,,,,,,,,,,,,,,
35,2,Memory,0,,,,,,,sunbasypfgzjtomktmu.jpg,,,,,,,,,,,,,,,
36,2,Memory,0,,,,,,,00887960530.jpg,,,,,,,,,,,,,,,
37,2,Memory,0,,,,,,,00947960627fa.jpg,,,,,,,,,,,,,,,
38,2,Memory,0,,,,,,,sunacwggadqsfpovdjv.jpg,,,,,,,,,,,,,,,
39,2,Memory,0,,,,,,,sunabcuurugvxwparpk.jpg,,,,,,,,,,,,,,,
40,2,Memory,0,,,,,,,00892960530fa.jpg,,,,,,,,,,,,,,,
41,2,Memory,0,,,,,,,sunasmmcxdddtmtazwx.jpg,,,,,,,,,,,,,,,
42,2,Memory,0,,,,,,,00589940928fa.jpg,,,,,,,,,,,,,,,
43,2,Memory,0,,,,,,,sunbtpilbhhbmhmeuzq.jpg,,,,,,,,,,,,,,,
44,2,Memory,0,,,,,,,00785941205fa.jpg,,,,,,,,,,,,,,,
45,2,Memory,0,,,,,,,00799941205fa.jpg,,,,,,,,,,,,,,,
46,2,Memory,0,,,,,,,00884960530fa.jpg,,,,,,,,,,,,,,,
47,2,Memory,0,,,,,,,sunaalltyvjhbzhkmvg.jpg,,,,,,,,,,,,,,,
48,2,Memory,0,,,,,,,sunajtrfunvzdfticna.jpg,,,,,,,,,,,,,,,
49,2,Memory,0,,,,,,,00968960627fa.jpg,,,,,,,,,,,,,,,
50,2,Presentation,1,00969960627fa_sunbaoizrfijvhpnnjn.jpg,00115931230fa_sunaakmxzhuceuiryah.jpg,00969960627fa.jpg,sunbaoizrfijvhpnnjn.jpg,00115931230fa.jpg,sunaakmxzhuceuiryah.jpg,,,>,Face,,,,,1,,,,,,,o
51,2,Presentation,1,00290940422fa_sunabqowuarvqqcnipn.jpg,01002960627fb_sunbwaafjdebjzttuvq.jpg,00290940422fa.jpg,sunabqowuarvqqcnipn.jpg,01002960627fb.jpg,sunbwaafjdebjzttuvq.jpg,,,>,Face,,,,,1,,,,,,,o
52,2,Presentation,1,00828940307fa_sunahuynahneraqftyz.jpg,00878960530fa_sunakgbnzxmfohgehnu.jpg,00828940307fa.jpg,sunahuynahneraqftyz.jpg,00878960530fa.jpg,sunakgbnzxmfohgehnu.jpg,,,>,Face,,,,,0,,,,,,,x
53,2,Presentation,1,00208940128fa_sunaazzyhbvqjpmazjq.jpg,00862940307fa_sunaizgnnplsvajzhkc.jpg,00208940128fa.jpg,sunaazzyhbvqjpmazjq.jpg,00862940307fa.jpg,sunaizgnnplsvajzhkc.jpg,,,>,Face,,,,,0,,,,,,,o
54,2,Presentation,1,00266940128fb_sunabkngeblodihjvbk.jpg,00193940928fa_sunaaxjpzcnxligjtjq.jpg,00266940128fb.jpg,sunabkngeblodihjvbk.jpg,00193940928fa.jpg,sunaaxjpzcnxligjtjq.jpg,,,>,Face,,,,,1,,,,,,,x
55,2,Presentation,1,00807941205fa_sunahawfngukizslzsd.jpg,00264940128fb_sunabjzyxcjnmztdonj.jpg,00807941205fa.jpg,sunahawfngukizslzsd.jpg,00264940128fb.jpg,sunabjzyxcjnmztdonj.jpg,,,>,Face,,,,,1,,,,,,,o
56,2,Presentation,1,00080931230fb_sunaafjszryxyavjzln.jpg,00564941031fa_sunacsaovnjezqwbykf.jpg,00080931230fb.jpg,sunaafjszryxyavjzln.jpg,00564941031fa.jpg,sunacsaovnjezqwbykf.jpg,,,>,Face,,,,,1,,,,,,,o
57,2,Presentation,1,00926960627Fa_sunapqwoeotxshkukbh.jpg,00805941205fa_sunagwzdbtlixdhgolm.jpg,00926960627Fa.jpg,sunapqwoeotxshkukbh.jpg,00805941205fa.jpg,sunagwzdbtlixdhgolm.jpg,,,>,Face,,,,,1,,,,,,,x
58,2,Presentation,1,00630940928fa_sunaczwgyukesaajxnx.jpg,00138931230fa_sunaapfaivxqoynnwwp.jpg,00630940928fa.jpg,sunaczwgyukesaajxnx.jpg,00138931230fa.jpg,sunaapfaivxqoynnwwp.jpg,,,>,Face,,,,,1,,,,,,,o
59,2,Presentation,1,00306940422fa_sunabueyoajufbkraki.jpg,00144931230fb_sunaathajvxrgptwhoj.jpg,00306940422fa.jpg,sunabueyoajufbkraki.jpg,00144931230fb.jpg,sunaathajvxrgptwhoj.jpg,,,>,Face,,,,,1,,,,,,,o
60,2,Memory,1,,,,,,,00854940307fa.jpg,,,,,,,,,,,,,,,
61,2,Memory,1,,,,,,,00925960627fa.jpg,,,,,,,,,,,,,,,
62,2,Memory,1,,,,,,,sunanainkqdvktzoxyl.jpg,,,,,,,,,,,,,,,
63,2,Memory,1,,,,,,,sunaafjszryxyavjzln.jpg,,,,,,,,,,,,,,,
64,2,Memory,1,,,,,,,sunajwqkfsykceonyig.jpg,,,,,,,,,,,,,,,
65,2,Memory,1,,,,,,,00264940128fb.jpg,,,,,,,,,,,,,,,
66,2,Memory,1,,,,,,,01002960627fb.jpg,,,,,,,,,,,,,,,
67,2,Memory,1,,,,,,,sunalkiibhqpxfamlll.jpg,,,,,,,,,,,,,,,
68,2,Memory,1,,,,,,,00805941205fa.jpg,,,,,,,,,,,,,,,
69,2,Memory,1,,,,,,,00313940422fa.jpg,,,,,,,,,,,,,,,
70,2,Memory,1,,,,,,,sunapqwnqzxlsfvgsjm.jpg,,,,,,,,,,,,,,,
71,2,Memory,1,,,,,,,00193940928fa.jpg,,,,,,,,,,,,,,,
72,2,Memory,1,,,,,,,sunadakkdovnuzlycvp.jpg,,,,,,,,,,,,,,,
73,2,Memory,1,,,,,,,sunaaxjpzcnxligjtjq.jpg,,,,,,,,,,,,,,,
74,2,Memory,1,,,,,,,sunaiwduelojtwaqeyh.jpg,,,,,,,,,,,,,,,
75,2,Memory,1,,,,,,,sunaffgsyyvoqdlkmnk.jpg,,,,,,,,,,,,,,,
76,2,Memory,1,,,,,,,00878960530fa.jpg,,,,,,,,,,,,,,,
77,2,Memory,1,,,,,,,00969960627fa.jpg,,,,,,,,,,,,,,,
78,2,Memory,1,,,,,,,00730960620fa.jpg,,,,,,,,,,,,,,,
79,2,Memory,1,,,,,,,00903960620fa.jpg,,,,,,,,,,,,,,,
80,2,Memory,1,,,,,,,sunabqowuarvqqcnipn.jpg,,,,,,,,,,,,,,,
81,2,Memory,1,,,,,,,sunaekgzpfilgjxpeyq.jpg,,,,,,,,,,,,,,,
82,2,Memory,1,,,,,,,sunagwzdbtlixdhgolm.jpg,,,,,,,,,,,,,,,
83,2,Memory,1,,,,,,,00988960627fa.jpg,,,,,,,,,,,,,,,
84,2,Memory,1,,,,,,,00630940928fa.jpg,,,,,,,,,,,,,,,
85,2,Memory,1,,,,,,,sunaczwgyukesaajxnx.jpg,,,,,,,,,,,,,,,
86,2,Memory,1,,,,,,,sunbaoizrfijvhpnnjn.jpg,,,,,,,,,,,,,,,
87,2,Memory,1,,,,,,,sunabwjvmoaddlyxfjr.jpg,,,,,,,,,,,,,,,
88,2,Memory,1,,,,,,,00080931230fb.jpg,,,,,,,,,,,,,,,
89,2,Memory,1,,,,,,,00876960620fa.jpg,,,,,,,,,,,,,,,
90,2,Memory,1,,,,,,,sunakgbnzxmfohgehnu.jpg,,,,,,,,,,,,,,,
91,2,Memory,1,,,,,,,sunaazzyhbvqjpmazjq.jpg,,,,,,,,,,,,,,,
92,2,Memory,1,,,,,,,00891960530fa.jpg,,,,,,,,,,,,,,,
93,2,Memory,1,,,,,,,sunbmaiocftdtvnzgap.jpg,,,,,,,,,,,,,,,
94,2,Memory,1,,,,,,,sunabjzyxcjnmztdonj.jpg,,,,,,,,,,,,,,,
95,2,Memory,1,,,,,,,00208940128fa.jpg,,,,,,,,,,,,,,,
96,2,Memory,1,,,,,,,sunbwaafjdebjzttuvq.jpg,,,,,,,,,,,,,,,
97,2,Memory,1,,,,,,,00754941201fa.jpg,,,,,,,,,,,,,,,
98,2,Memory,1,,,,,,,00630941031fa.jpg,,,,,,,,,,,,,,,
99,2,Memory,1,,,,,,,00290940422fa.jpg,,,,,,,,,,,,,,,
100,2,Presentation,2,00562941031fa_sunacjnahdmqfnjfwqx.jpg,00915960620fa_sunapileznnbbmrwoei.jpg,00562941031fa.jpg,sunacjnahdmqfnjfwqx.jpg,00915960620fa.jpg,sunapileznnbbmrwoei.jpg,,,<,Place,,,,,1,,,,,,,x
101,2,Presentation,2,00705941205fa_sunadtlxenqqxsyjvix.jpg,00905960530fa_sunanmoqeyprjjjfxjt.jpg,00705941205fa.jpg,sunadtlxenqqxsyjvix.jpg,00905960530fa.jpg,sunanmoqeyprjjjfxjt.jpg,,,<,Place,,,,,1,,,,,,,x
102,2,Presentation,2,00108960530fa_sunaajtnvzzpsjdzres.jpg,00838940307fa_sunaiozxhxgtfrmoagh.jpg,00108960530fa.jpg,sunaajtnvzzpsjdzres.jpg,00838940307fa.jpg,sunaiozxhxgtfrmoagh.jpg,,,<,Place,,,,,0,,,,,,,x
103,2,Presentation,2,00133931230fa_sunaanlwnpqndclffxt.jpg,00089931230fa_sunaagcpoejbuzyvddd.jpg,00133931230fa.jpg,sunaanlwnpqndclffxt.jpg,00089931230fa.jpg,sunaagcpoejbuzyvddd.jpg,,,<,Place,,,,,1,,,,,,,o
104,2,Presentation,2,00505960627fa_sunabzuqsrgcsonqlkz.jpg,00841940307fa_sunaisiwfgppimtnmxl.jpg,00505960627fa.jpg,sunabzuqsrgcsonqlkz.jpg,00841940307fa.jpg,sunaisiwfgppimtnmxl.jpg,,,<,Place,,,,,1,,,,,,,x
105,2,Presentation,2,00796941205fa_sunaguchqqnrtodtezq.jpg,00648941031fa_sunadfndyrtqqiasoig.jpg,00796941205fa.jpg,sunaguchqqnrtodtezq.jpg,00648941031fa.jpg,sunadfndyrtqqiasoig.jpg,,,<,Place,,,,,1,,,,,,,o
106,2,Presentation,2,00140931230fb_sunaapllqyqlykszopd.jpg,00662941121fa_sunadkazmlajmohnwfl.jpg,00140931230fb.jpg,sunaapllqyqlykszopd.jpg,00662941121fa.jpg,sunadkazmlajmohnwfl.jpg,,,<,Place,,,,,1,,,,,,,x
107,2,Presentation,2,01010960627fa_suncnkvbhypnivcohyx.jpg,00851940307fa_sunaivflshbyfrfzhqb.jpg,01010960627fa.jpg,suncnkvbhypnivcohyx.jpg,00851940307fa.jpg,sunaivflshbyfrfzhqb.jpg,,,<,Place,,,,,1,,,,,,,o
108,2,Presentation,2,00720960620fa_sunaecpkgfewqqreqwe.jpg,00990960627fa_sunbpflsdaxnddnwcqi.jpg,00720960620fa.jpg,sunaecpkgfewqqreqwe.jpg,00990960627fa.jpg,sunbpflsdaxnddnwcqi.jpg,,,<,Place,,,,,1,,,,,,,x
109,2,Presentation,2,00267940128fb_sunablfqiwfqomjarht.jpg,00092931230fa_sunaaheqzstzxuadglu.jpg,00267940128fb.jpg,sunablfqiwfqomjarht.jpg,00092931230fa.jpg,sunaaheqzstzxuadglu.jpg,,,<,Place,,,,,1,,,,,,,x
110,2,Memory,2,,,,,,,sunaajtnvzzpsjdzres.jpg,,,,,,,,,,,,,,,
111,2,Memory,2,,,,,,,00063931230fa.jpg,,,,,,,,,,,,,,,
112,2,Memory,2,,,,,,,sunapileznnbbmrwoei.jpg,,,,,,,,,,,,,,,
113,2,Memory,2,,,,,,,00915960620fa.jpg,,,,,,,,,,,,,,,
114,2,Memory,2,,,,,,,00108960530fa.jpg,,,,,,,,,,,,,,,
115,2,Memory,2,,,,,,,sunavspxmxubqaeidjt.jpg,,,,,,,,,,,,,,,
116,2,Memory,2,,,,,,,sunaazezcsunmhttzxz.jpg,,,,,,,,,,,,,,,
117,2,Memory,2,,,,,,,00762941201fa.jpg,,,,,,,,,,,,,,,
118,2,Memory,2,,,,,,,00198940128fb.jpg,,,,,,,,,,,,,,,
119,2,Memory,2,,,,,,,sunadkazmlajmohnwfl.jpg,,,,,,,,,,,,,,,
120,2,Memory,2,,,,,,,00796941205fa.jpg,,,,,,,,,,,,,,,
121,2,Memory,2,,,,,,,00922960627fa.jpg,,,,,,,,,,,,,,,
122,2,Memory,2,,,,,,,sunaafvitpexrpvumsa.jpg,,,,,,,,,,,,,,,
123,2,Memory,2,,,,,,,00082931230fa.jpg,,,,,,,,,,,,,,,
124,2,Memory,2,,,,,,,00958960627fa.jpg,,,,,,,,,,,,,,,
125,2,Memory,2,,,,,,,sunaafynehyrzpsoaml.jpg,,,,,,,,,,,,,,,
126,2,Memory,2,,,,,,,00184940128fa.jpg,,,,,,,,,,,,,,,
127,2,Memory,2,,,,,,,sunaivflshbyfrfzhqb.jpg,,,,,,,,,,,,,,,
128,2,Memory,2,,,,,,,00851940307fa.jpg,,,,,,,,,,,,,,,
129,2,Memory,2,,,,,,,sunapqkyghktgtosuuk.jpg,,,,,,,,,,,,,,,
130,2,Memory,2,,,,,,,00086931230fa.jpg,,,,,,,,,,,,,,,
131,2,Memory,2,,,,,,,sunaaheqzstzxuadglu.jpg,,,,,,,,,,,,,,,
132,2,Memory,2,,,,,,,00720960620fa.jpg,,,,,,,,,,,,,,,
133,2,Memory,2,,,,,,,01010960627fa.jpg,,,,,,,,,,,,,,,
134,2,Memory,2,,,,,,,sunadfndyrtqqiasoig.jpg,,,,,,,,,,,,,,,
135,2,Memory,2,,,,,,,sunaecpkgfewqqreqwe.jpg,,,,,,,,,,,,,,,
136,2,Memory,2,,,,,,,00648941031fa.jpg,,,,,,,,,,,,,,,
137,2,Memory,2,,,,,,,00140931230fb.jpg,,,,,,,,,,,,,,,
138,2,Memory,2,,,,,,,00787941205fa.jpg,,,,,,,,,,,,,,,
139,2,Memory,2,,,,,,,00866940307fa.jpg,,,,,,,,,,,,,,,
140,2,Memory,2,,,,,,,suncnkvbhypnivcohyx.jpg,,,,,,,,,,,,,,,
141,2,Memory,2,,,,,,,00092931230fa.jpg,,,,,,,,,,,,,,,
142,2,Memory,2,,,,,,,00662941121fa.jpg,,,,,,,,,,,,,,,
143,2,Memory,2,,,,,,,sunaavtbadenwnzeutj.jpg,,,,,,,,,,,,,,,
144,2,Memory,2,,,,,,,sunagmwxxwymwojbvgi.jpg,,,,,,,,,,,,,,,
145,2,Memory,2,,,,,,,sunaapllqyqlykszopd.jpg,,,,,,,,,,,,,,,
146,2,Memory,2,,,,,,,sunaguchqqnrtodtezq.jpg,,,,,,,,,,,,,,,
147,2,Memory,2,,,,,,,sunajbwkywmsqkldfml.jpg,,,,,,,,,,,,,,,
148,2,Memory,2,,,,,,,sunafgzgbisbopcyslr.jpg,,,,,,,,,,,,,,,
149,2,Memory,2,,,,,,,sunaaelyvurpntclgau.jpg,,,,,,,,,,,,,,,
150,2,Presentation,3,00776941205fa_sunafxokyavhgptyfye.jpg,00812941205fa_sunahgtbwgsmtqeodwh.jpg,00776941205fa.jpg,sunafxokyavhgptyfye.jpg,00812941205fa.jpg,sunahgtbwgsmtqeodwh.jpg,,,>,Place,,,,,1,,,,,,,o
151,2,Presentation,3,00860940307fa_sunaizeyhvjzknwjudw.jpg,00598940928fa_sunacxeheuiigkcgquf.jpg,00860940307fa.jpg,sunaizeyhvjzknwjudw.jpg,00598940928fa.jpg,sunacxeheuiigkcgquf.jpg,,,>,Place,,,,,1,,,,,,,x
152,2,Presentation,3,00977960627fa_sunbbxkanhzjgbwyxqs.jpg,00096931230fa_sunaaiqiqcggrskoqgy.jpg,00977960627fa.jpg,sunbbxkanhzjgbwyxqs.jpg,00096931230fa.jpg,sunaaiqiqcggrskoqgy.jpg,,,>,Place,,,,,1,,,,,,,x
153,2,Presentation,3,00123931230fb_sunaalcrrdbjgdztbiz.jpg,00944960627fa_sunasbbntuiheekqyaq.jpg,00123931230fb.jpg,sunaalcrrdbjgdztbiz.jpg,00944960627fa.jpg,sunasbbntuiheekqyaq.jpg,,,>,Place,,,,,1,,,,,,,o
154,2,Presentation,3,00725941201fa_sunaefgzwiramypjvtd.jpg,00834940307fa_sunaibnpvhkdpdnzcnz.jpg,00725941201fa.jpg,sunaefgzwiramypjvtd.jpg,00834940307fa.jpg,sunaibnpvhkdpdnzcnz.jpg,,,>,Place,,,,,1,,,,,,,x
155,2,Presentation,3,00158931230fb_sunaavchcbptaerhcfy.jpg,00529940519fa_sunacbeefkxpymwevpk.jpg,00158931230fb.jpg,sunaavchcbptaerhcfy.jpg,00529940519fa.jpg,sunacbeefkxpymwevpk.jpg,,,>,Place,,,,,1,,,,,,,o
156,2,Presentation,3,00728941205fa_sunaejnvnpltdmhbcsi.jpg,00768941205fa_sunafkmnlytenlsywia.jpg,00728941205fa.jpg,sunaejnvnpltdmhbcsi.jpg,00768941205fa.jpg,sunafkmnlytenlsywia.jpg,,,>,Place,,,,,0,,,,,,,x
157,2,Presentation,3,00971960627fa_sunbbegcweqnetpdlrh.jpg,00952960627fa_sunathzzbcwjykldrem.jpg,00971960627fa.jpg,sunbbegcweqnetpdlrh.jpg,00952960627fa.jpg,sunathzzbcwjykldrem.jpg,,,>,Place,,,,,0,,,,,,,x
158,2,Presentation,3,00819940307fa_sunahqldjibofgsfdgb.jpg,00822940307fa_sunahqrxievfeusiqlt.jpg,00819940307fa.jpg,sunahqldjibofgsfdgb.jpg,00822940307fa.jpg,sunahqrxievfeusiqlt.jpg,,,>,Place,,,,,1,,,,,,,x
159,2,Presentation,3,00316940422fa_sunabxmguapjekttvwm.jpg,01000960627fa_sunbvzmgrdvaakxusbu.jpg,00316940422fa.jpg,sunabxmguapjekttvwm.jpg,01000960627fa.jpg,sunbvzmgrdvaakxusbu.jpg,,,>,Place,,,,,1,,,,,,,x
160,2,Memory,3,,,,,,,00819940307fa.jpg,,,,,,,,,,,,,,,
161,2,Memory,3,,,,,,,sunaampvucecsfbdafn.jpg,,,,,,,,,,,,,,,
162,2,Memory,3,,,,,,,sunabyfxcxhdebvdyfd.jpg,,,,,,,,,,,,,,,
163,2,Memory,3,,,,,,,sunahqldjibofgsfdgb.jpg,,,,,,,,,,,,,,,
164,2,Memory,3,,,,,,,00977960627fa.jpg,,,,,,,,,,,,,,,
165,2,Memory,3,,,,,,,sunadbdqzigzwipuipr.jpg,,,,,,,,,,,,,,,
166,2,Memory,3,,,,,,,00123931230fb.jpg,,,,,,,,,,,,,,,
167,2,Memory,3,,,,,,,00816941205fa.jpg,,,,,,,,,,,,,,,
168,2,Memory,3,,,,,,,sunbwtlihsuptkrckid.jpg,,,,,,,,,,,,,,,
169,2,Memory,3,,,,,,,00719941201fa.jpg,,,,,,,,,,,,,,,
170,2,Memory,3,,,,,,,00529940519fa.jpg,,,,,,,,,,,,,,,
171,2,Memory,3,,,,,,,sunabrwnslxalcohfre.jpg,,,,,,,,,,,,,,,
172,2,Memory,3,,,,,,,00952960627fa.jpg,,,,,,,,,,,,,,,
173,2,Memory,3,,,,,,,00822940307fa.jpg,,,,,,,,,,,,,,,
174,2,Memory,3,,,,,,,00096931230fa.jpg,,,,,,,,,,,,,,,
175,2,Memory,3,,,,,,,00296940422fa.jpg,,,,,,,,,,,,,,,
176,2,Memory,3,,,,,,,sunadvithllcgmfxsrn.jpg,,,,,,,,,,,,,,,
177,2,Memory,3,,,,,,,00773960620fa.jpg,,,,,,,,,,,,,,,
178,2,Memory,3,,,,,,,sunahmhrncocyhsjpxk.jpg,,,,,,,,,,,,,,,
179,2,Memory,3,,,,,,,00973960627fa.jpg,,,,,,,,,,,,,,,
180,2,Memory,3,,,,,,,01004960627fa.jpg,,,,,,,,,,,,,,,
181,2,Memory,3,,,,,,,sunafvsxtzaizojicxx.jpg,,,,,,,,,,,,,,,
182,2,Memory,3,,,,,,,sunacxeheuiigkcgquf.jpg,,,,,,,,,,,,,,,
183,2,Memory,3,,,,,,,00860940307fa.jpg,,,,,,,,,,,,,,,
184,2,Memory,3,,,,,,,sunacbeefkxpymwevpk.jpg,,,,,,,,,,,,,,,
185,2,Memory,3,,,,,,,00889960530fa.jpg,,,,,,,,,,,,,,,
186,2,Memory,3,,,,,,,00631940928fa.jpg,,,,,,,,,,,,,,,
187,2,Memory,3,,,,,,,sunahqrxievfeusiqlt.jpg,,,,,,,,,,,,,,,
188,2,Memory,3,,,,,,,sunaaiqiqcggrskoqgy.jpg,,,,,,,,,,,,,,,
189,2,Memory,3,,,,,,,00482940519fa.jpg,,,,,,,,,,,,,,,
190,2,Memory,3,,,,,,,00127931230fa.jpg,,,,,,,,,,,,,,,
191,2,Memory,3,,,,,,,sunbbgtoeuzierkkajt.jpg,,,,,,,,,,,,,,,
192,2,Memory,3,,,,,,,sunaizeyhvjzknwjudw.jpg,,,,,,,,,,,,,,,
193,2,Memory,3,,,,,,,00725941201fa.jpg,,,,,,,,,,,,,,,
194,2,Memory,3,,,,,,,00598940928fa.jpg,,,,,,,,,,,,,,,
195,2,Memory,3,,,,,,,sunaalcrrdbjgdztbiz.jpg,,,,,,,,,,,,,,,
196,2,Memory,3,,,,,,,sunbbxkanhzjgbwyxqs.jpg,,,,,,,,,,,,,,,
197,2,Memory,3,,,,,,,sunaefgzwiramypjvtd.jpg,,,,,,,,,,,,,,,
198,2,Memory,3,,,,,,,sunathzzbcwjykldrem.jpg,,,,,,,,,,,,,,,
199,2,Memory,3,,,,,,,sunaletopenvvozhpxc.jpg,,,,,,,,,,,,,,,
200,2,Presentation,4,00939960627fa_sunarceibpcyacbmfga.jpg,00132931230fb_sunaanjcbzdvtvblsdy.jpg,00939960627fa.jpg,sunarceibpcyacbmfga.jpg,00132931230fb.jpg,sunaanjcbzdvtvblsdy.jpg,,,<,Place,,,,,0,,,,,,,o
201,2,Presentation,4,01009960627fa_sunbxzweleltykebgan.jpg,00801941205fa_sunagvprlbprarvgdvj.jpg,01009960627fa.jpg,sunbxzweleltykebgan.jpg,00801941205fa.jpg,sunagvprlbprarvgdvj.jpg,,,<,Place,,,,,1,,,,,,,o
202,2,Presentation,4,00540940519fa_sunacdnquypmsshhsbk.jpg,00061931230fb_sunaaekxzjzrfgtkwjf.jpg,00540940519fa.jpg,sunacdnquypmsshhsbk.jpg,00061931230fb.jpg,sunaaekxzjzrfgtkwjf.jpg,,,<,Place,,,,,1,,,,,,,x
203,2,Presentation,4,00783941205fa_sunagjeesomrwjsfqie.jpg,00745941205fa_sunaeouogqolxvggaoq.jpg,00783941205fa.jpg,sunagjeesomrwjsfqie.jpg,00745941205fa.jpg,sunaeouogqolxvggaoq.jpg,,,<,Place,,,,,0,,,,,,,x
204,2,Presentation,4,00959960627fa_sunavxokzybtomhbmvm.jpg,00770941201fa_sunaflojskatpeqyzqp.jpg,00959960627fa.jpg,sunavxokzybtomhbmvm.jpg,00770941201fa.jpg,sunaflojskatpeqyzqp.jpg,,,<,Place,,,,,1,,,,,,,x
205,2,Presentation,4,00858940307fa_sunaixpqndlwhwjtjek.jpg,00911960530fa_sunaooaqzputrowwbsw.jpg,00858940307fa.jpg,sunaixpqndlwhwjtjek.jpg,00911960530fa.jpg,sunaooaqzputrowwbsw.jpg,,,<,Place,,,,,1,,,,,,,x
206,2,Presentation,4,00877960530fa_sunajxpkuhbizeveguy.jpg,00906960530fa_sunantryfbloeaomfta.jpg,00877960530fa.jpg,sunajxpkuhbizeveguy.jpg,00906960530fa.jpg,sunantryfbloeaomfta.jpg,,,<,Place,,,,,1,,,,,,,o
207,2,Presentation,4,00933960627fa_sunapwjkcxdaeqehfql.jpg,00675941121fa_sunadoxcchtmsxewsau.jpg,00933960627fa.jpg,sunapwjkcxdaeqehfql.jpg,00675941121fa.jpg,sunadoxcchtmsxewsau.jpg,,,<,Place,,,,,1,,,,,,,o
208,2,Presentation,4,00779941205fa_sunagdzlvkqtpnfxfcg.jpg,00790941205fa_sunagpjzsbltchlwvou.jpg,00779941205fa.jpg,sunagdzlvkqtpnfxfcg.jpg,00790941205fa.jpg,sunagpjzsbltchlwvou.jpg,,,<,Place,,,,,1,,,,,,,o
209,2,Presentation,4,00782941205fa_sunagfvluwixdsozaql.jpg,00752960620fa_sunafbwnojpqeyzssoe.jpg,00782941205fa.jpg,sunagfvluwixdsozaql.jpg,00752960620fa.jpg,sunafbwnojpqeyzssoe.jpg,,,<,Place,,,,,1,,,,,,,o
210,2,Memory,4,,,,,,,sunaaekxzjzrfgtkwjf.jpg,,,,,,,,,,,,,,,
211,2,Memory,4,,,,,,,00877960530fa.jpg,,,,,,,,,,,,,,,
212,2,Memory,4,,,,,,,00789960620fa.jpg,,,,,,,,,,,,,,,
213,2,Memory,4,,,,,,,sunafbwnojpqeyzssoe.jpg,,,,,,,,,,,,,,,
214,2,Memory,4,,,,,,,00752960620fa.jpg,,,,,,,,,,,,,,,
215,2,Memory,4,,,,,,,00770941201fa.jpg,,,,,,,,,,,,,,,
216,2,Memory,4,,,,,,,sunaajuzribjrizdshh.jpg,,,,,,,,,,,,,,,
217,2,Memory,4,,,,,,,sunaixpqndlwhwjtjek.jpg,,,,,,,,,,,,,,,
218,2,Memory,4,,,,,,,sunabxsuqbleluwczoy.jpg,,,,,,,,,,,,,,,
219,2,Memory,4,,,,,,,00782941205fa.jpg,,,,,,,,,,,,,,,
220,2,Memory,4,,,,,,,sunapwjkcxdaeqehfql.jpg,,,,,,,,,,,,,,,
221,2,Memory,4,,,,,,,01009960627fa.jpg,,,,,,,,,,,,,,,
222,2,Memory,4,,,,,,,00933960627fa.jpg,,,,,,,,,,,,,,,
223,2,Memory,4,,,,,,,sunaooaqzputrowwbsw.jpg,,,,,,,,,,,,,,,
224,2,Memory,4,,,,,,,00227940128fa.jpg,,,,,,,,,,,,,,,
225,2,Memory,4,,,,,,,00061931230fb.jpg,,,,,,,,,,,,,,,
226,2,Memory,4,,,,,,,00911960530fa.jpg,,,,,,,,,,,,,,,
227,2,Memory,4,,,,,,,sunahedfrhtcwpneund.jpg,,,,,,,,,,,,,,,
228,2,Memory,4,,,,,,,00955960627fb.jpg,,,,,,,,,,,,,,,
229,2,Memory,4,,,,,,,sunaahedjlmtqekgyvj.jpg,,,,,,,,,,,,,,,
230,2,Memory,4,,,,,,,sunabckqabszusgcykj.jpg,,,,,,,,,,,,,,,
231,2,Memory,4,,,,,,,sunagpancjmxqfazssf.jpg,,,,,,,,,,,,,,,
232,2,Memory,4,,,,,,,00811960530fa.jpg,,,,,,,,,,,,,,,
233,2,Memory,4,,,,,,,sunaflojskatpeqyzqp.jpg,,,,,,,,,,,,,,,
234,2,Memory,4,,,,,,,00090931230fa.jpg,,,,,,,,,,,,,,,
235,2,Memory,4,,,,,,,sunauburywlkjszngcq.jpg,,,,,,,,,,,,,,,
236,2,Memory,4,,,,,,,sunantryfbloeaomfta.jpg,,,,,,,,,,,,,,,
237,2,Memory,4,,,,,,,00153931230fa.jpg,,,,,,,,,,,,,,,
238,2,Memory,4,,,,,,,sunbxzweleltykebgan.jpg,,,,,,,,,,,,,,,
239,2,Memory,4,,,,,,,sunagfvluwixdsozaql.jpg,,,,,,,,,,,,,,,
240,2,Memory,4,,,,,,,00858940307fa.jpg,,,,,,,,,,,,,,,
241,2,Memory,4,,,,,,,sunaauhozyxzeeqstxi.jpg,,,,,,,,,,,,,,,
242,2,Memory,4,,,,,,,00906960530fa.jpg,,,,,,,,,,,,,,,
243,2,Memory,4,,,,,,,sunajxpkuhbizeveguy.jpg,,,,,,,,,,,,,,,
244,2,Memory,4,,,,,,,00109931230fa.jpg,,,,,,,,,,,,,,,
245,2,Memory,4,,,,,,,00481940519fa.jpg,,,,,,,,,,,,,,,
246,2,Memory,4,,,,,,,00777941205fa.jpg,,,,,,,,,,,,,,,
247,2,Memory,4,,,,,,,00650941031fa.jpg,,,,,,,,,,,,,,,
248,2,Memory,4,,,,,,,sunadikxpvqeabxrvvc.jpg,,,,,,,,,,,,,,,
249,2,Memory,4,,,,,,,sunagcinxkccdtrjmlv.jpg,,,,,,,,,,,,,,,
250,2,Presentation,5,00145931230fb_sunaatjesvdupctftmn.jpg,00245940128fa_sunabeyhmxodahoieyk.jpg,00145931230fb.jpg,sunaatjesvdupctftmn.jpg,00245940128fa.jpg,sunabeyhmxodahoieyk.jpg,,,>,Place,,,,,1,,,,,,,x
251,2,Presentation,5,00741941201fa_sunaemcowdozyphwknd.jpg,00825940307fa_sunahrltmuwbiehihpe.jpg,00741941201fa.jpg,sunaemcowdozyphwknd.jpg,00825940307fa.jpg,sunahrltmuwbiehihpe.jpg,,,>,Place,,,,,1,,,,,,,o
252,2,Presentation,5,00727941205fa_sunaeisnjeetzmkbuad.jpg,00827940307fa_sunahtfxgsrmkiulnwk.jpg,00727941205fa.jpg,sunaeisnjeetzmkbuad.jpg,00827940307fa.jpg,sunahtfxgsrmkiulnwk.jpg,,,>,Place,,,,,1,,,,,,,o
253,2,Presentation,5,00775941205fa_sunafvwfsmqkjrutjta.jpg,00062931230fb_sunaaelotvjgibjtjhs.jpg,00775941205fa.jpg,sunafvwfsmqkjrutjta.jpg,00062931230fb.jpg,sunaaelotvjgibjtjhs.jpg,,,>,Place,,,,,1,,,,,,,o
254,2,Presentation,5,00882960530fa_sunaknlirqjqiwbbeeg.jpg,00950960627fa_sunasrjlmglmjzbmqxb.jpg,00882960530fa.jpg,sunaknlirqjqiwbbeeg.jpg,00950960627fa.jpg,sunasrjlmglmjzbmqxb.jpg,,,>,Place,,,,,1,,,,,,,x
255,2,Presentation,5,00982960627fa_sunbesrwkdsffeogeqq.jpg,00694941121fa_sunadrmfzmstgdjdcod.jpg,00982960627fa.jpg,sunbesrwkdsffeogeqq.jpg,00694941121fa.jpg,sunadrmfzmstgdjdcod.jpg,,,>,Place,,,,,1,,,,,,,x
256,2,Presentation,5,00999960627fa_sunbvbrvgbpanfrawft.jpg,00935960627fa_sunaqbmgkgqucajzrkp.jpg,00999960627fa.jpg,sunbvbrvgbpanfrawft.jpg,00935960627fa.jpg,sunaqbmgkgqucajzrkp.jpg,,,>,Place,,,,,1,,,,,,,o
257,2,Presentation,5,00792941205fa_sunagsiwrmuixqgdimb.jpg,00810941205fa_sunahctntqrunhdxhtb.jpg,00792941205fa.jpg,sunagsiwrmuixqgdimb.jpg,00810941205fa.jpg,sunahctntqrunhdxhtb.jpg,,,>,Place,,,,,1,,,,,,,o
258,2,Presentation,5,00548940519fa_sunacerqowiaeoqkmsq.jpg,00162931230fb_sunaavjinpnkappuonm.jpg,00548940519fa.jpg,sunacerqowiaeoqkmsq.jpg,00162931230fb.jpg,sunaavjinpnkappuonm.jpg,,,>,Place,,,,,1,,,,,,,x
259,2,Presentation,5,00210940128fb_sunabanoxjtqxamkucc.jpg,00836940307fa_sunainqelldeebvxtcz.jpg,00210940128fb.jpg,sunabanoxjtqxamkucc.jpg,00836940307fa.jpg,sunainqelldeebvxtcz.jpg,,,>,Place,,,,,1,,,,,,,o
260,2,Memory,5,,,,,,,sunacvzhvcksnwqcqbw.jpg,,,,,,,,,,,,,,,
261,2,Memory,5,,,,,,,sunaqbmgkgqucajzrkp.jpg,,,,,,,,,,,,,,,
262,2,Memory,5,,,,,,,00210940128fb.jpg,,,,,,,,,,,,,,,
263,2,Memory,5,,,,,,,sunaknlirqjqiwbbeeg.jpg,,,,,,,,,,,,,,,
264,2,Memory,5,,,,,,,sunabanoxjtqxamkucc.jpg,,,,,,,,,,,,,,,
265,2,Memory,5,,,,,,,00775941205fa.jpg,,,,,,,,,,,,,,,
266,2,Memory,5,,,,,,,00935960627fa.jpg,,,,,,,,,,,,,,,
267,2,Memory,5,,,,,,,00882960530fa.jpg,,,,,,,,,,,,,,,
268,2,Memory,5,,,,,,,00818940307fa.jpg,,,,,,,,,,,,,,,
269,2,Memory,5,,,,,,,00263940128fb.jpg,,,,,,,,,,,,,,,
270,2,Memory,5,,,,,,,sunajjxttslobudoqbv.jpg,,,,,,,,,,,,,,,
271,2,Memory,5,,,,,,,00839940307fa.jpg,,,,,,,,,,,,,,,
272,2,Memory,5,,,,,,,sunasrjlmglmjzbmqxb.jpg,,,,,,,,,,,,,,,
273,2,Memory,5,,,,,,,00950960627fa.jpg,,,,,,,,,,,,,,,
274,2,Memory,5,,,,,,,sunahpblecxtmuzkmxb.jpg,,,,,,,,,,,,,,,
275,2,Memory,5,,,,,,,sunacerqowiaeoqkmsq.jpg,,,,,,,,,,,,,,,
276,2,Memory,5,,,,,,,00780960530fa.jpg,,,,,,,,,,,,,,,
277,2,Memory,5,,,,,,,sunagetqixeypsysbpn.jpg,,,,,,,,,,,,,,,
278,2,Memory,5,,,,,,,sunahtfxgsrmkiulnwk.jpg,,,,,,,,,,,,,,,
279,2,Memory,5,,,,,,,sunadcphrizvfpljiqt.jpg,,,,,,,,,,,,,,,
280,2,Memory,5,,,,,,,sunabjuovqvyfuzvqwt.jpg,,,,,,,,,,,,,,,
281,2,Memory,5,,,,,,,sunbondbduabvijnmch.jpg,,,,,,,,,,,,,,,
282,2,Memory,5,,,,,,,sunabeyhmxodahoieyk.jpg,,,,,,,,,,,,,,,
283,2,Memory,5,,,,,,,00245940128fa.jpg,,,,,,,,,,,,,,,
284,2,Memory,5,,,,,,,00913960530fa.jpg,,,,,,,,,,,,,,,
285,2,Memory,5,,,,,,,00634940928fa.jpg,,,,,,,,,,,,,,,
286,2,Memory,5,,,,,,,00989960627fa.jpg,,,,,,,,,,,,,,,
287,2,Memory,5,,,,,,,sunafvwfsmqkjrutjta.jpg,,,,,,,,,,,,,,,
288,2,Memory,5,,,,,,,00810941205fa.jpg,,,,,,,,,,,,,,,
289,2,Memory,5,,,,,,,00827940307fa.jpg,,,,,,,,,,,,,,,
290,2,Memory,5,,,,,,,00581940928fa.jpg,,,,,,,,,,,,,,,
291,2,Memory,5,,,,,,,00548940519fa.jpg,,,,,,,,,,,,,,,
292,2,Memory,5,,,,,,,00868960307fa.jpg,,,,,,,,,,,,,,,
293,2,Memory,5,,,,,,,sunahctntqrunhdxhtb.jpg,,,,,,,,,,,,,,,
294,2,Memory,5,,,,,,,sunagwswhkvnsmuszlz.jpg,,,,,,,,,,,,,,,
295,2,Memory,5,,,,,,,sunbesrwkdsffeogeqq.jpg,,,,,,,,,,,,,,,
296,2,Memory,5,,,,,,,sunaooffzffbhcpirmm.jpg,,,,,,,,,,,,,,,
297,2,Memory,5,,,,,,,00804960530fa.jpg,,,,,,,,,,,,,,,
298,2,Memory,5,,,,,,,00982960627fa.jpg,,,,,,,,,,,,,,,
299,2,Memory,5,,,,,,,sunaipyohrqlwngaqif.jpg,,,,,,,,,,,,,,,
300,2,Presentation,6,00559940519fa_sunacjkmnpawfzbyvae.jpg,00479940519fa_sunabxsbfwjccqxxzxq.jpg,00559940519fa.jpg,sunacjkmnpawfzbyvae.jpg,00479940519fa.jpg,sunabxsbfwjccqxxzxq.jpg,,,<,Face,,,,,1,,,,,,,o
301,2,Presentation,6,00163931230fb_sunaavodbcpygkggnfp.jpg,00793941205fa_sunagtjwilqjvxohypn.jpg,00163931230fb.jpg,sunaavodbcpygkggnfp.jpg,00793941205fa.jpg,sunagtjwilqjvxohypn.jpg,,,<,Face,,,,,1,,,,,,,o
302,2,Presentation,6,00260940128fa_sunabgfhvifeijihhjw.jpg,00795941205fa_sunagtumacdlmciqamz.jpg,00260940128fa.jpg,sunabgfhvifeijihhjw.jpg,00795941205fa.jpg,sunagtumacdlmciqamz.jpg,,,<,Face,,,,,1,,,,,,,o
303,2,Presentation,6,00931960627fa_sunaptrqvaooxfvktvw.jpg,00953960627fa_sunatstrpjxhvtbaczf.jpg,00931960627fa.jpg,sunaptrqvaooxfvktvw.jpg,00953960627fa.jpg,sunatstrpjxhvtbaczf.jpg,,,<,Face,,,,,1,,,,,,,x
304,2,Presentation,6,00498960627fa_sunabzjxlmkwnwzimua.jpg,00557940519fa_sunachtuarilwyqnvjx.jpg,00498960627fa.jpg,sunabzjxlmkwnwzimua.jpg,00557940519fa.jpg,sunachtuarilwyqnvjx.jpg,,,<,Face,,,,,1,,,,,,,x
305,2,Presentation,6,00235940128fb_sunabclssnoeuigtawp.jpg,00985960627fa_sunbgklxeqjhdbyfhhy.jpg,00235940128fb.jpg,sunabclssnoeuigtawp.jpg,00985960627fa.jpg,sunbgklxeqjhdbyfhhy.jpg,,,<,Face,,,,,1,,,,,,,o
306,2,Presentation,6,00848940307fa_sunaivdylrawbmhryfp.jpg,00859940307fa_sunaiycurtqsfkvcaso.jpg,00848940307fa.jpg,sunaivdylrawbmhryfp.jpg,00859940307fa.jpg,sunaiycurtqsfkvcaso.jpg,,,<,Face,,,,,1,,,,,,,x
307,2,Presentation,6,00147931230fb_sunaatpkocdkocwxpkb.jpg,00963960627fa_sunayaepykrqvenaqqy.jpg,00147931230fb.jpg,sunaatpkocdkocwxpkb.jpg,00963960627fa.jpg,sunayaepykrqvenaqqy.jpg,,,<,Face,,,,,1,,,,,,,x
308,2,Presentation,6,00893960530Fa_sunaloffvbvysigxent.jpg,00747941201fa_sunaeutbrtswvsozxyk.jpg,00893960530Fa.jpg,sunaloffvbvysigxent.jpg,00747941201fa.jpg,sunaeutbrtswvsozxyk.jpg,,,<,Face,,,,,1,,,,,,,x
309,2,Presentation,6,00909960530_sunaobtizabegtwfwul.jpg,00960960627fa_sunawksfbacycuhbrsc.jpg,00909960530.jpg,sunaobtizabegtwfwul.jpg,00960960627fa.jpg,sunawksfbacycuhbrsc.jpg,,,<,Face,,,,,1,,,,,,,x
310,2,Memory,6,,,,,,,00235940128fb.jpg,,,,,,,,,,,,,,,
311,2,Memory,6,,,,,,,00744941201fa.jpg,,,,,,,,,,,,,,,
312,2,Memory,6,,,,,,,sunbxarcshsnqsefemx.jpg,,,,,,,,,,,,,,,
313,2,Memory,6,,,,,,,sunagtjwilqjvxohypn.jpg,,,,,,,,,,,,,,,
314,2,Memory,6,,,,,,,sunawksfbacycuhbrsc.jpg,,,,,,,,,,,,,,,
315,2,Memory,6,,,,,,,sunaajqmsaavkmgbsth.jpg,,,,,,,,,,,,,,,
316,2,Memory,6,,,,,,,00921960627fa.jpg,,,,,,,,,,,,,,,
317,2,Memory,6,,,,,,,00771941205fa.jpg,,,,,,,,,,,,,,,
318,2,Memory,6,,,,,,,00963960627fa.jpg,,,,,,,,,,,,,,,
319,2,Memory,6,,,,,,,00112931230fa.jpg,,,,,,,,,,,,,,,
320,2,Memory,6,,,,,,,sunbaejotfklekvpxcz.jpg,,,,,,,,,,,,,,,
321,2,Memory,6,,,,,,,sunaakjaacuzulqckgl.jpg,,,,,,,,,,,,,,,
322,2,Memory,6,,,,,,,00598941031fa.jpg,,,,,,,,,,,,,,,
323,2,Memory,6,,,,,,,sunaeomlfaabhpswasy.jpg,,,,,,,,,,,,,,,
324,2,Memory,6,,,,,,,00479940519fa.jpg,,,,,,,,,,,,,,,
325,2,Memory,6,,,,,,,00101931230fb.jpg,,,,,,,,,,,,,,,
326,2,Memory,6,,,,,,,sunabclssnoeuigtawp.jpg,,,,,,,,,,,,,,,
327,2,Memory,6,,,,,,,00498960627fa.jpg,,,,,,,,,,,,,,,
328,2,Memory,6,,,,,,,00663941121fa.jpg,,,,,,,,,,,,,,,
329,2,Memory,6,,,,,,,00793941205fa.jpg,,,,,,,,,,,,,,,
330,2,Memory,6,,,,,,,00967960627fa.jpg,,,,,,,,,,,,,,,
331,2,Memory,6,,,,,,,00960960627fa.jpg,,,,,,,,,,,,,,,
332,2,Memory,6,,,,,,,sunaavodbcpygkggnfp.jpg,,,,,,,,,,,,,,,
333,2,Memory,6,,,,,,,00197940128fa.jpg,,,,,,,,,,,,,,,
334,2,Memory,6,,,,,,,00747941201fa.jpg,,,,,,,,,,,,,,,
335,2,Memory,6,,,,,,,sunadnjjzohjhbohlwq.jpg,,,,,,,,,,,,,,,
336,2,Memory,6,,,,,,,sunaloffvbvysigxent.jpg,,,,,,,,,,,,,,,
337,2,Memory,6,,,,,,,00893960530Fa.jpg,,,,,,,,,,,,,,,
338,2,Memory,6,,,,,,,sunapqkpqdfvxlbqwyo.jpg,,,,,,,,,,,,,,,
339,2,Memory,6,,,,,,,01007960627fa.jpg,,,,,,,,,,,,,,,
340,2,Memory,6,,,,,,,sunafowswglhxcsufpo.jpg,,,,,,,,,,,,,,,
341,2,Memory,6,,,,,,,sunayaepykrqvenaqqy.jpg,,,,,,,,,,,,,,,
342,2,Memory,6,,,,,,,00147931230fb.jpg,,,,,,,,,,,,,,,
343,2,Memory,6,,,,,,,00163931230fb.jpg,,,,,,,,,,,,,,,
344,2,Memory,6,,,,,,,sunaaylzyqlqrsmfwif.jpg,,,,,,,,,,,,,,,
345,2,Memory,6,,,,,,,sunacxtcahkymosigud.jpg,,,,,,,,,,,,,,,
346,2,Memory,6,,,,,,,sunabxsbfwjccqxxzxq.jpg,,,,,,,,,,,,,,,
347,2,Memory,6,,,,,,,sunaeutbrtswvsozxyk.jpg,,,,,,,,,,,,,,,
348,2,Memory,6,,,,,,,sunaatpkocdkocwxpkb.jpg,,,,,,,,,,,,,,,
349,2,Memory,6,,,,,,,sunabzjxlmkwnwzimua.jpg,,,,,,,,,,,,,,,
350,2,Presentation,7,00784941205fb_sunagjzcrjvmxzqzljx.jpg,00723941201fa_sunaedtgwjvvziytspa.jpg,00784941205fb.jpg,sunagjzcrjvmxzqzljx.jpg,00723941201fa.jpg,sunaedtgwjvvziytspa.jpg,,,<,Face,,,,,1,,,,,,,x
351,2,Presentation,7,00750941201fa_sunaeuzwggvibufclwf.jpg,00276940422fa_sunabmytpyhsgigllxu.jpg,00750941201fa.jpg,sunaeuzwggvibufclwf.jpg,00276940422fa.jpg,sunabmytpyhsgigllxu.jpg,,,<,Face,,,,,1,,,,,,,x
352,2,Presentation,7,01005960627fa_sunbwyuesflwdpqtgoy.jpg,00910960530fa_sunaofikylqtxphvdem.jpg,01005960627fa.jpg,sunbwyuesflwdpqtgoy.jpg,00910960530fa.jpg,sunaofikylqtxphvdem.jpg,,,<,Face,,,,,1,,,,,,,x
353,2,Presentation,7,00214940128fa_sunabbafjowbzcvbucc.jpg,00098931230fa_sunaajpqmulidejvjsr.jpg,00214940128fa.jpg,sunabbafjowbzcvbucc.jpg,00098931230fa.jpg,sunaajpqmulidejvjsr.jpg,,,<,Face,,,,,1,,,,,,,o
354,2,Presentation,7,00119931230fb_sunaakvmbftkrgqhjun.jpg,00070940307fa_sunaaeplwsfslcbtojr.jpg,00119931230fb.jpg,sunaakvmbftkrgqhjun.jpg,00070940307fa.jpg,sunaaeplwsfslcbtojr.jpg,,,<,Face,,,,,1,,,,,,,o
355,2,Presentation,7,00749941201fa_sunaeuvjbmdpknaqqaj.jpg,00532960627fa_sunaccdtpgenvcbcbcf.jpg,00749941201fa.jpg,sunaeuvjbmdpknaqqaj.jpg,00532960627fa.jpg,sunaccdtpgenvcbcbcf.jpg,,,<,Face,,,,,1,,,,,,,x
356,2,Presentation,7,00543940519fa_sunacepzfrmtkiqonpy.jpg,00751960620fa_sunaezuszgtxnmsxdbk.jpg,00543940519fa.jpg,sunacepzfrmtkiqonpy.jpg,00751960620fa.jpg,sunaezuszgtxnmsxdbk.jpg,,,<,Face,,,,,1,,,,,,,x
357,2,Presentation,7,00942960627fa_sunarfdklgdnjgeqfjg.jpg,00065931230fb_sunaaemixhfquhnxxlm.jpg,00942960627fa.jpg,sunarfdklgdnjgeqfjg.jpg,00065931230fb.jpg,sunaaemixhfquhnxxlm.jpg,,,<,Face,,,,,1,,,,,,,x
358,2,Presentation,7,00772941201fa_sunafpfpiiujzoesnqg.jpg,00763941205fa_sunafhmnhsdurlvddpw.jpg,00772941201fa.jpg,sunafpfpiiujzoesnqg.jpg,00763941205fa.jpg,sunafhmnhsdurlvddpw.jpg,,,<,Face,,,,,1,,,,,,,o
359,2,Presentation,7,00077931230fb_sunaafgqutfaishsxyu.jpg,00894960620fa_sunalqmfgeadpqsyzpd.jpg,00077931230fb.jpg,sunaafgqutfaishsxyu.jpg,00894960620fa.jpg,sunalqmfgeadpqsyzpd.jpg,,,<,Face,,,,,1,,,,,,,o
360,2,Memory,7,,,,,,,sunaakvmbftkrgqhjun.jpg,,,,,,,,,,,,,,,
361,2,Memory,7,,,,,,,00938960627fa.jpg,,,,,,,,,,,,,,,
362,2,Memory,7,,,,,,,00070940307fa.jpg,,,,,,,,,,,,,,,
363,2,Memory,7,,,,,,,00791941205fa.jpg,,,,,,,,,,,,,,,
364,2,Memory,7,,,,,,,sunadfktsqjthoglcsm.jpg,,,,,,,,,,,,,,,
365,2,Memory,7,,,,,,,00214940128fa.jpg,,,,,,,,,,,,,,,
366,2,Memory,7,,,,,,,sunaajpqmulidejvjsr.jpg,,,,,,,,,,,,,,,
367,2,Memory,7,,,,,,,00098931230fa.jpg,,,,,,,,,,,,,,,
368,2,Memory,7,,,,,,,00910960530fa.jpg,,,,,,,,,,,,,,,
369,2,Memory,7,,,,,,,sunaaeplwsfslcbtojr.jpg,,,,,,,,,,,,,,,
370,2,Memory,7,,,,,,,00288940422fa.jpg,,,,,,,,,,,,,,,
371,2,Memory,7,,,,,,,sunagrmyoovzukhxmlo.jpg,,,,,,,,,,,,,,,
372,2,Memory,7,,,,,,,sunaduslxfzlbxlllnz.jpg,,,,,,,,,,,,,,,
373,2,Memory,7,,,,,,,sunabbafjowbzcvbucc.jpg,,,,,,,,,,,,,,,
374,2,Memory,7,,,,,,,00265940128fb.jpg,,,,,,,,,,,,,,,
375,2,Memory,7,,,,,,,sunaccdtpgenvcbcbcf.jpg,,,,,,,,,,,,,,,
376,2,Memory,7,,,,,,,sunbbfqwjpdxniyhies.jpg,,,,,,,,,,,,,,,
377,2,Memory,7,,,,,,,sunacepzfrmtkiqonpy.jpg,,,,,,,,,,,,,,,
378,2,Memory,7,,,,,,,sunaofikylqtxphvdem.jpg,,,,,,,,,,,,,,,
379,2,Memory,7,,,,,,,00119931230fb.jpg,,,,,,,,,,,,,,,
380,2,Memory,7,,,,,,,sunacvbrcejzwmcgnoq.jpg,,,,,,,,,,,,,,,
381,2,Memory,7,,,,,,,sunabppokiyglaxpcha.jpg,,,,,,,,,,,,,,,
382,2,Memory,7,,,,,,,sunabkmdplkdbvxriff.jpg,,,,,,,,,,,,,,,
383,2,Memory,7,,,,,,,00532960627fa.jpg,,,,,,,,,,,,,,,
384,2,Memory,7,,,,,,,sunbbhqyyzmsxhsbjmp.jpg,,,,,,,,,,,,,,,
385,2,Memory,7,,,,,,,00543940519fa.jpg,,,,,,,,,,,,,,,
386,2,Memory,7,,,,,,,00919960620fa.jpg,,,,,,,,,,,,,,,
387,2,Memory,7,,,,,,,00750941201fa.jpg,,,,,,,,,,,,,,,
388,2,Memory,7,,,,,,,00976960627fa.jpg,,,,,,,,,,,,,,,
389,2,Memory,7,,,,,,,sunagjzcrjvmxzqzljx.jpg,,,,,,,,,,,,,,,
390,2,Memory,7,,,,,,,00638941031fa.jpg,,,,,,,,,,,,,,,
391,2,Memory,7,,,,,,,00705960530fa.jpg,,,,,,,,,,,,,,,
392,2,Memory,7,,,,,,,00784941205fb.jpg,,,,,,,,,,,,,,,
393,2,Memory,7,,,,,,,00574940928fa.jpg,,,,,,,,,,,,,,,
394,2,Memory,7,,,,,,,sunaedtgwjvvziytspa.jpg,,,,,,,,,,,,,,,
395,2,Memory,7,,,,,,,00972960627fa.jpg,,,,,,,,,,,,,,,
396,2,Memory,7,,,,,,,sunaqyylsngywqzwfmx.jpg,,,,,,,,,,,,,,,
397,2,Memory,7,,,,,,,sunapmfmzadmosuogaz.jpg,,,,,,,,,,,,,,,
398,2,Memory,7,,,,,,,00723941201fa.jpg,,,,,,,,,,,,,,,
399,2,Memory,7,,,,,,,sunaeuzwggvibufclwf.jpg,,,,,,,,,,,,,,,
