,Subject,Trial Type,Run,Cued Composite,Uncued Composite,Cued Face,Cued Place,Uncued Face,Uncued Place,Memory Image,Category,Cued Side,Cued Category,Attention Response Time (s),Familiarity Reaction Time (s),Familiarity Rating,Attention Level,Cue Validity,Post Invalid Cue,Pre Invalid Cue,Attention Button,Rating History,Stimulus Onset,Stimulus End,Attention Probe
0,27,Presentation,0,00092931230fa_sunaaheqzstzxuadglu.jpg,00807941205fa_sunahawfngukizslzsd.jpg,,,,,,,>,Place,,,,,1,,,,,,,x
1,27,Presentation,0,00638941031fa_sunadfktsqjthoglcsm.jpg,00650941031fa_sunadikxpvqeabxrvvc.jpg,,,,,,,<,Face,,,,,1,,,,,,,x
2,27,Presentation,0,00071940128fa_sunaaexpnawiehinlpy.jpg,00880960530fa_sunakmnfgklupjijsgf.jpg,,,,,,,>,Face,,,,,0,,,,,,,x
3,27,Presentation,0,00694941121fa_sunadrmfzmstgdjdcod.jpg,00314940422fa_sunabwmcbaxwioksdgw.jpg,,,,,,,<,Face,,,,,1,,,,,,,x
4,27,Presentation,0,00926960627Fa_sunapqwoeotxshkukbh.jpg,00796941205fa_sunaguchqqnrtodtezq.jpg,,,,,,,<,Place,,,,,1,,,,,,,x
5,27,Presentation,0,00119931230fb_sunaakvmbftkrgqhjun.jpg,00834940307fa_sunaibnpvhkdpdnzcnz.jpg,,,,,,,<,Face,,,,,1,,,,,,,x
6,27,Presentation,0,00864940307fa_sunajawzbrlrwafowen.jpg,00557940519fa_sunachtuarilwyqnvjx.jpg,,,,,,,>,Place,,,,,1,,,,,,,x
7,27,Presentation,0,00089931230fa_sunaagcpoejbuzyvddd.jpg,00630940928fa_sunaczwgyukesaajxnx.jpg,,,,,,,>,Face,,,,,1,,,,,,,o
8,27,Presentation,0,00774941201fa_sunafvtpfczkzopbgue.jpg,00968960627fa_sunbagfpovqwbuexqdn.jpg,,,,,,,<,Place,,,,,1,,,,,,,o
9,27,Presentation,0,00965960627fa_sunaydywdmvlfddbxbk.jpg,00985960627fa_sunbgklxeqjhdbyfhhy.jpg,,,,,,,>,Place,,,,,1,,,,,,,o
10,27,Memory,0,,,,,,,sunadbdqzigzwipuipr.jpg,,,,,,,,,,,,,,,
11,27,Memory,0,,,,,,,00792941205fa.jpg,,,,,,,,,,,,,,,
12,27,Memory,0,,,,,,,00774941201fa.jpg,,,,,,,,,,,,,,,
13,27,Memory,0,,,,,,,00119931230fb.jpg,,,,,,,,,,,,,,,
14,27,Memory,0,,,,,,,sunabxsbfwjccqxxzxq.jpg,,,,,,,,,,,,,,,
15,27,Memory,0,,,,,,,sunaagcpoejbuzyvddd.jpg,,,,,,,,,,,,,,,
16,27,Memory,0,,,,,,,00985960627fa.jpg,,,,,,,,,,,,,,,
17,27,Memory,0,,,,,,,00766960620fa.jpg,,,,,,,,,,,,,,,
18,27,Memory,0,,,,,,,sunachtuarilwyqnvjx.jpg,,,,,,,,,,,,,,,
19,27,Memory,0,,,,,,,00260940128fa.jpg,,,,,,,,,,,,,,,
20,27,Memory,0,,,,,,,00761960627fa.jpg,,,,,,,,,,,,,,,
21,27,Memory,0,,,,,,,sunbagfpovqwbuexqdn.jpg,,,,,,,,,,,,,,,
22,27,Memory,0,,,,,,,00089931230fa.jpg,,,,,,,,,,,,,,,
23,27,Memory,0,,,,,,,sunagsiwrmuixqgdimb.jpg,,,,,,,,,,,,,,,
24,27,Memory,0,,,,,,,sunacsaovnjezqwbykf.jpg,,,,,,,,,,,,,,,
25,27,Memory,0,,,,,,,sunabgfhvifeijihhjw.jpg,,,,,,,,,,,,,,,
26,27,Memory,0,,,,,,,00631940928fa.jpg,,,,,,,,,,,,,,,
27,27,Memory,0,,,,,,,sunajawzbrlrwafowen.jpg,,,,,,,,,,,,,,,
28,27,Memory,0,,,,,,,00965960627fa.jpg,,,,,,,,,,,,,,,
29,27,Memory,0,,,,,,,sunaydywdmvlfddbxbk.jpg,,,,,,,,,,,,,,,
30,27,Memory,0,,,,,,,00778941205fa.jpg,,,,,,,,,,,,,,,
31,27,Memory,0,,,,,,,sunafvtpfczkzopbgue.jpg,,,,,,,,,,,,,,,
32,27,Memory,0,,,,,,,00834940307fa.jpg,,,,,,,,,,,,,,,
33,27,Memory,0,,,,,,,sunafijbgncijwykrnl.jpg,,,,,,,,,,,,,,,
34,27,Memory,0,,,,,,,sunbgklxeqjhdbyfhhy.jpg,,,,,,,,,,,,,,,
35,27,Memory,0,,,,,,,00557940519fa.jpg,,,,,,,,,,,,,,,
36,27,Memory,0,,,,,,,00564941031fa.jpg,,,,,,,,,,,,,,,
37,27,Memory,0,,,,,,,sunaknlirqjqiwbbeeg.jpg,,,,,,,,,,,,,,,
38,27,Memory,0,,,,,,,00630940928fa.jpg,,,,,,,,,,,,,,,
39,27,Memory,0,,,,,,,sunabbwggenhfbftyvi.jpg,,,,,,,,,,,,,,,
40,27,Memory,0,,,,,,,sunaakvmbftkrgqhjun.jpg,,,,,,,,,,,,,,,
41,27,Memory,0,,,,,,,sunaibnpvhkdpdnzcnz.jpg,,,,,,,,,,,,,,,
42,27,Memory,0,,,,,,,sunafgdqbclkwfocdhg.jpg,,,,,,,,,,,,,,,
43,27,Memory,0,,,,,,,00882960530fa.jpg,,,,,,,,,,,,,,,
44,27,Memory,0,,,,,,,sunagcthdfirrcawoic.jpg,,,,,,,,,,,,,,,
45,27,Memory,0,,,,,,,00968960627fa.jpg,,,,,,,,,,,,,,,
46,27,Memory,0,,,,,,,00218940128fa.jpg,,,,,,,,,,,,,,,
47,27,Memory,0,,,,,,,00479940519fa.jpg,,,,,,,,,,,,,,,
48,27,Memory,0,,,,,,,sunaczwgyukesaajxnx.jpg,,,,,,,,,,,,,,,
49,27,Memory,0,,,,,,,00864940307fa.jpg,,,,,,,,,,,,,,,
50,27,Presentation,1,00081941031fa_sunaaftlyfudyzuhqzf.jpg,00063931230fa_sunaaelyvurpntclgau.jpg,,,,,,,<,Place,,,,,0,,,,,,,o
51,27,Presentation,1,00901960530fa_sunammbnoambmhdxdwd.jpg,00727941205fa_sunaeisnjeetzmkbuad.jpg,,,,,,,>,Face,,,,,1,,,,,,,o
52,27,Presentation,1,00126931230fb_sunaamdjwemxpmmtypi.jpg,00997960627fa_sunbtpilbhhbmhmeuzq.jpg,,,,,,,<,Face,,,,,1,,,,,,,x
53,27,Presentation,1,00235940128fb_sunabclssnoeuigtawp.jpg,00744941201fa_sunaeomlfaabhpswasy.jpg,,,,,,,>,Place,,,,,1,,,,,,,o
54,27,Presentation,1,00885960530fa_sunakwlvxjpddialozd.jpg,00266940128fb_sunabkngeblodihjvbk.jpg,,,,,,,<,Face,,,,,1,,,,,,,x
55,27,Presentation,1,00784941205fb_sunagjzcrjvmxzqzljx.jpg,00065931230fb_sunaaemixhfquhnxxlm.jpg,,,,,,,>,Place,,,,,1,,,,,,,o
56,27,Presentation,1,00858940307fa_sunaixpqndlwhwjtjek.jpg,00825940307fa_sunahrltmuwbiehihpe.jpg,,,,,,,<,Place,,,,,1,,,,,,,o
57,27,Presentation,1,00073931230fa_sunaafbmtoniaasysgu.jpg,00208940128fa_sunaazzyhbvqjpmazjq.jpg,,,,,,,>,Face,,,,,1,,,,,,,o
58,27,Presentation,1,00270940422fb_sunabllobxadqcyttej.jpg,00894960620fa_sunalqmfgeadpqsyzpd.jpg,,,,,,,<,Face,,,,,1,,,,,,,x
59,27,Presentation,1,00267940128fb_sunablfqiwfqomjarht.jpg,00120931230fa_sunaakxgygjfqrzpyoz.jpg,,,,,,,>,Place,,,,,1,,,,,,,o
60,27,Memory,1,,,,,,,00081941031fa.jpg,,,,,,,,,,,,,,,
61,27,Memory,1,,,,,,,sunanaacmmosxrfwmvl.jpg,,,,,,,,,,,,,,,
62,27,Memory,1,,,,,,,sunaafgqutfaishsxyu.jpg,,,,,,,,,,,,,,,
63,27,Memory,1,,,,,,,sunaaemixhfquhnxxlm.jpg,,,,,,,,,,,,,,,
64,27,Memory,1,,,,,,,00885960530fa.jpg,,,,,,,,,,,,,,,
65,27,Memory,1,,,,,,,sunaffgsyyvoqdlkmnk.jpg,,,,,,,,,,,,,,,
66,27,Memory,1,,,,,,,sunajoveqhiprwqgoco.jpg,,,,,,,,,,,,,,,
67,27,Memory,1,,,,,,,00901960530fa.jpg,,,,,,,,,,,,,,,
68,27,Memory,1,,,,,,,sunakwlvxjpddialozd.jpg,,,,,,,,,,,,,,,
69,27,Memory,1,,,,,,,00073931230fa.jpg,,,,,,,,,,,,,,,
70,27,Memory,1,,,,,,,00780960530fa.jpg,,,,,,,,,,,,,,,
71,27,Memory,1,,,,,,,sunagetqixeypsysbpn.jpg,,,,,,,,,,,,,,,
72,27,Memory,1,,,,,,,00120931230fa.jpg,,,,,,,,,,,,,,,
73,27,Memory,1,,,,,,,sunaaftlyfudyzuhqzf.jpg,,,,,,,,,,,,,,,
74,27,Memory,1,,,,,,,00270940422fb.jpg,,,,,,,,,,,,,,,
75,27,Memory,1,,,,,,,sunaaeowapdkwzqpgqr.jpg,,,,,,,,,,,,,,,
76,27,Memory,1,,,,,,,sunaazzyhbvqjpmazjq.jpg,,,,,,,,,,,,,,,
77,27,Memory,1,,,,,,,00208940128fa.jpg,,,,,,,,,,,,,,,
78,27,Memory,1,,,,,,,sunammbnoambmhdxdwd.jpg,,,,,,,,,,,,,,,
79,27,Memory,1,,,,,,,00754941201fa.jpg,,,,,,,,,,,,,,,
80,27,Memory,1,,,,,,,sunabllobxadqcyttej.jpg,,,,,,,,,,,,,,,
81,27,Memory,1,,,,,,,sunaeomlfaabhpswasy.jpg,,,,,,,,,,,,,,,
82,27,Memory,1,,,,,,,00894960620fa.jpg,,,,,,,,,,,,,,,
83,27,Memory,1,,,,,,,00069931230fb.jpg,,,,,,,,,,,,,,,
84,27,Memory,1,,,,,,,00077931230fb.jpg,,,,,,,,,,,,,,,
85,27,Memory,1,,,,,,,sunagpancjmxqfazssf.jpg,,,,,,,,,,,,,,,
86,27,Memory,1,,,,,,,00065931230fb.jpg,,,,,,,,,,,,,,,
87,27,Memory,1,,,,,,,sunalqmfgeadpqsyzpd.jpg,,,,,,,,,,,,,,,
88,27,Memory,1,,,,,,,sunaafbmtoniaasysgu.jpg,,,,,,,,,,,,,,,
89,27,Memory,1,,,,,,,sunagvjurcwdbixvnyi.jpg,,,,,,,,,,,,,,,
90,27,Memory,1,,,,,,,00789960620fa.jpg,,,,,,,,,,,,,,,
91,27,Memory,1,,,,,,,00800941205fb.jpg,,,,,,,,,,,,,,,
92,27,Memory,1,,,,,,,01009960627fa.jpg,,,,,,,,,,,,,,,
93,27,Memory,1,,,,,,,00744941201fa.jpg,,,,,,,,,,,,,,,
94,27,Memory,1,,,,,,,sunaptrqvaooxfvktvw.jpg,,,,,,,,,,,,,,,
95,27,Memory,1,,,,,,,00869940307fa.jpg,,,,,,,,,,,,,,,
96,27,Memory,1,,,,,,,00902960530fa.jpg,,,,,,,,,,,,,,,
97,27,Memory,1,,,,,,,sunbxzweleltykebgan.jpg,,,,,,,,,,,,,,,
98,27,Memory,1,,,,,,,sunaakxgygjfqrzpyoz.jpg,,,,,,,,,,,,,,,
99,27,Memory,1,,,,,,,00931960627fa.jpg,,,,,,,,,,,,,,,
100,27,Presentation,2,00990960627fa_sunbpflsdaxnddnwcqi.jpg,00816941205fa_sunahmhrncocyhsjpxk.jpg,,,,,,,<,Place,,,,,1,,,,,,,o
101,27,Presentation,2,00589940928fa_sunacwggadqsfpovdjv.jpg,00972960627fa_sunbbfqwjpdxniyhies.jpg,,,,,,,>,Face,,,,,1,,,,,,,x
102,27,Presentation,2,00675941121fa_sunadoxcchtmsxewsau.jpg,00782941205fa_sunagfvluwixdsozaql.jpg,,,,,,,<,Face,,,,,1,,,,,,,o
103,27,Presentation,2,00966960627fa_sunaygrtwrwfezqjizr.jpg,00772941201fa_sunafpfpiiujzoesnqg.jpg,,,,,,,<,Place,,,,,1,,,,,,,x
104,27,Presentation,2,00741941201fa_sunaemcowdozyphwknd.jpg,00895960530fa_sunamczizlzavhzhpay.jpg,,,,,,,>,Face,,,,,1,,,,,,,x
105,27,Presentation,2,00989960627fa_sunbondbduabvijnmch.jpg,00313940422fa_sunabwjvmoaddlyxfjr.jpg,,,,,,,>,Place,,,,,1,,,,,,,o
106,27,Presentation,2,00857940307fa_sunaiwfobocrruqznsv.jpg,00937960627fa_sunaqsolmfydodnakub.jpg,,,,,,,<,Place,,,,,1,,,,,,,x
107,27,Presentation,2,00598940928fa_sunacxeheuiigkcgquf.jpg,00163931230fb_sunaavodbcpygkggnfp.jpg,,,,,,,<,Face,,,,,1,,,,,,,o
108,27,Presentation,2,00609940928fa_sunacycdoztxoluxjyk.jpg,00133931230fa_sunaanlwnpqndclffxt.jpg,,,,,,,>,Place,,,,,1,,,,,,,x
109,27,Presentation,2,00559940519fa_sunacjkmnpawfzbyvae.jpg,00794960620fa_sunagtqhhwxjeuxdebe.jpg,,,,,,,>,Face,,,,,1,,,,,,,o
110,27,Memory,2,,,,,,,sunaatpeezlljqaxlhj.jpg,,,,,,,,,,,,,,,
111,27,Memory,2,,,,,,,00990960627fa.jpg,,,,,,,,,,,,,,,
112,27,Memory,2,,,,,,,sunagfvluwixdsozaql.jpg,,,,,,,,,,,,,,,
113,27,Memory,2,,,,,,,00598940928fa.jpg,,,,,,,,,,,,,,,
114,27,Memory,2,,,,,,,sunacerqowiaeoqkmsq.jpg,,,,,,,,,,,,,,,
115,27,Memory,2,,,,,,,sunbpflsdaxnddnwcqi.jpg,,,,,,,,,,,,,,,
116,27,Memory,2,,,,,,,sunaavjinpnkappuonm.jpg,,,,,,,,,,,,,,,
117,27,Memory,2,,,,,,,00953960627fa.jpg,,,,,,,,,,,,,,,
118,27,Memory,2,,,,,,,sunbwdrdvsweerwsdrj.jpg,,,,,,,,,,,,,,,
119,27,Memory,2,,,,,,,00548940519fa.jpg,,,,,,,,,,,,,,,
120,27,Memory,2,,,,,,,00989960627fa.jpg,,,,,,,,,,,,,,,
121,27,Memory,2,,,,,,,00772941201fa.jpg,,,,,,,,,,,,,,,
122,27,Memory,2,,,,,,,sunacxeheuiigkcgquf.jpg,,,,,,,,,,,,,,,
123,27,Memory,2,,,,,,,sunabkmdplkdbvxriff.jpg,,,,,,,,,,,,,,,
124,27,Memory,2,,,,,,,00782941205fa.jpg,,,,,,,,,,,,,,,
125,27,Memory,2,,,,,,,00937960627fa.jpg,,,,,,,,,,,,,,,
126,27,Memory,2,,,,,,,00280940422fb.jpg,,,,,,,,,,,,,,,
127,27,Memory,2,,,,,,,00966960627fa.jpg,,,,,,,,,,,,,,,
128,27,Memory,2,,,,,,,sunbondbduabvijnmch.jpg,,,,,,,,,,,,,,,
129,27,Memory,2,,,,,,,sunaiwfobocrruqznsv.jpg,,,,,,,,,,,,,,,
130,27,Memory,2,,,,,,,sunabohxbskznglnrhv.jpg,,,,,,,,,,,,,,,
131,27,Memory,2,,,,,,,sunaygrtwrwfezqjizr.jpg,,,,,,,,,,,,,,,
132,27,Memory,2,,,,,,,00163931230fb.jpg,,,,,,,,,,,,,,,
133,27,Memory,2,,,,,,,00857940307fa.jpg,,,,,,,,,,,,,,,
134,27,Memory,2,,,,,,,00162931230fb.jpg,,,,,,,,,,,,,,,
135,27,Memory,2,,,,,,,00801941205fa.jpg,,,,,,,,,,,,,,,
136,27,Memory,2,,,,,,,sunaanlwnpqndclffxt.jpg,,,,,,,,,,,,,,,
137,27,Memory,2,,,,,,,sunatstrpjxhvtbaczf.jpg,,,,,,,,,,,,,,,
138,27,Memory,2,,,,,,,sunafpfpiiujzoesnqg.jpg,,,,,,,,,,,,,,,
139,27,Memory,2,,,,,,,00146960620fb.jpg,,,,,,,,,,,,,,,
140,27,Memory,2,,,,,,,00719941201fa.jpg,,,,,,,,,,,,,,,
141,27,Memory,2,,,,,,,sunaqsolmfydodnakub.jpg,,,,,,,,,,,,,,,
142,27,Memory,2,,,,,,,sunaauueuhhvklldjik.jpg,,,,,,,,,,,,,,,
143,27,Memory,2,,,,,,,sunagvprlbprarvgdvj.jpg,,,,,,,,,,,,,,,
144,27,Memory,2,,,,,,,00265940128fb.jpg,,,,,,,,,,,,,,,
145,27,Memory,2,,,,,,,00133931230fa.jpg,,,,,,,,,,,,,,,
146,27,Memory,2,,,,,,,00154931230fa.jpg,,,,,,,,,,,,,,,
147,27,Memory,2,,,,,,,01003960627fb.jpg,,,,,,,,,,,,,,,
148,27,Memory,2,,,,,,,sunaavodbcpygkggnfp.jpg,,,,,,,,,,,,,,,
149,27,Memory,2,,,,,,,sunadvithllcgmfxsrn.jpg,,,,,,,,,,,,,,,
150,27,Presentation,3,00306940422fa_sunabueyoajufbkraki.jpg,00292940422fb_sunabrjdpmoedcdjbpo.jpg,,,,,,,>,Place,,,,,1,,,,,,,x
151,27,Presentation,3,00071941031fa_sunaaexqbtdswxrqjvz.jpg,00308940422fb_sunabwfvcqqidycwypa.jpg,,,,,,,<,Place,,,,,1,,,,,,,o
152,27,Presentation,3,00905960530fa_sunanmoqeyprjjjfxjt.jpg,00914960620fa_sunaozisvwfbmlkfhzv.jpg,,,,,,,>,Face,,,,,1,,,,,,,o
153,27,Presentation,3,00977960627fa_sunbbxkanhzjgbwyxqs.jpg,00529940519fa_sunacbeefkxpymwevpk.jpg,,,,,,,<,Place,,,,,1,,,,,,,x
154,27,Presentation,3,00949960627fb_sunasnqkkyhilqkxiqm.jpg,00770941201fa_sunaflojskatpeqyzqp.jpg,,,,,,,<,Face,,,,,1,,,,,,,o
155,27,Presentation,3,00771941205fa_sunafowswglhxcsufpo.jpg,00775941205fa_sunafvwfsmqkjrutjta.jpg,,,,,,,>,Face,,,,,1,,,,,,,x
156,27,Presentation,3,00876960620fa_sunajwqkfsykceonyig.jpg,00752960620fa_sunafbwnojpqeyzssoe.jpg,,,,,,,>,Place,,,,,1,,,,,,,o
157,27,Presentation,3,00127931230fa_sunaampvucecsfbdafn.jpg,00993960627fa_sunbprywzqxjcezkbch.jpg,,,,,,,<,Place,,,,,1,,,,,,,o
158,27,Presentation,3,00574940928fa_sunacvbrcejzwmcgnoq.jpg,00620940928fa_sunacypmnujalygkunp.jpg,,,,,,,<,Face,,,,,1,,,,,,,x
159,27,Presentation,3,00060931230fa_sunaaehaikpckyjsety.jpg,00921960627fa_sunapqkpqdfvxlbqwyo.jpg,,,,,,,>,Face,,,,,1,,,,,,,x
160,27,Memory,3,,,,,,,sunafowswglhxcsufpo.jpg,,,,,,,,,,,,,,,
161,27,Memory,3,,,,,,,00949960627fb.jpg,,,,,,,,,,,,,,,
162,27,Memory,3,,,,,,,00554940519fa.jpg,,,,,,,,,,,,,,,
163,27,Memory,3,,,,,,,sunaooffzffbhcpirmm.jpg,,,,,,,,,,,,,,,
164,27,Memory,3,,,,,,,00752960620fa.jpg,,,,,,,,,,,,,,,
165,27,Memory,3,,,,,,,00785941205fa.jpg,,,,,,,,,,,,,,,
166,27,Memory,3,,,,,,,sunaampvucecsfbdafn.jpg,,,,,,,,,,,,,,,
167,27,Memory,3,,,,,,,00101931230fb.jpg,,,,,,,,,,,,,,,
168,27,Memory,3,,,,,,,sunacypmnujalygkunp.jpg,,,,,,,,,,,,,,,
169,27,Memory,3,,,,,,,sunadkazmlajmohnwfl.jpg,,,,,,,,,,,,,,,
170,27,Memory,3,,,,,,,00770941201fa.jpg,,,,,,,,,,,,,,,
171,27,Memory,3,,,,,,,sunabrjdpmoedcdjbpo.jpg,,,,,,,,,,,,,,,
172,27,Memory,3,,,,,,,00620940928fa.jpg,,,,,,,,,,,,,,,
173,27,Memory,3,,,,,,,sunasnqkkyhilqkxiqm.jpg,,,,,,,,,,,,,,,
174,27,Memory,3,,,,,,,00060931230fa.jpg,,,,,,,,,,,,,,,
175,27,Memory,3,,,,,,,00771941205fa.jpg,,,,,,,,,,,,,,,
176,27,Memory,3,,,,,,,sunaatjesvdupctftmn.jpg,,,,,,,,,,,,,,,
177,27,Memory,3,,,,,,,00876960620fa.jpg,,,,,,,,,,,,,,,
178,27,Memory,3,,,,,,,sunaaehaikpckyjsety.jpg,,,,,,,,,,,,,,,
179,27,Memory,3,,,,,,,sunaglqunwuycxydmyu.jpg,,,,,,,,,,,,,,,
180,27,Memory,3,,,,,,,sunaauglwmctnkxyird.jpg,,,,,,,,,,,,,,,
181,27,Memory,3,,,,,,,00913960530fa.jpg,,,,,,,,,,,,,,,
182,27,Memory,3,,,,,,,00529940519fa.jpg,,,,,,,,,,,,,,,
183,27,Memory,3,,,,,,,sunajwqkfsykceonyig.jpg,,,,,,,,,,,,,,,
184,27,Memory,3,,,,,,,00999960627fa.jpg,,,,,,,,,,,,,,,
185,27,Memory,3,,,,,,,00662941121fa.jpg,,,,,,,,,,,,,,,
186,27,Memory,3,,,,,,,sunagjeesomrwjsfqie.jpg,,,,,,,,,,,,,,,
187,27,Memory,3,,,,,,,sunahqrxievfeusiqlt.jpg,,,,,,,,,,,,,,,
188,27,Memory,3,,,,,,,sunaajqmsaavkmgbsth.jpg,,,,,,,,,,,,,,,
189,27,Memory,3,,,,,,,00145931230fb.jpg,,,,,,,,,,,,,,,
190,27,Memory,3,,,,,,,sunafbwnojpqeyzssoe.jpg,,,,,,,,,,,,,,,
191,27,Memory,3,,,,,,,00783941205fa.jpg,,,,,,,,,,,,,,,
192,27,Memory,3,,,,,,,sunacfdkbsrughwqwtt.jpg,,,,,,,,,,,,,,,
193,27,Memory,3,,,,,,,sunacbeefkxpymwevpk.jpg,,,,,,,,,,,,,,,
194,27,Memory,3,,,,,,,00149931230fa.jpg,,,,,,,,,,,,,,,
195,27,Memory,3,,,,,,,sunaflojskatpeqyzqp.jpg,,,,,,,,,,,,,,,
196,27,Memory,3,,,,,,,00822940307fa.jpg,,,,,,,,,,,,,,,
197,27,Memory,3,,,,,,,00127931230fa.jpg,,,,,,,,,,,,,,,
198,27,Memory,3,,,,,,,00292940422fb.jpg,,,,,,,,,,,,,,,
199,27,Memory,3,,,,,,,sunbvbrvgbpanfrawft.jpg,,,,,,,,,,,,,,,
200,27,Presentation,4,00138931230fa_sunaapfaivxqoynnwwp.jpg,00791941205fa_sunagrmyoovzukhxmlo.jpg,,,,,,,>,Place,,,,,1,,,,,,,o
201,27,Presentation,4,00911960530fa_sunaooaqzputrowwbsw.jpg,00122931230fa_sunaakxjfbrrequcjmx.jpg,,,,,,,<,Face,,,,,1,,,,,,,x
202,27,Presentation,4,00838940307fa_sunaiozxhxgtfrmoagh.jpg,00129931230fb_sunaamsdyakblkfoydx.jpg,,,,,,,<,Place,,,,,1,,,,,,,x
203,27,Presentation,4,00276940422fa_sunabmytpyhsgigllxu.jpg,00211940128fa_sunabasphceswhwwqvv.jpg,,,,,,,<,Face,,,,,1,,,,,,,o
204,27,Presentation,4,00743941201fa_sunaeoghzrjarigmwua.jpg,00871940307_sunajrujcsdxmfbssmc.jpg,,,,,,,>,Face,,,,,1,,,,,,,o
205,27,Presentation,4,00943960627fa_sunarpsxqkduedrrzyi.jpg,00961960627fa_sunawotxrevnqvamsfp.jpg,,,,,,,>,Place,,,,,1,,,,,,,x
206,27,Presentation,4,00093931230fa_sunaahwnmtqsrhocysw.jpg,00763941205fa_sunafhmnhsdurlvddpw.jpg,,,,,,,>,Face,,,,,1,,,,,,,x
207,27,Presentation,4,00935960627fa_sunaqbmgkgqucajzrkp.jpg,00507940519fa_sunacacflqoyxhsqzhe.jpg,,,,,,,<,Place,,,,,1,,,,,,,o
208,27,Presentation,4,00760960620fa_sunaffstbkappprzxnv.jpg,00908960530fa_sunanwjjyqqwzqrqagd.jpg,,,,,,,>,Place,,,,,1,,,,,,,x
209,27,Presentation,4,00787941205fa_sunagmwxxwymwojbvgi.jpg,00866940307fa_sunajbwkywmsqkldfml.jpg,,,,,,,<,Face,,,,,1,,,,,,,o
210,27,Memory,4,,,,,,,sunbxarcshsnqsefemx.jpg,,,,,,,,,,,,,,,
211,27,Memory,4,,,,,,,sunawotxrevnqvamsfp.jpg,,,,,,,,,,,,,,,
212,27,Memory,4,,,,,,,sunaiozxhxgtfrmoagh.jpg,,,,,,,,,,,,,,,
213,27,Memory,4,,,,,,,00742941201fa.jpg,,,,,,,,,,,,,,,
214,27,Memory,4,,,,,,,sunaooaqzputrowwbsw.jpg,,,,,,,,,,,,,,,
215,27,Memory,4,,,,,,,sunaenwuebvlpdmntju.jpg,,,,,,,,,,,,,,,
216,27,Memory,4,,,,,,,sunaajayojuslbbnneg.jpg,,,,,,,,,,,,,,,
217,27,Memory,4,,,,,,,sunabasphceswhwwqvv.jpg,,,,,,,,,,,,,,,
218,27,Memory,4,,,,,,,00961960627fa.jpg,,,,,,,,,,,,,,,
219,27,Memory,4,,,,,,,sunaapfaivxqoynnwwp.jpg,,,,,,,,,,,,,,,
220,27,Memory,4,,,,,,,00910960530fa.jpg,,,,,,,,,,,,,,,
221,27,Memory,4,,,,,,,sunabanoxjtqxamkucc.jpg,,,,,,,,,,,,,,,
222,27,Memory,4,,,,,,,sunacjnahdmqfnjfwqx.jpg,,,,,,,,,,,,,,,
223,27,Memory,4,,,,,,,sunadakkdovnuzlycvp.jpg,,,,,,,,,,,,,,,
224,27,Memory,4,,,,,,,sunaamsdyakblkfoydx.jpg,,,,,,,,,,,,,,,
225,27,Memory,4,,,,,,,sunagutjvdvnhxejerz.jpg,,,,,,,,,,,,,,,
226,27,Memory,4,,,,,,,00760960620fa.jpg,,,,,,,,,,,,,,,
227,27,Memory,4,,,,,,,00562941031fa.jpg,,,,,,,,,,,,,,,
228,27,Memory,4,,,,,,,00129931230fb.jpg,,,,,,,,,,,,,,,
229,27,Memory,4,,,,,,,sunaffstbkappprzxnv.jpg,,,,,,,,,,,,,,,
230,27,Memory,4,,,,,,,00943960627fa.jpg,,,,,,,,,,,,,,,
231,27,Memory,4,,,,,,,00911960530fa.jpg,,,,,,,,,,,,,,,
232,27,Memory,4,,,,,,,00630941031fa.jpg,,,,,,,,,,,,,,,
233,27,Memory,4,,,,,,,00507940519fa.jpg,,,,,,,,,,,,,,,
234,27,Memory,4,,,,,,,00210940128fb.jpg,,,,,,,,,,,,,,,
235,27,Memory,4,,,,,,,sunacacflqoyxhsqzhe.jpg,,,,,,,,,,,,,,,
236,27,Memory,4,,,,,,,sunagrmyoovzukhxmlo.jpg,,,,,,,,,,,,,,,
237,27,Memory,4,,,,,,,00799941205fa.jpg,,,,,,,,,,,,,,,
238,27,Memory,4,,,,,,,00791941205fa.jpg,,,,,,,,,,,,,,,
239,27,Memory,4,,,,,,,sunabbafjowbzcvbucc.jpg,,,,,,,,,,,,,,,
240,27,Memory,4,,,,,,,01007960627fa.jpg,,,,,,,,,,,,,,,
241,27,Memory,4,,,,,,,00097931230fa.jpg,,,,,,,,,,,,,,,
242,27,Memory,4,,,,,,,00239940128fa.jpg,,,,,,,,,,,,,,,
243,27,Memory,4,,,,,,,00138931230fa.jpg,,,,,,,,,,,,,,,
244,27,Memory,4,,,,,,,00211940128fa.jpg,,,,,,,,,,,,,,,
245,27,Memory,4,,,,,,,00214940128fa.jpg,,,,,,,,,,,,,,,
246,27,Memory,4,,,,,,,sunabctlikybqabezjv.jpg,,,,,,,,,,,,,,,
247,27,Memory,4,,,,,,,sunarpsxqkduedrrzyi.jpg,,,,,,,,,,,,,,,
248,27,Memory,4,,,,,,,sunaofikylqtxphvdem.jpg,,,,,,,,,,,,,,,
249,27,Memory,4,,,,,,,00838940307fa.jpg,,,,,,,,,,,,,,,
250,27,Presentation,5,00936960627fa_sunaqgjuuwvdcyiccjt.jpg,00750941201fa_sunaeuzwggvibufclwf.jpg,,,,,,,<,Face,,,,,1,,,,,,,x
251,27,Presentation,5,00942960627fa_sunarfdklgdnjgeqfjg.jpg,00112931230fa_sunaakjaacuzulqckgl.jpg,,,,,,,<,Place,,,,,1,,,,,,,x
252,27,Presentation,5,00140931230fb_sunaapllqyqlykszopd.jpg,00889960530fa_sunaletopenvvozhpxc.jpg,,,,,,,>,Place,,,,,1,,,,,,,o
253,27,Presentation,5,00294940422fb_sunabrlndkruqokhury.jpg,00648941031fa_sunadfndyrtqqiasoig.jpg,,,,,,,>,Face,,,,,1,,,,,,,o
254,27,Presentation,5,00082931230fa_sunaafvitpexrpvumsa.jpg,00982960627fa_sunbesrwkdsffeogeqq.jpg,,,,,,,<,Place,,,,,0,,,,,,,o
255,27,Presentation,5,00827940307fa_sunahtfxgsrmkiulnwk.jpg,01000960627fa_sunbvzmgrdvaakxusbu.jpg,,,,,,,>,Face,,,,,1,,,,,,,x
256,27,Presentation,5,00102931230fa_sunaajspcoepticvplv.jpg,00976960627fa_sunbbhqyyzmsxhsbjmp.jpg,,,,,,,<,Face,,,,,0,,,,,,,o
257,27,Presentation,5,00262940128fa_sunabizydfotqddlnjp.jpg,00958960627fa_sunavspxmxubqaeidjt.jpg,,,,,,,<,Place,,,,,1,,,,,,,x
258,27,Presentation,5,00839940307fa_sunaipyohrqlwngaqif.jpg,00884960530fa_sunakodkcslgqhqlgwl.jpg,,,,,,,>,Place,,,,,1,,,,,,,o
259,27,Presentation,5,00720960620fa_sunaecpkgfewqqreqwe.jpg,00810941205fa_sunahctntqrunhdxhtb.jpg,,,,,,,>,Face,,,,,1,,,,,,,o
260,27,Memory,5,,,,,,,sunadzuvtmtmgupotmf.jpg,,,,,,,,,,,,,,,
261,27,Memory,5,,,,,,,00262940128fa.jpg,,,,,,,,,,,,,,,
262,27,Memory,5,,,,,,,sunaafvitpexrpvumsa.jpg,,,,,,,,,,,,,,,
263,27,Memory,5,,,,,,,sunabqowuarvqqcnipn.jpg,,,,,,,,,,,,,,,
264,27,Memory,5,,,,,,,00936960627fa.jpg,,,,,,,,,,,,,,,
265,27,Memory,5,,,,,,,sunamkmeblgteyggink.jpg,,,,,,,,,,,,,,,
266,27,Memory,5,,,,,,,00719960620fa.jpg,,,,,,,,,,,,,,,
267,27,Memory,5,,,,,,,sunaapllqyqlykszopd.jpg,,,,,,,,,,,,,,,
268,27,Memory,5,,,,,,,sunaqgjuuwvdcyiccjt.jpg,,,,,,,,,,,,,,,
269,27,Memory,5,,,,,,,00576941031fa.jpg,,,,,,,,,,,,,,,
270,27,Memory,5,,,,,,,01000960627fa.jpg,,,,,,,,,,,,,,,
271,27,Memory,5,,,,,,,sunabyfxcxhdebvdyfd.jpg,,,,,,,,,,,,,,,
272,27,Memory,5,,,,,,,sunaanptmsknhirrzed.jpg,,,,,,,,,,,,,,,
273,27,Memory,5,,,,,,,00982960627fa.jpg,,,,,,,,,,,,,,,
274,27,Memory,5,,,,,,,00829940307fa.jpg,,,,,,,,,,,,,,,
275,27,Memory,5,,,,,,,00140931230fb.jpg,,,,,,,,,,,,,,,
276,27,Memory,5,,,,,,,sunabjzyxcjnmztdonj.jpg,,,,,,,,,,,,,,,
277,27,Memory,5,,,,,,,00264940128fb.jpg,,,,,,,,,,,,,,,
278,27,Memory,5,,,,,,,sunaletopenvvozhpxc.jpg,,,,,,,,,,,,,,,
279,27,Memory,5,,,,,,,sunavspxmxubqaeidjt.jpg,,,,,,,,,,,,,,,
280,27,Memory,5,,,,,,,00958960627fa.jpg,,,,,,,,,,,,,,,
281,27,Memory,5,,,,,,,00136931230fb.jpg,,,,,,,,,,,,,,,
282,27,Memory,5,,,,,,,00898960530fa.jpg,,,,,,,,,,,,,,,
283,27,Memory,5,,,,,,,00889960530fa.jpg,,,,,,,,,,,,,,,
284,27,Memory,5,,,,,,,sunabizydfotqddlnjp.jpg,,,,,,,,,,,,,,,
285,27,Memory,5,,,,,,,00681941121fa.jpg,,,,,,,,,,,,,,,
286,27,Memory,5,,,,,,,00942960627fa.jpg,,,,,,,,,,,,,,,
287,27,Memory,5,,,,,,,00815941205fa.jpg,,,,,,,,,,,,,,,
288,27,Memory,5,,,,,,,sunbvzmgrdvaakxusbu.jpg,,,,,,,,,,,,,,,
289,27,Memory,5,,,,,,,sunahiphsekjihkafsl.jpg,,,,,,,,,,,,,,,
290,27,Memory,5,,,,,,,00082931230fa.jpg,,,,,,,,,,,,,,,
291,27,Memory,5,,,,,,,sunbesrwkdsffeogeqq.jpg,,,,,,,,,,,,,,,
292,27,Memory,5,,,,,,,00482940519fa.jpg,,,,,,,,,,,,,,,
293,27,Memory,5,,,,,,,sunahwgbqkqcrwprgvh.jpg,,,,,,,,,,,,,,,
294,27,Memory,5,,,,,,,00112931230fa.jpg,,,,,,,,,,,,,,,
295,27,Memory,5,,,,,,,sunarfdklgdnjgeqfjg.jpg,,,,,,,,,,,,,,,
296,27,Memory,5,,,,,,,sunadqmjrhfjyuzyvdd.jpg,,,,,,,,,,,,,,,
297,27,Memory,5,,,,,,,sunacvjlsylseoghjup.jpg,,,,,,,,,,,,,,,
298,27,Memory,5,,,,,,,00290940422fa.jpg,,,,,,,,,,,,,,,
299,27,Memory,5,,,,,,,sunaakjaacuzulqckgl.jpg,,,,,,,,,,,,,,,
300,27,Presentation,6,00870940307fa_sunajrgtewnualfcerj.jpg,00955960627fb_sunauburywlkjszngcq.jpg,,,,,,,<,Place,,,,,1,,,,,,,x
301,27,Presentation,6,00663941121fa_sunadnjjzohjhbohlwq.jpg,00969960627fa_sunbaoizrfijvhpnnjn.jpg,,,,,,,>,Face,,,,,1,,,,,,,x
302,27,Presentation,6,00076931230fa_sunaafewhewbxmjiurz.jpg,00788941205fa_sunagountlxpzkytsmp.jpg,,,,,,,<,Face,,,,,1,,,,,,,x
303,27,Presentation,6,00634940928fa_sunadcphrizvfpljiqt.jpg,00581940928fa_sunacvzhvcksnwqcqbw.jpg,,,,,,,<,Place,,,,,1,,,,,,,x
304,27,Presentation,6,00111931230fb_sunaakgekhjklxmvulj.jpg,00970960627fa_sunbasypfgzjtomktmu.jpg,,,,,,,>,Place,,,,,1,,,,,,,x
305,27,Presentation,6,00859940307fa_sunaiycurtqsfkvcaso.jpg,00793941205fa_sunagtjwilqjvxohypn.jpg,,,,,,,>,Face,,,,,1,,,,,,,o
306,27,Presentation,6,00947960627fa_sunasmmcxdddtmtazwx.jpg,00061931230fb_sunaaekxzjzrfgtkwjf.jpg,,,,,,,<,Face,,,,,1,,,,,,,o
307,27,Presentation,6,00797960620fa_sunagufzbeteqdjxais.jpg,00116931230fa_sunaakqepfoeqomfgxf.jpg,,,,,,,>,Face,,,,,1,,,,,,,x
308,27,Presentation,6,00095931230fa_sunaahzooisqkwlxwoz.jpg,00700941121fa_sunadsgmtznewzyasnk.jpg,,,,,,,<,Place,,,,,1,,,,,,,x
309,27,Presentation,6,00893960530Fa_sunaloffvbvysigxent.jpg,00805941205fa_sunagwzdbtlixdhgolm.jpg,,,,,,,>,Place,,,,,1,,,,,,,o
310,27,Memory,6,,,,,,,00153931230fa.jpg,,,,,,,,,,,,,,,
311,27,Memory,6,,,,,,,00788941205fa.jpg,,,,,,,,,,,,,,,
312,27,Memory,6,,,,,,,sunaiycurtqsfkvcaso.jpg,,,,,,,,,,,,,,,
313,27,Memory,6,,,,,,,00111931230fb.jpg,,,,,,,,,,,,,,,
314,27,Memory,6,,,,,,,sunabtlfmiwtljmoues.jpg,,,,,,,,,,,,,,,
315,27,Memory,6,,,,,,,00191940128fb.jpg,,,,,,,,,,,,,,,
316,27,Memory,6,,,,,,,00859940307fa.jpg,,,,,,,,,,,,,,,
317,27,Memory,6,,,,,,,00242940128fa.jpg,,,,,,,,,,,,,,,
318,27,Memory,6,,,,,,,sunaedtgwjvvziytspa.jpg,,,,,,,,,,,,,,,
319,27,Memory,6,,,,,,,sunadsgmtznewzyasnk.jpg,,,,,,,,,,,,,,,
320,27,Memory,6,,,,,,,sunaaylzyqlqrsmfwif.jpg,,,,,,,,,,,,,,,
321,27,Memory,6,,,,,,,00762941201fa.jpg,,,,,,,,,,,,,,,
322,27,Memory,6,,,,,,,00061931230fb.jpg,,,,,,,,,,,,,,,
323,27,Memory,6,,,,,,,00663941121fa.jpg,,,,,,,,,,,,,,,
324,27,Memory,6,,,,,,,sunahedfrhtcwpneund.jpg,,,,,,,,,,,,,,,
325,27,Memory,6,,,,,,,sunagountlxpzkytsmp.jpg,,,,,,,,,,,,,,,
326,27,Memory,6,,,,,,,sunaafewhewbxmjiurz.jpg,,,,,,,,,,,,,,,
327,27,Memory,6,,,,,,,sunaaekxzjzrfgtkwjf.jpg,,,,,,,,,,,,,,,
328,27,Memory,6,,,,,,,sunapmfmzadmosuogaz.jpg,,,,,,,,,,,,,,,
329,27,Memory,6,,,,,,,sunadnjjzohjhbohlwq.jpg,,,,,,,,,,,,,,,
330,27,Memory,6,,,,,,,00197940128fa.jpg,,,,,,,,,,,,,,,
331,27,Memory,6,,,,,,,sunadcphrizvfpljiqt.jpg,,,,,,,,,,,,,,,
332,27,Memory,6,,,,,,,00634940928fa.jpg,,,,,,,,,,,,,,,
333,27,Memory,6,,,,,,,00108960530fa.jpg,,,,,,,,,,,,,,,
334,27,Memory,6,,,,,,,sunbasypfgzjtomktmu.jpg,,,,,,,,,,,,,,,
335,27,Memory,6,,,,,,,00076931230fa.jpg,,,,,,,,,,,,,,,
336,27,Memory,6,,,,,,,00302940422fa.jpg,,,,,,,,,,,,,,,
337,27,Memory,6,,,,,,,00919960620fa.jpg,,,,,,,,,,,,,,,
338,27,Memory,6,,,,,,,sunaajtnvzzpsjdzres.jpg,,,,,,,,,,,,,,,
339,27,Memory,6,,,,,,,00793941205fa.jpg,,,,,,,,,,,,,,,
340,27,Memory,6,,,,,,,00700941121fa.jpg,,,,,,,,,,,,,,,
341,27,Memory,6,,,,,,,00811960530fa.jpg,,,,,,,,,,,,,,,
342,27,Memory,6,,,,,,,sunagtjwilqjvxohypn.jpg,,,,,,,,,,,,,,,
343,27,Memory,6,,,,,,,sunaakgekhjklxmvulj.jpg,,,,,,,,,,,,,,,
344,27,Memory,6,,,,,,,sunaawsdjisukbbginm.jpg,,,,,,,,,,,,,,,
345,27,Memory,6,,,,,,,00723941201fa.jpg,,,,,,,,,,,,,,,
346,27,Memory,6,,,,,,,00970960627fa.jpg,,,,,,,,,,,,,,,
347,27,Memory,6,,,,,,,sunabcuurugvxwparpk.jpg,,,,,,,,,,,,,,,
348,27,Memory,6,,,,,,,sunafgzgbisbopcyslr.jpg,,,,,,,,,,,,,,,
349,27,Memory,6,,,,,,,sunaauhozyxzeeqstxi.jpg,,,,,,,,,,,,,,,
350,27,Presentation,7,00987960627fa_sunbloeoiozwjjsiamp.jpg,00532960627fa_sunaccdtpgenvcbcbcf.jpg,,,,,,,<,Face,,,,,1,,,,,,,o
351,27,Presentation,7,00158931230fb_sunaavchcbptaerhcfy.jpg,01005960627fa_sunbwyuesflwdpqtgoy.jpg,,,,,,,>,Place,,,,,0,,,,,,,o
352,27,Presentation,7,00868960307fa_sunajjxttslobudoqbv.jpg,00221940128fa_sunabcfpwlpolnutyju.jpg,,,,,,,<,Face,,,,,1,,,,,,,o
353,27,Presentation,7,00847940307fa_sunaivdjruhkrfywfed.jpg,00925960627fa_sunapqwnqzxlsfvgsjm.jpg,,,,,,,<,Place,,,,,1,,,,,,,x
354,27,Presentation,7,00142931230fb_sunaapxkpvrhpjplsok.jpg,00745941205fa_sunaeouogqolxvggaoq.jpg,,,,,,,>,Face,,,,,0,,,,,,,x
355,27,Presentation,7,00132931230fb_sunaanjcbzdvtvblsdy.jpg,00633940928fa_sunadbhmrgrrpyzglxs.jpg,,,,,,,>,Place,,,,,1,,,,,,,x
356,27,Presentation,7,00983960627fa_sunbfyvfqiimvdaxlqn.jpg,00705941205fa_sunadtlxenqqxsyjvix.jpg,,,,,,,<,Place,,,,,1,,,,,,,o
357,27,Presentation,7,00959960627fa_sunavxokzybtomhbmvm.jpg,00564940928fa_sunacmpqqfbsvlzinzl.jpg,,,,,,,<,Face,,,,,0,,,,,,,x
358,27,Presentation,7,00776941205fa_sunafxokyavhgptyfye.jpg,00185940422fb_sunaawqdbpihmlbwyyn.jpg,,,,,,,>,Place,,,,,1,,,,,,,o
359,27,Presentation,7,00922960627fa_sunapqkyghktgtosuuk.jpg,00109931230fa_sunaajuzribjrizdshh.jpg,,,,,,,>,Face,,,,,0,,,,,,,o
360,27,Memory,7,,,,,,,00564940928fa.jpg,,,,,,,,,,,,,,,
361,27,Memory,7,,,,,,,sunacepzfrmtkiqonpy.jpg,,,,,,,,,,,,,,,
362,27,Memory,7,,,,,,,00481940519fa.jpg,,,,,,,,,,,,,,,
363,27,Memory,7,,,,,,,00983960627fa.jpg,,,,,,,,,,,,,,,
364,27,Memory,7,,,,,,,00705941205fa.jpg,,,,,,,,,,,,,,,
365,27,Memory,7,,,,,,,00598941031fa.jpg,,,,,,,,,,,,,,,
366,27,Memory,7,,,,,,,sunaiwduelojtwaqeyh.jpg,,,,,,,,,,,,,,,
367,27,Memory,7,,,,,,,sunaavchcbptaerhcfy.jpg,,,,,,,,,,,,,,,
368,27,Memory,7,,,,,,,sunacxtcahkymosigud.jpg,,,,,,,,,,,,,,,
369,27,Memory,7,,,,,,,sunagoufulkpsxrmklt.jpg,,,,,,,,,,,,,,,
370,27,Memory,7,,,,,,,sunacmpqqfbsvlzinzl.jpg,,,,,,,,,,,,,,,
371,27,Memory,7,,,,,,,00158931230fb.jpg,,,,,,,,,,,,,,,
372,27,Memory,7,,,,,,,00568940928fa.jpg,,,,,,,,,,,,,,,
373,27,Memory,7,,,,,,,00142931230fb.jpg,,,,,,,,,,,,,,,
374,27,Memory,7,,,,,,,00787960620fa.jpg,,,,,,,,,,,,,,,
375,27,Memory,7,,,,,,,00868960307fa.jpg,,,,,,,,,,,,,,,
376,27,Memory,7,,,,,,,sunavhxgmgrqsaptynb.jpg,,,,,,,,,,,,,,,
377,27,Memory,7,,,,,,,00543940519fa.jpg,,,,,,,,,,,,,,,
378,27,Memory,7,,,,,,,sunaalhlvzmjmitybdn.jpg,,,,,,,,,,,,,,,
379,27,Memory,7,,,,,,,00959960627fa.jpg,,,,,,,,,,,,,,,
380,27,Memory,7,,,,,,,sunagdzlvkqtpnfxfcg.jpg,,,,,,,,,,,,,,,
381,27,Memory,7,,,,,,,00903960620fa.jpg,,,,,,,,,,,,,,,
382,27,Memory,7,,,,,,,00221940128fa.jpg,,,,,,,,,,,,,,,
383,27,Memory,7,,,,,,,sunabcfpwlpolnutyju.jpg,,,,,,,,,,,,,,,
384,27,Memory,7,,,,,,,00779941205fa.jpg,,,,,,,,,,,,,,,
385,27,Memory,7,,,,,,,00185940422fb.jpg,,,,,,,,,,,,,,,
386,27,Memory,7,,,,,,,sunbfyvfqiimvdaxlqn.jpg,,,,,,,,,,,,,,,
387,27,Memory,7,,,,,,,sunadtlxenqqxsyjvix.jpg,,,,,,,,,,,,,,,
388,27,Memory,7,,,,,,,sunavxokzybtomhbmvm.jpg,,,,,,,,,,,,,,,
389,27,Memory,7,,,,,,,00957960627fa.jpg,,,,,,,,,,,,,,,
390,27,Memory,7,,,,,,,00925960627fa.jpg,,,,,,,,,,,,,,,
391,27,Memory,7,,,,,,,sunacsdhbbsybcyxnel.jpg,,,,,,,,,,,,,,,
392,27,Memory,7,,,,,,,sunajjxttslobudoqbv.jpg,,,,,,,,,,,,,,,
393,27,Memory,7,,,,,,,sunaapxkpvrhpjplsok.jpg,,,,,,,,,,,,,,,
394,27,Memory,7,,,,,,,sunapqwnqzxlsfvgsjm.jpg,,,,,,,,,,,,,,,
395,27,Memory,7,,,,,,,00854940307fa.jpg,,,,,,,,,,,,,,,
396,27,Memory,7,,,,,,,sunaawqdbpihmlbwyyn.jpg,,,,,,,,,,,,,,,
397,27,Memory,7,,,,,,,sunanainkqdvktzoxyl.jpg,,,,,,,,,,,,,,,
398,27,Memory,7,,,,,,,00124931230fa.jpg,,,,,,,,,,,,,,,
399,27,Memory,7,,,,,,,sunabxsuqbleluwczoy.jpg,,,,,,,,,,,,,,,
