,Subject,Trial Type,Run,Cued Composite,Uncued Composite,Cued Face,Cued Place,Uncued Face,Uncued Place,Memory Image,Category,Cued Side,Cued Category,Attention Reaction Time (s),Familiarity Reaction Time (s),Familiarity Rating,Attention Level,Cue Validity,Post Invalid Cue,Pre Invalid Cue,Attention Button,Rating History,Stimulus Onset,Stimulus End,Attention Probe
0,33,Presentation,0,00184940128fa_sunaavtbadenwnzeutj.jpg,00967960627fa_sunbaejotfklekvpxcz.jpg,00184940128fa.jpg,sunaavtbadenwnzeutj.jpg,00967960627fa.jpg,sunbaejotfklekvpxcz.jpg,,,<,Place,,,,,1,,,,,,,x
1,33,Presentation,0,00859940307fa_sunaiycurtqsfkvcaso.jpg,00771941205fa_sunafowswglhxcsufpo.jpg,00859940307fa.jpg,sunaiycurtqsfkvcaso.jpg,00771941205fa.jpg,sunafowswglhxcsufpo.jpg,,,<,Place,,,,,0,,,,,,,o
2,33,Presentation,0,00791941205fa_sunagrmyoovzukhxmlo.jpg,00877960530fa_sunajxpkuhbizeveguy.jpg,00791941205fa.jpg,sunagrmyoovzukhxmlo.jpg,00877960530fa.jpg,sunajxpkuhbizeveguy.jpg,,,<,Place,,,,,1,,,,,,,x
3,33,Presentation,0,00276940422fa_sunabmytpyhsgigllxu.jpg,00925960627fa_sunapqwnqzxlsfvgsjm.jpg,00276940422fa.jpg,sunabmytpyhsgigllxu.jpg,00925960627fa.jpg,sunapqwnqzxlsfvgsjm.jpg,,,<,Place,,,,,1,,,,,,,o
4,33,Presentation,0,00145931230fb_sunaatjesvdupctftmn.jpg,00777941205fa_sunagcinxkccdtrjmlv.jpg,00145931230fb.jpg,sunaatjesvdupctftmn.jpg,00777941205fa.jpg,sunagcinxkccdtrjmlv.jpg,,,<,Place,,,,,1,,,,,,,o
5,33,Presentation,0,00096931230fa_sunaaiqiqcggrskoqgy.jpg,00111931230fb_sunaakgekhjklxmvulj.jpg,00096931230fa.jpg,sunaaiqiqcggrskoqgy.jpg,00111931230fb.jpg,sunaakgekhjklxmvulj.jpg,,,<,Place,,,,,1,,,,,,,o
6,33,Presentation,0,00481940519fa_sunabxsuqbleluwczoy.jpg,00893960530Fa_sunaloffvbvysigxent.jpg,00481940519fa.jpg,sunabxsuqbleluwczoy.jpg,00893960530Fa.jpg,sunaloffvbvysigxent.jpg,,,<,Place,,,,,1,,,,,,,o
7,33,Presentation,0,00788941205fa_sunagountlxpzkytsmp.jpg,00124931230fa_sunaalhlvzmjmitybdn.jpg,00788941205fa.jpg,sunagountlxpzkytsmp.jpg,00124931230fa.jpg,sunaalhlvzmjmitybdn.jpg,,,<,Place,,,,,1,,,,,,,o
8,33,Presentation,0,00720960620fa_sunaecpkgfewqqreqwe.jpg,00958960627fa_sunavspxmxubqaeidjt.jpg,00720960620fa.jpg,sunaecpkgfewqqreqwe.jpg,00958960627fa.jpg,sunavspxmxubqaeidjt.jpg,,,<,Place,,,,,0,,,,,,,o
9,33,Presentation,0,00125931230fa_sunaalltyvjhbzhkmvg.jpg,00818940307fa_sunahpblecxtmuzkmxb.jpg,00125931230fa.jpg,sunaalltyvjhbzhkmvg.jpg,00818940307fa.jpg,sunahpblecxtmuzkmxb.jpg,,,<,Place,,,,,1,,,,,,,o
10,33,Memory,0,,,,,,,00993960627fa.jpg,,,,,,,,,,,,,,,
11,33,Memory,0,,,,,,,00877960530fa.jpg,,,,,,,,,,,,,,,
12,33,Memory,0,,,,,,,sunabxsuqbleluwczoy.jpg,,,,,,,,,,,,,,,
13,33,Memory,0,,,,,,,sunajxpkuhbizeveguy.jpg,,,,,,,,,,,,,,,
14,33,Memory,0,,,,,,,00116931230fa.jpg,,,,,,,,,,,,,,,
15,33,Memory,0,,,,,,,00967960627fa.jpg,,,,,,,,,,,,,,,
16,33,Memory,0,,,,,,,00276940422fa.jpg,,,,,,,,,,,,,,,
17,33,Memory,0,,,,,,,sunaduslxfzlbxlllnz.jpg,,,,,,,,,,,,,,,
18,33,Memory,0,,,,,,,00540940519fa.jpg,,,,,,,,,,,,,,,
19,33,Memory,0,,,,,,,sunagrmyoovzukhxmlo.jpg,,,,,,,,,,,,,,,
20,33,Memory,0,,,,,,,sunaagcpoejbuzyvddd.jpg,,,,,,,,,,,,,,,
21,33,Memory,0,,,,,,,sunbpflsdaxnddnwcqi.jpg,,,,,,,,,,,,,,,
22,33,Memory,0,,,,,,,00089931230fa.jpg,,,,,,,,,,,,,,,
23,33,Memory,0,,,,,,,00771941205fa.jpg,,,,,,,,,,,,,,,
24,33,Memory,0,,,,,,,00787960620fa.jpg,,,,,,,,,,,,,,,
25,33,Memory,0,,,,,,,00889960530fa.jpg,,,,,,,,,,,,,,,
26,33,Memory,0,,,,,,,00789960620fa.jpg,,,,,,,,,,,,,,,
27,33,Memory,0,,,,,,,sunaalltyvjhbzhkmvg.jpg,,,,,,,,,,,,,,,
28,33,Memory,0,,,,,,,sunagoufulkpsxrmklt.jpg,,,,,,,,,,,,,,,
29,33,Memory,0,,,,,,,sunavspxmxubqaeidjt.jpg,,,,,,,,,,,,,,,
30,33,Memory,0,,,,,,,00705960530fa.jpg,,,,,,,,,,,,,,,
31,33,Memory,0,,,,,,,00481940519fa.jpg,,,,,,,,,,,,,,,
32,33,Memory,0,,,,,,,00720960620fa.jpg,,,,,,,,,,,,,,,
33,33,Memory,0,,,,,,,sunahpblecxtmuzkmxb.jpg,,,,,,,,,,,,,,,
34,33,Memory,0,,,,,,,sunacdnquypmsshhsbk.jpg,,,,,,,,,,,,,,,
35,33,Memory,0,,,,,,,00791941205fa.jpg,,,,,,,,,,,,,,,
36,33,Memory,0,,,,,,,00818940307fa.jpg,,,,,,,,,,,,,,,
37,33,Memory,0,,,,,,,sunaecpkgfewqqreqwe.jpg,,,,,,,,,,,,,,,
38,33,Memory,0,,,,,,,sunafowswglhxcsufpo.jpg,,,,,,,,,,,,,,,
39,33,Memory,0,,,,,,,sunbprywzqxjcezkbch.jpg,,,,,,,,,,,,,,,
40,33,Memory,0,,,,,,,sunabmytpyhsgigllxu.jpg,,,,,,,,,,,,,,,
41,33,Memory,0,,,,,,,sunaletopenvvozhpxc.jpg,,,,,,,,,,,,,,,
42,33,Memory,0,,,,,,,sunagpancjmxqfazssf.jpg,,,,,,,,,,,,,,,
43,33,Memory,0,,,,,,,00919960620fa.jpg,,,,,,,,,,,,,,,
44,33,Memory,0,,,,,,,00125931230fa.jpg,,,,,,,,,,,,,,,
45,33,Memory,0,,,,,,,00990960627fa.jpg,,,,,,,,,,,,,,,
46,33,Memory,0,,,,,,,sunaakqepfoeqomfgxf.jpg,,,,,,,,,,,,,,,
47,33,Memory,0,,,,,,,sunapmfmzadmosuogaz.jpg,,,,,,,,,,,,,,,
48,33,Memory,0,,,,,,,sunbaejotfklekvpxcz.jpg,,,,,,,,,,,,,,,
49,33,Memory,0,,,,,,,00958960627fa.jpg,,,,,,,,,,,,,,,
50,33,Presentation,1,00647941031fa_sunadflbrkckmepztql.jpg,00807941205fa_sunahawfngukizslzsd.jpg,00647941031fa.jpg,sunadflbrkckmepztql.jpg,00807941205fa.jpg,sunahawfngukizslzsd.jpg,,,>,Face,,,,,1,,,,,,,o
51,33,Presentation,1,00730960620fa_sunaekgzpfilgjxpeyq.jpg,00559940519fa_sunacjkmnpawfzbyvae.jpg,00730960620fa.jpg,sunaekgzpfilgjxpeyq.jpg,00559940519fa.jpg,sunacjkmnpawfzbyvae.jpg,,,>,Face,,,,,1,,,,,,,x
52,33,Presentation,1,00296940422fa_sunabrwnslxalcohfre.jpg,00129931230fb_sunaamsdyakblkfoydx.jpg,00296940422fa.jpg,sunabrwnslxalcohfre.jpg,00129931230fb.jpg,sunaamsdyakblkfoydx.jpg,,,>,Face,,,,,1,,,,,,,o
53,33,Presentation,1,00675941121fa_sunadoxcchtmsxewsau.jpg,00785941205fa_sunaglqunwuycxydmyu.jpg,00675941121fa.jpg,sunadoxcchtmsxewsau.jpg,00785941205fa.jpg,sunaglqunwuycxydmyu.jpg,,,>,Face,,,,,1,,,,,,,x
54,33,Presentation,1,00131931230fb_sunaangbuylfvckqqoo.jpg,00949960627fb_sunasnqkkyhilqkxiqm.jpg,00131931230fb.jpg,sunaangbuylfvckqqoo.jpg,00949960627fb.jpg,sunasnqkkyhilqkxiqm.jpg,,,>,Face,,,,,1,,,,,,,o
55,33,Presentation,1,00069931230fb_sunaaeowapdkwzqpgqr.jpg,00794960620fa_sunagtqhhwxjeuxdebe.jpg,00069931230fb.jpg,sunaaeowapdkwzqpgqr.jpg,00794960620fa.jpg,sunagtqhhwxjeuxdebe.jpg,,,>,Face,,,,,0,,,,,,,x
56,33,Presentation,1,00774941201fa_sunafvtpfczkzopbgue.jpg,00799941205fa_sunagutjvdvnhxejerz.jpg,00774941201fa.jpg,sunafvtpfczkzopbgue.jpg,00799941205fa.jpg,sunagutjvdvnhxejerz.jpg,,,>,Face,,,,,1,,,,,,,o
57,33,Presentation,1,00065931230fb_sunaaemixhfquhnxxlm.jpg,00063931230fa_sunaaelyvurpntclgau.jpg,00065931230fb.jpg,sunaaemixhfquhnxxlm.jpg,00063931230fa.jpg,sunaaelyvurpntclgau.jpg,,,>,Face,,,,,1,,,,,,,x
58,33,Presentation,1,00763941205fa_sunafhmnhsdurlvddpw.jpg,00898960530fa_sunamkmeblgteyggink.jpg,00763941205fa.jpg,sunafhmnhsdurlvddpw.jpg,00898960530fa.jpg,sunamkmeblgteyggink.jpg,,,>,Face,,,,,1,,,,,,,x
59,33,Presentation,1,00648941031fa_sunadfndyrtqqiasoig.jpg,00095931230fa_sunaahzooisqkwlxwoz.jpg,00648941031fa.jpg,sunadfndyrtqqiasoig.jpg,00095931230fa.jpg,sunaahzooisqkwlxwoz.jpg,,,>,Face,,,,,1,,,,,,,o
60,33,Memory,1,,,,,,,sunaaeowapdkwzqpgqr.jpg,,,,,,,,,,,,,,,
61,33,Memory,1,,,,,,,00884960530fa.jpg,,,,,,,,,,,,,,,
62,33,Memory,1,,,,,,,00774941201fa.jpg,,,,,,,,,,,,,,,
63,33,Memory,1,,,,,,,sunadflbrkckmepztql.jpg,,,,,,,,,,,,,,,
64,33,Memory,1,,,,,,,sunaamsdyakblkfoydx.jpg,,,,,,,,,,,,,,,
65,33,Memory,1,,,,,,,sunasnqkkyhilqkxiqm.jpg,,,,,,,,,,,,,,,
66,33,Memory,1,,,,,,,00568940928fa.jpg,,,,,,,,,,,,,,,
67,33,Memory,1,,,,,,,00866940307fa.jpg,,,,,,,,,,,,,,,
68,33,Memory,1,,,,,,,sunaqyylsngywqzwfmx.jpg,,,,,,,,,,,,,,,
69,33,Memory,1,,,,,,,sunafhmnhsdurlvddpw.jpg,,,,,,,,,,,,,,,
70,33,Memory,1,,,,,,,00938960627fa.jpg,,,,,,,,,,,,,,,
71,33,Memory,1,,,,,,,00949960627fb.jpg,,,,,,,,,,,,,,,
72,33,Memory,1,,,,,,,00208940128fa.jpg,,,,,,,,,,,,,,,
73,33,Memory,1,,,,,,,00302940422fa.jpg,,,,,,,,,,,,,,,
74,33,Memory,1,,,,,,,sunacsdhbbsybcyxnel.jpg,,,,,,,,,,,,,,,
75,33,Memory,1,,,,,,,sunaawsdjisukbbginm.jpg,,,,,,,,,,,,,,,
76,33,Memory,1,,,,,,,00129931230fb.jpg,,,,,,,,,,,,,,,
77,33,Memory,1,,,,,,,00647941031fa.jpg,,,,,,,,,,,,,,,
78,33,Memory,1,,,,,,,sunagutjvdvnhxejerz.jpg,,,,,,,,,,,,,,,
79,33,Memory,1,,,,,,,00799941205fa.jpg,,,,,,,,,,,,,,,
80,33,Memory,1,,,,,,,sunabizydfotqddlnjp.jpg,,,,,,,,,,,,,,,
81,33,Memory,1,,,,,,,sunakodkcslgqhqlgwl.jpg,,,,,,,,,,,,,,,
82,33,Memory,1,,,,,,,00807941205fa.jpg,,,,,,,,,,,,,,,
83,33,Memory,1,,,,,,,sunahawfngukizslzsd.jpg,,,,,,,,,,,,,,,
84,33,Memory,1,,,,,,,00266940128fb.jpg,,,,,,,,,,,,,,,
85,33,Memory,1,,,,,,,00262940128fa.jpg,,,,,,,,,,,,,,,
86,33,Memory,1,,,,,,,sunaazzyhbvqjpmazjq.jpg,,,,,,,,,,,,,,,
87,33,Memory,1,,,,,,,00069931230fb.jpg,,,,,,,,,,,,,,,
88,33,Memory,1,,,,,,,sunabkngeblodihjvbk.jpg,,,,,,,,,,,,,,,
89,33,Memory,1,,,,,,,00782941205fa.jpg,,,,,,,,,,,,,,,
90,33,Memory,1,,,,,,,sunadfndyrtqqiasoig.jpg,,,,,,,,,,,,,,,
91,33,Memory,1,,,,,,,sunafvtpfczkzopbgue.jpg,,,,,,,,,,,,,,,
92,33,Memory,1,,,,,,,00648941031fa.jpg,,,,,,,,,,,,,,,
93,33,Memory,1,,,,,,,00763941205fa.jpg,,,,,,,,,,,,,,,
94,33,Memory,1,,,,,,,sunagfvluwixdsozaql.jpg,,,,,,,,,,,,,,,
95,33,Memory,1,,,,,,,sunajbwkywmsqkldfml.jpg,,,,,,,,,,,,,,,
96,33,Memory,1,,,,,,,00191940128fb.jpg,,,,,,,,,,,,,,,
97,33,Memory,1,,,,,,,00785941205fa.jpg,,,,,,,,,,,,,,,
98,33,Memory,1,,,,,,,sunabtlfmiwtljmoues.jpg,,,,,,,,,,,,,,,
99,33,Memory,1,,,,,,,sunaglqunwuycxydmyu.jpg,,,,,,,,,,,,,,,
100,33,Presentation,2,00860940307fa_sunaizeyhvjzknwjudw.jpg,00158931230fb_sunaavchcbptaerhcfy.jpg,00860940307fa.jpg,sunaizeyhvjzknwjudw.jpg,00158931230fb.jpg,sunaavchcbptaerhcfy.jpg,,,>,Face,,,,,1,,,,,,,o
101,33,Presentation,2,00292940422fb_sunabrjdpmoedcdjbpo.jpg,00857940307fa_sunaiwfobocrruqznsv.jpg,00292940422fb.jpg,sunabrjdpmoedcdjbpo.jpg,00857940307fa.jpg,sunaiwfobocrruqznsv.jpg,,,>,Face,,,,,1,,,,,,,x
102,33,Presentation,2,00801941205fa_sunagvprlbprarvgdvj.jpg,00880960530fa_sunakmnfgklupjijsgf.jpg,00801941205fa.jpg,sunagvprlbprarvgdvj.jpg,00880960530fa.jpg,sunakmnfgklupjijsgf.jpg,,,>,Face,,,,,1,,,,,,,x
103,33,Presentation,2,00997960627fa_sunbtpilbhhbmhmeuzq.jpg,00280940422fb_sunabohxbskznglnrhv.jpg,00997960627fa.jpg,sunbtpilbhhbmhmeuzq.jpg,00280940422fb.jpg,sunabohxbskznglnrhv.jpg,,,>,Face,,,,,1,,,,,,,o
104,33,Presentation,2,00138931230fa_sunaapfaivxqoynnwwp.jpg,00101931230fb_sunaajqmsaavkmgbsth.jpg,00138931230fa.jpg,sunaapfaivxqoynnwwp.jpg,00101931230fb.jpg,sunaajqmsaavkmgbsth.jpg,,,>,Face,,,,,0,,,,,,,x
105,33,Presentation,2,00265940128fb_sunabkmdplkdbvxriff.jpg,01000960627fa_sunbvzmgrdvaakxusbu.jpg,00265940128fb.jpg,sunabkmdplkdbvxriff.jpg,01000960627fa.jpg,sunbvzmgrdvaakxusbu.jpg,,,>,Face,,,,,1,,,,,,,o
106,33,Presentation,2,00895960530fa_sunamczizlzavhzhpay.jpg,00839940307fa_sunaipyohrqlwngaqif.jpg,00895960530fa.jpg,sunamczizlzavhzhpay.jpg,00839940307fa.jpg,sunaipyohrqlwngaqif.jpg,,,>,Face,,,,,1,,,,,,,x
107,33,Presentation,2,00988960627fa_sunbmaiocftdtvnzgap.jpg,00147931230fb_sunaatpkocdkocwxpkb.jpg,00988960627fa.jpg,sunbmaiocftdtvnzgap.jpg,00147931230fb.jpg,sunaatpkocdkocwxpkb.jpg,,,>,Face,,,,,1,,,,,,,x
108,33,Presentation,2,00792941205fa_sunagsiwrmuixqgdimb.jpg,00902960530fa_sunanaacmmosxrfwmvl.jpg,00792941205fa.jpg,sunagsiwrmuixqgdimb.jpg,00902960530fa.jpg,sunanaacmmosxrfwmvl.jpg,,,>,Face,,,,,1,,,,,,,o
109,33,Presentation,2,00985960627fa_sunbgklxeqjhdbyfhhy.jpg,00914960620fa_sunaozisvwfbmlkfhzv.jpg,00985960627fa.jpg,sunbgklxeqjhdbyfhhy.jpg,00914960620fa.jpg,sunaozisvwfbmlkfhzv.jpg,,,>,Face,,,,,1,,,,,,,o
110,33,Memory,2,,,,,,,00263940128fb.jpg,,,,,,,,,,,,,,,
111,33,Memory,2,,,,,,,00860940307fa.jpg,,,,,,,,,,,,,,,
112,33,Memory,2,,,,,,,00961960627fa.jpg,,,,,,,,,,,,,,,
113,33,Memory,2,,,,,,,sunaatpkocdkocwxpkb.jpg,,,,,,,,,,,,,,,
114,33,Memory,2,,,,,,,00147931230fb.jpg,,,,,,,,,,,,,,,
115,33,Memory,2,,,,,,,sunabkmdplkdbvxriff.jpg,,,,,,,,,,,,,,,
116,33,Memory,2,,,,,,,sunaavchcbptaerhcfy.jpg,,,,,,,,,,,,,,,
117,33,Memory,2,,,,,,,00914960620fa.jpg,,,,,,,,,,,,,,,
118,33,Memory,2,,,,,,,sunalntxqqadigcletd.jpg,,,,,,,,,,,,,,,
119,33,Memory,2,,,,,,,sunbvzmgrdvaakxusbu.jpg,,,,,,,,,,,,,,,
120,33,Memory,2,,,,,,,00265940128fb.jpg,,,,,,,,,,,,,,,
121,33,Memory,2,,,,,,,sunagvprlbprarvgdvj.jpg,,,,,,,,,,,,,,,
122,33,Memory,2,,,,,,,sunaafjszryxyavjzln.jpg,,,,,,,,,,,,,,,
123,33,Memory,2,,,,,,,00801941205fa.jpg,,,,,,,,,,,,,,,
124,33,Memory,2,,,,,,,sunbxarcshsnqsefemx.jpg,,,,,,,,,,,,,,,
125,33,Memory,2,,,,,,,00498960627fa.jpg,,,,,,,,,,,,,,,
126,33,Memory,2,,,,,,,sunaiwfobocrruqznsv.jpg,,,,,,,,,,,,,,,
127,33,Memory,2,,,,,,,00892960530fa.jpg,,,,,,,,,,,,,,,
128,33,Memory,2,,,,,,,00158931230fb.jpg,,,,,,,,,,,,,,,
129,33,Memory,2,,,,,,,00911960530fa.jpg,,,,,,,,,,,,,,,
130,33,Memory,2,,,,,,,sunawotxrevnqvamsfp.jpg,,,,,,,,,,,,,,,
131,33,Memory,2,,,,,,,sunaooaqzputrowwbsw.jpg,,,,,,,,,,,,,,,
132,33,Memory,2,,,,,,,01007960627fa.jpg,,,,,,,,,,,,,,,
133,33,Memory,2,,,,,,,sunagsiwrmuixqgdimb.jpg,,,,,,,,,,,,,,,
134,33,Memory,2,,,,,,,00638941031fa.jpg,,,,,,,,,,,,,,,
135,33,Memory,2,,,,,,,00895960530fa.jpg,,,,,,,,,,,,,,,
136,33,Memory,2,,,,,,,00076931230fa.jpg,,,,,,,,,,,,,,,
137,33,Memory,2,,,,,,,sunaahedjlmtqekgyvj.jpg,,,,,,,,,,,,,,,
138,33,Memory,2,,,,,,,sunamczizlzavhzhpay.jpg,,,,,,,,,,,,,,,
139,33,Memory,2,,,,,,,sunaafewhewbxmjiurz.jpg,,,,,,,,,,,,,,,
140,33,Memory,2,,,,,,,00792941205fa.jpg,,,,,,,,,,,,,,,
141,33,Memory,2,,,,,,,sunabjuovqvyfuzvqwt.jpg,,,,,,,,,,,,,,,
142,33,Memory,2,,,,,,,sunaozisvwfbmlkfhzv.jpg,,,,,,,,,,,,,,,
143,33,Memory,2,,,,,,,00080931230fb.jpg,,,,,,,,,,,,,,,
144,33,Memory,2,,,,,,,00857940307fa.jpg,,,,,,,,,,,,,,,
145,33,Memory,2,,,,,,,01000960627fa.jpg,,,,,,,,,,,,,,,
146,33,Memory,2,,,,,,,00090931230fa.jpg,,,,,,,,,,,,,,,
147,33,Memory,2,,,,,,,sunadfktsqjthoglcsm.jpg,,,,,,,,,,,,,,,
148,33,Memory,2,,,,,,,sunabzjxlmkwnwzimua.jpg,,,,,,,,,,,,,,,
149,33,Memory,2,,,,,,,sunaizeyhvjzknwjudw.jpg,,,,,,,,,,,,,,,
150,33,Presentation,3,00290940422fa_sunabqowuarvqqcnipn.jpg,00909960530_sunaobtizabegtwfwul.jpg,00290940422fa.jpg,sunabqowuarvqqcnipn.jpg,00909960530.jpg,sunaobtizabegtwfwul.jpg,,,<,Place,,,,,1,,,,,,,x
151,33,Presentation,3,00557940519fa_sunachtuarilwyqnvjx.jpg,00154931230fa_sunaauueuhhvklldjik.jpg,00557940519fa.jpg,sunachtuarilwyqnvjx.jpg,00154931230fa.jpg,sunaauueuhhvklldjik.jpg,,,<,Place,,,,,1,,,,,,,o
152,33,Presentation,3,00822940307fa_sunahqrxievfeusiqlt.jpg,00989960627fa_sunbondbduabvijnmch.jpg,00822940307fa.jpg,sunahqrxievfeusiqlt.jpg,00989960627fa.jpg,sunbondbduabvijnmch.jpg,,,<,Place,,,,,0,,,,,,,o
153,33,Presentation,3,00887960530_sunalcrtwiycqobgelp.jpg,00073931230fa_sunaafbmtoniaasysgu.jpg,00887960530.jpg,sunalcrtwiycqobgelp.jpg,00073931230fa.jpg,sunaafbmtoniaasysgu.jpg,,,<,Place,,,,,1,,,,,,,x
154,33,Presentation,3,00564941031fa_sunacsaovnjezqwbykf.jpg,00163931230fb_sunaavodbcpygkggnfp.jpg,00564941031fa.jpg,sunacsaovnjezqwbykf.jpg,00163931230fb.jpg,sunaavodbcpygkggnfp.jpg,,,<,Place,,,,,1,,,,,,,x
155,33,Presentation,3,00098931230fa_sunaajpqmulidejvjsr.jpg,00316940422fa_sunabxmguapjekttvwm.jpg,00098931230fa.jpg,sunaajpqmulidejvjsr.jpg,00316940422fa.jpg,sunabxmguapjekttvwm.jpg,,,<,Place,,,,,1,,,,,,,o
156,33,Presentation,3,00571940928fa_sunacuatpqpqhyjhjqk.jpg,00564940928fa_sunacmpqqfbsvlzinzl.jpg,00571940928fa.jpg,sunacuatpqpqhyjhjqk.jpg,00564940928fa.jpg,sunacmpqqfbsvlzinzl.jpg,,,<,Place,,,,,1,,,,,,,o
157,33,Presentation,3,00760960620fa_sunaffstbkappprzxnv.jpg,00935960627fa_sunaqbmgkgqucajzrkp.jpg,00760960620fa.jpg,sunaffstbkappprzxnv.jpg,00935960627fa.jpg,sunaqbmgkgqucajzrkp.jpg,,,<,Place,,,,,1,,,,,,,x
158,33,Presentation,3,00081941031fa_sunaaftlyfudyzuhqzf.jpg,00061931230fb_sunaaekxzjzrfgtkwjf.jpg,00081941031fa.jpg,sunaaftlyfudyzuhqzf.jpg,00061931230fb.jpg,sunaaekxzjzrfgtkwjf.jpg,,,<,Place,,,,,1,,,,,,,x
159,33,Presentation,3,00999960627fa_sunbvbrvgbpanfrawft.jpg,00630941031fa_sunadakkdovnuzlycvp.jpg,00999960627fa.jpg,sunbvbrvgbpanfrawft.jpg,00630941031fa.jpg,sunadakkdovnuzlycvp.jpg,,,<,Place,,,,,1,,,,,,,o
160,33,Memory,3,,,,,,,sunaaekxzjzrfgtkwjf.jpg,,,,,,,,,,,,,,,
161,33,Memory,3,,,,,,,sunaavodbcpygkggnfp.jpg,,,,,,,,,,,,,,,
162,33,Memory,3,,,,,,,sunaddtdkycxbqlpfqa.jpg,,,,,,,,,,,,,,,
163,33,Memory,3,,,,,,,sunadtlxenqqxsyjvix.jpg,,,,,,,,,,,,,,,
164,33,Memory,3,,,,,,,sunaaheqzstzxuadglu.jpg,,,,,,,,,,,,,,,
165,33,Memory,3,,,,,,,sunaeoghzrjarigmwua.jpg,,,,,,,,,,,,,,,
166,33,Memory,3,,,,,,,00743941201fa.jpg,,,,,,,,,,,,,,,
167,33,Memory,3,,,,,,,00073931230fa.jpg,,,,,,,,,,,,,,,
168,33,Memory,3,,,,,,,00290940422fa.jpg,,,,,,,,,,,,,,,
169,33,Memory,3,,,,,,,00989960627fa.jpg,,,,,,,,,,,,,,,
170,33,Memory,3,,,,,,,00564941031fa.jpg,,,,,,,,,,,,,,,
171,33,Memory,3,,,,,,,sunalcrtwiycqobgelp.jpg,,,,,,,,,,,,,,,
172,33,Memory,3,,,,,,,sunaivdjruhkrfywfed.jpg,,,,,,,,,,,,,,,
173,33,Memory,3,,,,,,,sunbondbduabvijnmch.jpg,,,,,,,,,,,,,,,
174,33,Memory,3,,,,,,,sunahqrxievfeusiqlt.jpg,,,,,,,,,,,,,,,
175,33,Memory,3,,,,,,,00973960627fa.jpg,,,,,,,,,,,,,,,
176,33,Memory,3,,,,,,,sunacsaovnjezqwbykf.jpg,,,,,,,,,,,,,,,
177,33,Memory,3,,,,,,,00636941031fa.jpg,,,,,,,,,,,,,,,
178,33,Memory,3,,,,,,,sunbxzweleltykebgan.jpg,,,,,,,,,,,,,,,
179,33,Memory,3,,,,,,,00847940307fa.jpg,,,,,,,,,,,,,,,
180,33,Memory,3,,,,,,,00154931230fa.jpg,,,,,,,,,,,,,,,
181,33,Memory,3,,,,,,,sunaapllqyqlykszopd.jpg,,,,,,,,,,,,,,,
182,33,Memory,3,,,,,,,00140931230fb.jpg,,,,,,,,,,,,,,,
183,33,Memory,3,,,,,,,sunaauueuhhvklldjik.jpg,,,,,,,,,,,,,,,
184,33,Memory,3,,,,,,,00092931230fa.jpg,,,,,,,,,,,,,,,
185,33,Memory,3,,,,,,,00705941205fa.jpg,,,,,,,,,,,,,,,
186,33,Memory,3,,,,,,,sunabqowuarvqqcnipn.jpg,,,,,,,,,,,,,,,
187,33,Memory,3,,,,,,,sunaffstbkappprzxnv.jpg,,,,,,,,,,,,,,,
188,33,Memory,3,,,,,,,sunaejnvnpltdmhbcsi.jpg,,,,,,,,,,,,,,,
189,33,Memory,3,,,,,,,00728941205fa.jpg,,,,,,,,,,,,,,,
190,33,Memory,3,,,,,,,sunaafbmtoniaasysgu.jpg,,,,,,,,,,,,,,,
191,33,Memory,3,,,,,,,01009960627fa.jpg,,,,,,,,,,,,,,,
192,33,Memory,3,,,,,,,suncnkvbhypnivcohyx.jpg,,,,,,,,,,,,,,,
193,33,Memory,3,,,,,,,00061931230fb.jpg,,,,,,,,,,,,,,,
194,33,Memory,3,,,,,,,00887960530.jpg,,,,,,,,,,,,,,,
195,33,Memory,3,,,,,,,00163931230fb.jpg,,,,,,,,,,,,,,,
196,33,Memory,3,,,,,,,00760960620fa.jpg,,,,,,,,,,,,,,,
197,33,Memory,3,,,,,,,sunbbgtoeuzierkkajt.jpg,,,,,,,,,,,,,,,
198,33,Memory,3,,,,,,,00822940307fa.jpg,,,,,,,,,,,,,,,
199,33,Memory,3,,,,,,,01010960627fa.jpg,,,,,,,,,,,,,,,
200,33,Presentation,4,00864940307fa_sunajawzbrlrwafowen.jpg,00965960627fa_sunaydywdmvlfddbxbk.jpg,00864940307fa.jpg,sunajawzbrlrwafowen.jpg,00965960627fa.jpg,sunaydywdmvlfddbxbk.jpg,,,>,Place,,,,,1,,,,,,,o
201,33,Presentation,4,00773941201fa_sunafvcflzhlqloapyo.jpg,00780960530fa_sunagetqixeypsysbpn.jpg,00773941201fa.jpg,sunafvcflzhlqloapyo.jpg,00780960530fa.jpg,sunagetqixeypsysbpn.jpg,,,>,Place,,,,,1,,,,,,,x
202,33,Presentation,4,00650941031fa_sunadikxpvqeabxrvvc.jpg,00126931230fb_sunaamdjwemxpmmtypi.jpg,00650941031fa.jpg,sunadikxpvqeabxrvvc.jpg,00126931230fb.jpg,sunaamdjwemxpmmtypi.jpg,,,>,Place,,,,,1,,,,,,,x
203,33,Presentation,4,00745941205fa_sunaeouogqolxvggaoq.jpg,00120931230fa_sunaakxgygjfqrzpyoz.jpg,00745941205fa.jpg,sunaeouogqolxvggaoq.jpg,00120931230fa.jpg,sunaakxgygjfqrzpyoz.jpg,,,>,Place,,,,,1,,,,,,,x
204,33,Presentation,4,00723941201fa_sunaedtgwjvvziytspa.jpg,00952960627fa_sunathzzbcwjykldrem.jpg,00723941201fa.jpg,sunaedtgwjvvziytspa.jpg,00952960627fa.jpg,sunathzzbcwjykldrem.jpg,,,>,Place,,,,,1,,,,,,,x
205,33,Presentation,4,00725941201fa_sunaefgzwiramypjvtd.jpg,00921960627fa_sunapqkpqdfvxlbqwyo.jpg,00725941201fa.jpg,sunaefgzwiramypjvtd.jpg,00921960627fa.jpg,sunapqkpqdfvxlbqwyo.jpg,,,>,Place,,,,,1,,,,,,,o
206,33,Presentation,4,00529940519fa_sunacbeefkxpymwevpk.jpg,00986960627fa_sunbgzjryivyczuvkvm.jpg,00529940519fa.jpg,sunacbeefkxpymwevpk.jpg,00986960627fa.jpg,sunbgzjryivyczuvkvm.jpg,,,>,Place,,,,,1,,,,,,,x
207,33,Presentation,4,00966960627fa_sunaygrtwrwfezqjizr.jpg,00306940422fa_sunabueyoajufbkraki.jpg,00966960627fa.jpg,sunaygrtwrwfezqjizr.jpg,00306940422fa.jpg,sunabueyoajufbkraki.jpg,,,>,Place,,,,,1,,,,,,,x
208,33,Presentation,4,00933960627fa_sunapwjkcxdaeqehfql.jpg,00936960627fa_sunaqgjuuwvdcyiccjt.jpg,00933960627fa.jpg,sunapwjkcxdaeqehfql.jpg,00936960627fa.jpg,sunaqgjuuwvdcyiccjt.jpg,,,>,Place,,,,,1,,,,,,,x
209,33,Presentation,4,00631940928fa_sunadbdqzigzwipuipr.jpg,00811960530fa_sunahedfrhtcwpneund.jpg,00631940928fa.jpg,sunadbdqzigzwipuipr.jpg,00811960530fa.jpg,sunahedfrhtcwpneund.jpg,,,>,Place,,,,,1,,,,,,,x
210,33,Memory,4,,,,,,,00970960627fa.jpg,,,,,,,,,,,,,,,
211,33,Memory,4,,,,,,,00634940928fa.jpg,,,,,,,,,,,,,,,
212,33,Memory,4,,,,,,,00780960530fa.jpg,,,,,,,,,,,,,,,
213,33,Memory,4,,,,,,,sunacvzhvcksnwqcqbw.jpg,,,,,,,,,,,,,,,
214,33,Memory,4,,,,,,,00986960627fa.jpg,,,,,,,,,,,,,,,
215,33,Memory,4,,,,,,,sunadcphrizvfpljiqt.jpg,,,,,,,,,,,,,,,
216,33,Memory,4,,,,,,,00314940422fa.jpg,,,,,,,,,,,,,,,
217,33,Memory,4,,,,,,,00933960627fa.jpg,,,,,,,,,,,,,,,
218,33,Memory,4,,,,,,,sunbgzjryivyczuvkvm.jpg,,,,,,,,,,,,,,,
219,33,Memory,4,,,,,,,sunagetqixeypsysbpn.jpg,,,,,,,,,,,,,,,
220,33,Memory,4,,,,,,,sunafvcflzhlqloapyo.jpg,,,,,,,,,,,,,,,
221,33,Memory,4,,,,,,,sunaqgjuuwvdcyiccjt.jpg,,,,,,,,,,,,,,,
222,33,Memory,4,,,,,,,sunaguchqqnrtodtezq.jpg,,,,,,,,,,,,,,,
223,33,Memory,4,,,,,,,00965960627fa.jpg,,,,,,,,,,,,,,,
224,33,Memory,4,,,,,,,sunaakxgygjfqrzpyoz.jpg,,,,,,,,,,,,,,,
225,33,Memory,4,,,,,,,sunaajuzribjrizdshh.jpg,,,,,,,,,,,,,,,
226,33,Memory,4,,,,,,,00773960620fa.jpg,,,,,,,,,,,,,,,
227,33,Memory,4,,,,,,,00773941201fa.jpg,,,,,,,,,,,,,,,
228,33,Memory,4,,,,,,,00581940928fa.jpg,,,,,,,,,,,,,,,
229,33,Memory,4,,,,,,,00109931230fa.jpg,,,,,,,,,,,,,,,
230,33,Memory,4,,,,,,,sunapwjkcxdaeqehfql.jpg,,,,,,,,,,,,,,,
231,33,Memory,4,,,,,,,00120931230fa.jpg,,,,,,,,,,,,,,,
232,33,Memory,4,,,,,,,00270940422fb.jpg,,,,,,,,,,,,,,,
233,33,Memory,4,,,,,,,sunaygrtwrwfezqjizr.jpg,,,,,,,,,,,,,,,
234,33,Memory,4,,,,,,,sunbasypfgzjtomktmu.jpg,,,,,,,,,,,,,,,
235,33,Memory,4,,,,,,,sunabllobxadqcyttej.jpg,,,,,,,,,,,,,,,
236,33,Memory,4,,,,,,,sunafvsxtzaizojicxx.jpg,,,,,,,,,,,,,,,
237,33,Memory,4,,,,,,,sunadbdqzigzwipuipr.jpg,,,,,,,,,,,,,,,
238,33,Memory,4,,,,,,,00936960627fa.jpg,,,,,,,,,,,,,,,
239,33,Memory,4,,,,,,,00598941031fa.jpg,,,,,,,,,,,,,,,
240,33,Memory,4,,,,,,,sunacxtcahkymosigud.jpg,,,,,,,,,,,,,,,
241,33,Memory,4,,,,,,,00745941205fa.jpg,,,,,,,,,,,,,,,
242,33,Memory,4,,,,,,,00598940928fa.jpg,,,,,,,,,,,,,,,
243,33,Memory,4,,,,,,,sunaeouogqolxvggaoq.jpg,,,,,,,,,,,,,,,
244,33,Memory,4,,,,,,,sunabwmcbaxwioksdgw.jpg,,,,,,,,,,,,,,,
245,33,Memory,4,,,,,,,sunaydywdmvlfddbxbk.jpg,,,,,,,,,,,,,,,
246,33,Memory,4,,,,,,,00631940928fa.jpg,,,,,,,,,,,,,,,
247,33,Memory,4,,,,,,,00796941205fa.jpg,,,,,,,,,,,,,,,
248,33,Memory,4,,,,,,,00966960627fa.jpg,,,,,,,,,,,,,,,
249,33,Memory,4,,,,,,,sunacxeheuiigkcgquf.jpg,,,,,,,,,,,,,,,
250,33,Presentation,5,00239940128fa_sunabctlikybqabezjv.jpg,00977960627fa_sunbbxkanhzjgbwyxqs.jpg,00239940128fa.jpg,sunabctlikybqabezjv.jpg,00977960627fa.jpg,sunbbxkanhzjgbwyxqs.jpg,,,<,Face,,,,,1,,,,,,,x
251,33,Presentation,5,00770941201fa_sunaflojskatpeqyzqp.jpg,00939960627fa_sunarceibpcyacbmfga.jpg,00770941201fa.jpg,sunaflojskatpeqyzqp.jpg,00939960627fa.jpg,sunarceibpcyacbmfga.jpg,,,<,Face,,,,,1,,,,,,,o
252,33,Presentation,5,00727941205fa_sunaeisnjeetzmkbuad.jpg,00804960530fa_sunagwswhkvnsmuszlz.jpg,00727941205fa.jpg,sunaeisnjeetzmkbuad.jpg,00804960530fa.jpg,sunagwswhkvnsmuszlz.jpg,,,<,Face,,,,,1,,,,,,,x
253,33,Presentation,5,00851940307fa_sunaivflshbyfrfzhqb.jpg,00507940519fa_sunacacflqoyxhsqzhe.jpg,00851940307fa.jpg,sunaivflshbyfrfzhqb.jpg,00507940519fa.jpg,sunacacflqoyxhsqzhe.jpg,,,<,Face,,,,,1,,,,,,,o
254,33,Presentation,5,00795941205fa_sunagtumacdlmciqamz.jpg,00901960530fa_sunammbnoambmhdxdwd.jpg,00795941205fa.jpg,sunagtumacdlmciqamz.jpg,00901960530fa.jpg,sunammbnoambmhdxdwd.jpg,,,<,Face,,,,,1,,,,,,,o
255,33,Presentation,5,00719960620fa_sunadzuvtmtmgupotmf.jpg,00829940307fa_sunahwgbqkqcrwprgvh.jpg,00719960620fa.jpg,sunadzuvtmtmgupotmf.jpg,00829940307fa.jpg,sunahwgbqkqcrwprgvh.jpg,,,<,Face,,,,,1,,,,,,,x
256,33,Presentation,5,00221940128fa_sunabcfpwlpolnutyju.jpg,00747941201fa_sunaeutbrtswvsozxyk.jpg,00221940128fa.jpg,sunabcfpwlpolnutyju.jpg,00747941201fa.jpg,sunaeutbrtswvsozxyk.jpg,,,<,Face,,,,,1,,,,,,,x
257,33,Presentation,5,00848940307fa_sunaivdylrawbmhryfp.jpg,00983960627fa_sunbfyvfqiimvdaxlqn.jpg,00848940307fa.jpg,sunaivdylrawbmhryfp.jpg,00983960627fa.jpg,sunbfyvfqiimvdaxlqn.jpg,,,<,Face,,,,,1,,,,,,,o
258,33,Presentation,5,00149931230fa_sunaauglwmctnkxyird.jpg,00245940128fa_sunabeyhmxodahoieyk.jpg,00149931230fa.jpg,sunaauglwmctnkxyird.jpg,00245940128fa.jpg,sunabeyhmxodahoieyk.jpg,,,<,Face,,,,,1,,,,,,,o
259,33,Presentation,5,01002960627fb_sunbwaafjdebjzttuvq.jpg,00209940128fb_sunabaergayifsgacxt.jpg,01002960627fb.jpg,sunbwaafjdebjzttuvq.jpg,00209940128fb.jpg,sunabaergayifsgacxt.jpg,,,<,Face,,,,,1,,,,,,,x
260,33,Memory,5,,,,,,,01002960627fb.jpg,,,,,,,,,,,,,,,
261,33,Memory,5,,,,,,,00901960530fa.jpg,,,,,,,,,,,,,,,
262,33,Memory,5,,,,,,,sunaeomlfaabhpswasy.jpg,,,,,,,,,,,,,,,
263,33,Memory,5,,,,,,,00926960627Fa.jpg,,,,,,,,,,,,,,,
264,33,Memory,5,,,,,,,sunaofikylqtxphvdem.jpg,,,,,,,,,,,,,,,
265,33,Memory,5,,,,,,,sunabcfpwlpolnutyju.jpg,,,,,,,,,,,,,,,
266,33,Memory,5,,,,,,,00221940128fa.jpg,,,,,,,,,,,,,,,
267,33,Memory,5,,,,,,,sunbwyuesflwdpqtgoy.jpg,,,,,,,,,,,,,,,
268,33,Memory,5,,,,,,,sunarfdklgdnjgeqfjg.jpg,,,,,,,,,,,,,,,
269,33,Memory,5,,,,,,,00727941205fa.jpg,,,,,,,,,,,,,,,
270,33,Memory,5,,,,,,,00942960627fa.jpg,,,,,,,,,,,,,,,
271,33,Memory,5,,,,,,,01005960627fa.jpg,,,,,,,,,,,,,,,
272,33,Memory,5,,,,,,,00910960530fa.jpg,,,,,,,,,,,,,,,
273,33,Memory,5,,,,,,,00102931230fa.jpg,,,,,,,,,,,,,,,
274,33,Memory,5,,,,,,,sunagwswhkvnsmuszlz.jpg,,,,,,,,,,,,,,,
275,33,Memory,5,,,,,,,sunagjeesomrwjsfqie.jpg,,,,,,,,,,,,,,,
276,33,Memory,5,,,,,,,sunabeyhmxodahoieyk.jpg,,,,,,,,,,,,,,,
277,33,Memory,5,,,,,,,sunaeutbrtswvsozxyk.jpg,,,,,,,,,,,,,,,
278,33,Memory,5,,,,,,,sunapqwoeotxshkukbh.jpg,,,,,,,,,,,,,,,
279,33,Memory,5,,,,,,,sunbwaafjdebjzttuvq.jpg,,,,,,,,,,,,,,,
280,33,Memory,5,,,,,,,sunaptrqvaooxfvktvw.jpg,,,,,,,,,,,,,,,
281,33,Memory,5,,,,,,,00931960627fa.jpg,,,,,,,,,,,,,,,
282,33,Memory,5,,,,,,,00245940128fa.jpg,,,,,,,,,,,,,,,
283,33,Memory,5,,,,,,,00744941201fa.jpg,,,,,,,,,,,,,,,
284,33,Memory,5,,,,,,,00804960530fa.jpg,,,,,,,,,,,,,,,
285,33,Memory,5,,,,,,,sunaemcowdozyphwknd.jpg,,,,,,,,,,,,,,,
286,33,Memory,5,,,,,,,00747941201fa.jpg,,,,,,,,,,,,,,,
287,33,Memory,5,,,,,,,00851940307fa.jpg,,,,,,,,,,,,,,,
288,33,Memory,5,,,,,,,00741941201fa.jpg,,,,,,,,,,,,,,,
289,33,Memory,5,,,,,,,00507940519fa.jpg,,,,,,,,,,,,,,,
290,33,Memory,5,,,,,,,sunammbnoambmhdxdwd.jpg,,,,,,,,,,,,,,,
291,33,Memory,5,,,,,,,sunaivflshbyfrfzhqb.jpg,,,,,,,,,,,,,,,
292,33,Memory,5,,,,,,,sunaddsaeicthrfbkhe.jpg,,,,,,,,,,,,,,,
293,33,Memory,5,,,,,,,sunaeisnjeetzmkbuad.jpg,,,,,,,,,,,,,,,
294,33,Memory,5,,,,,,,sunadzuvtmtmgupotmf.jpg,,,,,,,,,,,,,,,
295,33,Memory,5,,,,,,,00719960620fa.jpg,,,,,,,,,,,,,,,
296,33,Memory,5,,,,,,,00635941031fa.jpg,,,,,,,,,,,,,,,
297,33,Memory,5,,,,,,,sunacacflqoyxhsqzhe.jpg,,,,,,,,,,,,,,,
298,33,Memory,5,,,,,,,sunaajspcoepticvplv.jpg,,,,,,,,,,,,,,,
299,33,Memory,5,,,,,,,00783941205fa.jpg,,,,,,,,,,,,,,,
300,33,Presentation,6,00984960627fa_sunbfzchmomnvzhbxdg.jpg,00790941205fa_sunagpjzsbltchlwvou.jpg,00984960627fa.jpg,sunbfzchmomnvzhbxdg.jpg,00790941205fa.jpg,sunagpjzsbltchlwvou.jpg,,,<,Face,,,,,1,,,,,,,o
301,33,Presentation,6,00915960620fa_sunapileznnbbmrwoei.jpg,00908960530fa_sunanwjjyqqwzqrqagd.jpg,00915960620fa.jpg,sunapileznnbbmrwoei.jpg,00908960530fa.jpg,sunanwjjyqqwzqrqagd.jpg,,,<,Face,,,,,1,,,,,,,o
302,33,Presentation,6,00944960627fa_sunasbbntuiheekqyaq.jpg,00235940128fb_sunabclssnoeuigtawp.jpg,00944960627fa.jpg,sunasbbntuiheekqyaq.jpg,00235940128fb.jpg,sunabclssnoeuigtawp.jpg,,,<,Face,,,,,1,,,,,,,o
303,33,Presentation,6,00978960627fa_sunbddbivbptlrlauhy.jpg,00609940928fa_sunacycdoztxoluxjyk.jpg,00978960627fa.jpg,sunbddbivbptlrlauhy.jpg,00609940928fa.jpg,sunacycdoztxoluxjyk.jpg,,,<,Face,,,,,0,,,,,,,x
304,33,Presentation,6,00779941205fa_sunagdzlvkqtpnfxfcg.jpg,00929960627fa_sunaprnrbmgkomdbchr.jpg,00779941205fa.jpg,sunagdzlvkqtpnfxfcg.jpg,00929960627fa.jpg,sunaprnrbmgkomdbchr.jpg,,,<,Face,,,,,1,,,,,,,x
305,33,Presentation,6,00162931230fb_sunaavjinpnkappuonm.jpg,00836940307fa_sunainqelldeebvxtcz.jpg,00162931230fb.jpg,sunaavjinpnkappuonm.jpg,00836940307fa.jpg,sunainqelldeebvxtcz.jpg,,,<,Face,,,,,1,,,,,,,x
306,33,Presentation,6,00214940128fa_sunabbafjowbzcvbucc.jpg,00483940519fa_sunabyvpwkgsjtijdwj.jpg,00214940128fa.jpg,sunabbafjowbzcvbucc.jpg,00483940519fa.jpg,sunabyvpwkgsjtijdwj.jpg,,,<,Face,,,,,1,,,,,,,x
307,33,Presentation,6,00218940128fa_sunabbwggenhfbftyvi.jpg,00142931230fb_sunaapxkpvrhpjplsok.jpg,00218940128fa.jpg,sunabbwggenhfbftyvi.jpg,00142931230fb.jpg,sunaapxkpvrhpjplsok.jpg,,,<,Face,,,,,1,,,,,,,o
308,33,Presentation,6,00762941201fa_sunafgzgbisbopcyslr.jpg,00543940519fa_sunacepzfrmtkiqonpy.jpg,00762941201fa.jpg,sunafgzgbisbopcyslr.jpg,00543940519fa.jpg,sunacepzfrmtkiqonpy.jpg,,,<,Face,,,,,0,,,,,,,o
309,33,Presentation,6,00077931230fb_sunaafgqutfaishsxyu.jpg,00132931230fb_sunaanjcbzdvtvblsdy.jpg,00077931230fb.jpg,sunaafgqutfaishsxyu.jpg,00132931230fb.jpg,sunaanjcbzdvtvblsdy.jpg,,,<,Face,,,,,1,,,,,,,o
310,33,Memory,6,,,,,,,sunaknlirqjqiwbbeeg.jpg,,,,,,,,,,,,,,,
311,33,Memory,6,,,,,,,sunagdzlvkqtpnfxfcg.jpg,,,,,,,,,,,,,,,
312,33,Memory,6,,,,,,,sunafpfpiiujzoesnqg.jpg,,,,,,,,,,,,,,,
313,33,Memory,6,,,,,,,00483940519fa.jpg,,,,,,,,,,,,,,,
314,33,Memory,6,,,,,,,00882960530fa.jpg,,,,,,,,,,,,,,,
315,33,Memory,6,,,,,,,sunaanjcbzdvtvblsdy.jpg,,,,,,,,,,,,,,,
316,33,Memory,6,,,,,,,00929960627fa.jpg,,,,,,,,,,,,,,,
317,33,Memory,6,,,,,,,sunabbwggenhfbftyvi.jpg,,,,,,,,,,,,,,,
318,33,Memory,6,,,,,,,sunafijbgncijwykrnl.jpg,,,,,,,,,,,,,,,
319,33,Memory,6,,,,,,,sunavxokzybtomhbmvm.jpg,,,,,,,,,,,,,,,
320,33,Memory,6,,,,,,,00960960627fa.jpg,,,,,,,,,,,,,,,
321,33,Memory,6,,,,,,,sunaaylzyqlqrsmfwif.jpg,,,,,,,,,,,,,,,
322,33,Memory,6,,,,,,,00122931230fa.jpg,,,,,,,,,,,,,,,
323,33,Memory,6,,,,,,,00766960620fa.jpg,,,,,,,,,,,,,,,
324,33,Memory,6,,,,,,,sunaakxjfbrrequcjmx.jpg,,,,,,,,,,,,,,,
325,33,Memory,6,,,,,,,sunabanoxjtqxamkucc.jpg,,,,,,,,,,,,,,,
326,33,Memory,6,,,,,,,sunabbafjowbzcvbucc.jpg,,,,,,,,,,,,,,,
327,33,Memory,6,,,,,,,00543940519fa.jpg,,,,,,,,,,,,,,,
328,33,Memory,6,,,,,,,sunacepzfrmtkiqonpy.jpg,,,,,,,,,,,,,,,
329,33,Memory,6,,,,,,,sunabyvpwkgsjtijdwj.jpg,,,,,,,,,,,,,,,
330,33,Memory,6,,,,,,,sunaprnrbmgkomdbchr.jpg,,,,,,,,,,,,,,,
331,33,Memory,6,,,,,,,sunanwjjyqqwzqrqagd.jpg,,,,,,,,,,,,,,,
332,33,Memory,6,,,,,,,00062931230fb.jpg,,,,,,,,,,,,,,,
333,33,Memory,6,,,,,,,00772941201fa.jpg,,,,,,,,,,,,,,,
334,33,Memory,6,,,,,,,00218940128fa.jpg,,,,,,,,,,,,,,,
335,33,Memory,6,,,,,,,sunaaelotvjgibjtjhs.jpg,,,,,,,,,,,,,,,
336,33,Memory,6,,,,,,,sunawksfbacycuhbrsc.jpg,,,,,,,,,,,,,,,
337,33,Memory,6,,,,,,,sunafgzgbisbopcyslr.jpg,,,,,,,,,,,,,,,
338,33,Memory,6,,,,,,,00762941201fa.jpg,,,,,,,,,,,,,,,
339,33,Memory,6,,,,,,,00908960530fa.jpg,,,,,,,,,,,,,,,
340,33,Memory,6,,,,,,,00959960627fa.jpg,,,,,,,,,,,,,,,
341,33,Memory,6,,,,,,,sunahuynahneraqftyz.jpg,,,,,,,,,,,,,,,
342,33,Memory,6,,,,,,,00214940128fa.jpg,,,,,,,,,,,,,,,
343,33,Memory,6,,,,,,,00197940128fa.jpg,,,,,,,,,,,,,,,
344,33,Memory,6,,,,,,,00132931230fb.jpg,,,,,,,,,,,,,,,
345,33,Memory,6,,,,,,,sunbddbivbptlrlauhy.jpg,,,,,,,,,,,,,,,
346,33,Memory,6,,,,,,,00779941205fa.jpg,,,,,,,,,,,,,,,
347,33,Memory,6,,,,,,,00978960627fa.jpg,,,,,,,,,,,,,,,
348,33,Memory,6,,,,,,,00210940128fb.jpg,,,,,,,,,,,,,,,
349,33,Memory,6,,,,,,,00828940307fa.jpg,,,,,,,,,,,,,,,
350,33,Presentation,7,00972960627fa_sunbbfqwjpdxniyhies.jpg,00937960627fa_sunaqsolmfydodnakub.jpg,00972960627fa.jpg,sunbbfqwjpdxniyhies.jpg,00937960627fa.jpg,sunaqsolmfydodnakub.jpg,,,>,Place,,,,,1,,,,,,,x
351,33,Presentation,7,00136931230fb_sunaanptmsknhirrzed.jpg,00947960627fa_sunasmmcxdddtmtazwx.jpg,00136931230fb.jpg,sunaanptmsknhirrzed.jpg,00947960627fa.jpg,sunasmmcxdddtmtazwx.jpg,,,>,Place,,,,,1,,,,,,,x
352,33,Presentation,7,00750941201fa_sunaeuzwggvibufclwf.jpg,00060931230fa_sunaaehaikpckyjsety.jpg,00750941201fa.jpg,sunaeuzwggvibufclwf.jpg,00060931230fa.jpg,sunaaehaikpckyjsety.jpg,,,>,Place,,,,,1,,,,,,,x
353,33,Presentation,7,00694941121fa_sunadrmfzmstgdjdcod.jpg,00093931230fa_sunaahwnmtqsrhocysw.jpg,00694941121fa.jpg,sunadrmfzmstgdjdcod.jpg,00093931230fa.jpg,sunaahwnmtqsrhocysw.jpg,,,>,Place,,,,,1,,,,,,,o
354,33,Presentation,7,00906960530fa_sunantryfbloeaomfta.jpg,00211940128fa_sunabasphceswhwwqvv.jpg,00906960530fa.jpg,sunantryfbloeaomfta.jpg,00211940128fa.jpg,sunabasphceswhwwqvv.jpg,,,>,Place,,,,,1,,,,,,,o
355,33,Presentation,7,00589940928fa_sunacwggadqsfpovdjv.jpg,00953960627fa_sunatstrpjxhvtbaczf.jpg,00589940928fa.jpg,sunacwggadqsfpovdjv.jpg,00953960627fa.jpg,sunatstrpjxhvtbaczf.jpg,,,>,Place,,,,,1,,,,,,,x
356,33,Presentation,7,00903960620fa_sunanainkqdvktzoxyl.jpg,00227940128fa_sunabckqabszusgcykj.jpg,00903960620fa.jpg,sunanainkqdvktzoxyl.jpg,00227940128fa.jpg,sunabckqabszusgcykj.jpg,,,>,Place,,,,,1,,,,,,,o
357,33,Presentation,7,00786941205fa_sunagmhildamktmqjss.jpg,00676941121fa_sunadpnqovzckyikrjo.jpg,00786941205fa.jpg,sunagmhildamktmqjss.jpg,00676941121fa.jpg,sunadpnqovzckyikrjo.jpg,,,>,Place,,,,,0,,,,,,,o
358,33,Presentation,7,00749941201fa_sunaeuvjbmdpknaqqaj.jpg,00260940128fa_sunabgfhvifeijihhjw.jpg,00749941201fa.jpg,sunaeuvjbmdpknaqqaj.jpg,00260940128fa.jpg,sunabgfhvifeijihhjw.jpg,,,>,Place,,,,,1,,,,,,,x
359,33,Presentation,7,00784941205fb_sunagjzcrjvmxzqzljx.jpg,00082931230fa_sunaafvitpexrpvumsa.jpg,00784941205fb.jpg,sunagjzcrjvmxzqzljx.jpg,00082931230fa.jpg,sunaafvitpexrpvumsa.jpg,,,>,Place,,,,,1,,,,,,,x
360,33,Memory,7,,,,,,,sunabgfhvifeijihhjw.jpg,,,,,,,,,,,,,,,
361,33,Memory,7,,,,,,,sunaqsolmfydodnakub.jpg,,,,,,,,,,,,,,,
362,33,Memory,7,,,,,,,sunbesrwkdsffeogeqq.jpg,,,,,,,,,,,,,,,
363,33,Memory,7,,,,,,,sunasmmcxdddtmtazwx.jpg,,,,,,,,,,,,,,,
364,33,Memory,7,,,,,,,sunaetydippjxikifsb.jpg,,,,,,,,,,,,,,,
365,33,Memory,7,,,,,,,sunagmhildamktmqjss.jpg,,,,,,,,,,,,,,,
366,33,Memory,7,,,,,,,00749941201fa.jpg,,,,,,,,,,,,,,,
367,33,Memory,7,,,,,,,sunadbhmrgrrpyzglxs.jpg,,,,,,,,,,,,,,,
368,33,Memory,7,,,,,,,00060931230fa.jpg,,,,,,,,,,,,,,,
369,33,Memory,7,,,,,,,sunakgbnzxmfohgehnu.jpg,,,,,,,,,,,,,,,
370,33,Memory,7,,,,,,,sunaafvitpexrpvumsa.jpg,,,,,,,,,,,,,,,
371,33,Memory,7,,,,,,,sunbbegcweqnetpdlrh.jpg,,,,,,,,,,,,,,,
372,33,Memory,7,,,,,,,00876960620fa.jpg,,,,,,,,,,,,,,,
373,33,Memory,7,,,,,,,00982960627fa.jpg,,,,,,,,,,,,,,,
374,33,Memory,7,,,,,,,00136931230fb.jpg,,,,,,,,,,,,,,,
375,33,Memory,7,,,,,,,00746941201fa.jpg,,,,,,,,,,,,,,,
376,33,Memory,7,,,,,,,00900960530fa.jpg,,,,,,,,,,,,,,,
377,33,Memory,7,,,,,,,00144931230fb.jpg,,,,,,,,,,,,,,,
378,33,Memory,7,,,,,,,00937960627fa.jpg,,,,,,,,,,,,,,,
379,33,Memory,7,,,,,,,sunaeuvjbmdpknaqqaj.jpg,,,,,,,,,,,,,,,
380,33,Memory,7,,,,,,,sunajwqkfsykceonyig.jpg,,,,,,,,,,,,,,,
381,33,Memory,7,,,,,,,00878960530fa.jpg,,,,,,,,,,,,,,,
382,33,Memory,7,,,,,,,00633940928fa.jpg,,,,,,,,,,,,,,,
383,33,Memory,7,,,,,,,00784941205fb.jpg,,,,,,,,,,,,,,,
384,33,Memory,7,,,,,,,sunafxokyavhgptyfye.jpg,,,,,,,,,,,,,,,
385,33,Memory,7,,,,,,,00906960530fa.jpg,,,,,,,,,,,,,,,
386,33,Memory,7,,,,,,,00971960627fa.jpg,,,,,,,,,,,,,,,
387,33,Memory,7,,,,,,,00082931230fa.jpg,,,,,,,,,,,,,,,
388,33,Memory,7,,,,,,,sunantryfbloeaomfta.jpg,,,,,,,,,,,,,,,
389,33,Memory,7,,,,,,,00947960627fa.jpg,,,,,,,,,,,,,,,
390,33,Memory,7,,,,,,,sunaaehaikpckyjsety.jpg,,,,,,,,,,,,,,,
391,33,Memory,7,,,,,,,sunamlotskmmsjeogby.jpg,,,,,,,,,,,,,,,
392,33,Memory,7,,,,,,,00260940128fa.jpg,,,,,,,,,,,,,,,
393,33,Memory,7,,,,,,,00786941205fa.jpg,,,,,,,,,,,,,,,
394,33,Memory,7,,,,,,,sunaathajvxrgptwhoj.jpg,,,,,,,,,,,,,,,
395,33,Memory,7,,,,,,,00574940928fa.jpg,,,,,,,,,,,,,,,
396,33,Memory,7,,,,,,,sunaanptmsknhirrzed.jpg,,,,,,,,,,,,,,,
397,33,Memory,7,,,,,,,sunacvbrcejzwmcgnoq.jpg,,,,,,,,,,,,,,,
398,33,Memory,7,,,,,,,00776941205fa.jpg,,,,,,,,,,,,,,,
399,33,Memory,7,,,,,,,sunagjzcrjvmxzqzljx.jpg,,,,,,,,,,,,,,,
