,Subject,Trial Type,Run,Cued Composite,Uncued Composite,Cued Face,Cued Place,Uncued Face,Uncued Place,Memory Image,Category,Cued Side,Cued Category,Attention Reaction Time (s),Familiarity Reaction Time (s),Familiarity Rating,Attention Level,Cue Validity,Post Invalid Cue,Pre Invalid Cue,Attention Button,Rating History,Stimulus Onset,Stimulus End,Attention Probe
210,10,Memory,4,,,,,,,sunabueyoajufbkraki.jpg,,,,,1.587,1.0,,,,,,,1538593124.129507,1538593126.197718,
211,10,Memory,4,,,,,,,00306940422fa.jpg,,,,,0.921,1.0,,,,,,,1538593127.496923,1538593129.499003,
212,10,Memory,4,,,,,,,00122931230fa.jpg,,,,,0.985,1.0,,,,,,,1538593130.782241,1538593132.782012,
213,10,Memory,4,,,,,,,sunacvbrcejzwmcgnoq.jpg,,,,,1.504,1.0,,,,,,,1538593134.032455,1538593136.033241,
214,10,Memory,4,,,,,,,sunagmwxxwymwojbvgi.jpg,,,,,1.186,4.0,,,,,,,1538593137.283753,1538593139.283492,
215,10,Memory,4,,,,,,,00787941205fa.jpg,,,,,0.719,1.0,,,,,,,1538593140.534681,1538593142.535632,
216,10,Memory,4,,,,,,,00794960620fa.jpg,,,,,1.154,3.0,,,,,,,1538593143.785841,1538593145.787028,
217,10,Memory,4,,,,,,,sunauburywlkjszngcq.jpg,,,,,1.419,1.0,,,,,,,1538593147.053857,1538593149.053948,
218,10,Memory,4,,,,,,,00984960627fa.jpg,,,,,0.954,1.0,,,,,,,1538593150.305271,1538593152.305302,
219,10,Memory,4,,,,,,,00316940422fa.jpg,,,,,1.055,3.0,,,,,,,1538593153.555127,1538593155.556461,
220,10,Memory,4,,,,,,,sunadflbrkckmepztql.jpg,,,,,1.437,1.0,,,,,,,1538593156.823628,1538593158.823595,
221,10,Memory,4,,,,,,,00705960530fa.jpg,,,,,0.786,1.0,,,,,,,1538593160.074801,1538593162.074743,
222,10,Memory,4,,,,,,,sunavxokzybtomhbmvm.jpg,,,,,1.97,4.0,,,,,,,1538593163.325745,1538593165.325882,
223,10,Memory,4,,,,,,,00929960627fa.jpg,,,,,0.67,1.0,,,,,,,1538593166.693247,1538593168.693234,
224,10,Memory,4,,,,,,,00774941201fa.jpg,,,,,0.92,3.0,,,,,,,1538593169.9443,1538593171.944309,
225,10,Memory,4,,,,,,,sunacsaovnjezqwbykf.jpg,,,,,1.754,4.0,,,,,,,1538593173.295391,1538593175.296498,
226,10,Memory,4,,,,,,,00638941031fa.jpg,,,,,1.353,1.0,,,,,,,1538593176.546374,1538593178.546712,
227,10,Memory,4,,,,,,,00124931230fa.jpg,,,,,0.503,1.0,,,,,,,1538593179.798514,1538593181.798721,
228,10,Memory,4,,,,,,,00959960627fa.jpg,,,,,0.57,1.0,,,,,,,1538593183.181643,1538593185.182804,
229,10,Memory,4,,,,,,,sunaduslxfzlbxlllnz.jpg,,,,,1.837,2.0,,,,,,,1538593186.449955,1538593188.449902,
230,10,Memory,4,,,,,,,sunaivdjruhkrfywfed.jpg,,,,,1.769,4.0,,,,,,,1538593189.701288,1538593191.701335,
231,10,Memory,4,,,,,,,sunaixpqndlwhwjtjek.jpg,,,,,1.204,3.0,,,,,,,1538593193.068056,1538593195.069531,
232,10,Memory,4,,,,,,,sunaakxjfbrrequcjmx.jpg,,,,,1.22,3.0,,,,,,,1538593196.318776,1538593198.320439,
233,10,Memory,4,,,,,,,00847940307fa.jpg,,,,,1.969,1.0,,,,,,,1538593199.687862,1538593201.687649,
234,10,Memory,4,,,,,,,00574940928fa.jpg,,,,,0.67,1.0,,,,,,,1538593202.938027,1538593204.939871,
235,10,Memory,4,,,,,,,sunaprnrbmgkomdbchr.jpg,,,,,0.936,3.0,,,,,,,1538593206.189895,1538593208.18932,
236,10,Memory,4,,,,,,,00647941031fa.jpg,,,,,0.603,1.0,,,,,,,1538593209.557349,1538593211.557393,
237,10,Memory,4,,,,,,,00858940307fa.jpg,,,,,0.486,1.0,,,,,,,1538593212.807595,1538593214.809247,
238,10,Memory,4,,,,,,,sunafvtpfczkzopbgue.jpg,,,,,0.803,3.0,,,,,,,1538593216.192391,1538593218.192465,
239,10,Memory,4,,,,,,,sunaavchcbptaerhcfy.jpg,,,,,1.369,1.0,,,,,,,1538593219.544054,1538593221.544066,
240,10,Memory,4,,,,,,,sunabxmguapjekttvwm.jpg,,,,,0.786,1.0,,,,,,,1538593222.794808,1538593224.795941,
241,10,Memory,4,,,,,,,00804960530fa.jpg,,,,,0.636,1.0,,,,,,,1538593226.180014,1538593228.179106,
242,10,Memory,4,,,,,,,sunagwswhkvnsmuszlz.jpg,,,,,0.786,1.0,,,,,,,1538593229.431247,1538593231.430443,
243,10,Memory,4,,,,,,,00564941031fa.jpg,,,,,0.502,1.0,,,,,,,1538593232.814742,1538593234.815442,
244,10,Memory,4,,,,,,,00955960627fb.jpg,,,,,0.603,1.0,,,,,,,1538593236.198593,1538593238.199664,
245,10,Memory,4,,,,,,,sunagtqhhwxjeuxdebe.jpg,,,,,1.07,3.0,,,,,,,1538593239.450809,1538593241.450676,
246,10,Memory,4,,,,,,,sunaalhlvzmjmitybdn.jpg,,,,,0.987,1.0,,,,,,,1538593242.701015,1538593244.701981,
247,10,Memory,4,,,,,,,00158931230fb.jpg,,,,,0.57,1.0,,,,,,,1538593245.969083,1538593247.969033,
248,10,Memory,4,,,,,,,sunbfzchmomnvzhbxdg.jpg,,,,,1.138,1.0,,,,,,,1538593249.219366,1538593251.221178,
249,10,Memory,4,,,,,,,sunadfktsqjthoglcsm.jpg,,,,,1.371,3.0,,,,,,,1538593252.470553,1538593254.471578,
