,Subject,Trial Type,Run,Cued Composite,Uncued Composite,Cued Face,Cued Place,Uncued Face,Uncued Place,Memory Image,Category,Cued Side,Cued Category,Attention Reaction Time (s),Familiarity Reaction Time (s),Familiarity Rating,Attention Level,Cue Validity,Post Invalid Cue,Pre Invalid Cue,Attention Button,Rating History,Stimulus Onset,Stimulus End,Attention Probe
0,26,Presentation,0,00097931230fa_sunaajayojuslbbnneg.jpg,00969960627fa_sunbaoizrfijvhpnnjn.jpg,00097931230fa.jpg,sunaajayojuslbbnneg.jpg,00969960627fa.jpg,sunbaoizrfijvhpnnjn.jpg,,,<,Face,,,,,1,,,,,,,o
1,26,Presentation,0,00650941031fa_sunadikxpvqeabxrvvc.jpg,00762941201fa_sunafgzgbisbopcyslr.jpg,00650941031fa.jpg,sunadikxpvqeabxrvvc.jpg,00762941201fa.jpg,sunafgzgbisbopcyslr.jpg,,,<,Face,,,,,1,,,,,,,x
2,26,Presentation,0,00816941205fa_sunahmhrncocyhsjpxk.jpg,00894960620fa_sunalqmfgeadpqsyzpd.jpg,00816941205fa.jpg,sunahmhrncocyhsjpxk.jpg,00894960620fa.jpg,sunalqmfgeadpqsyzpd.jpg,,,>,Place,,,,,1,,,,,,,o
3,26,Presentation,0,00149931230fa_sunaauglwmctnkxyird.jpg,00065931230fb_sunaaemixhfquhnxxlm.jpg,00149931230fa.jpg,sunaauglwmctnkxyird.jpg,00065931230fb.jpg,sunaaemixhfquhnxxlm.jpg,,,<,Place,,,,,1,,,,,,,x
4,26,Presentation,0,00971960627fa_sunbbegcweqnetpdlrh.jpg,00788941205fa_sunagountlxpzkytsmp.jpg,00971960627fa.jpg,sunbbegcweqnetpdlrh.jpg,00788941205fa.jpg,sunagountlxpzkytsmp.jpg,,,<,Place,,,,,1,,,,,,,o
5,26,Presentation,0,00242940128fa_sunabcuurugvxwparpk.jpg,00086931230fa_sunaafynehyrzpsoaml.jpg,00242940128fa.jpg,sunabcuurugvxwparpk.jpg,00086931230fa.jpg,sunaafynehyrzpsoaml.jpg,,,>,Face,,,,,1,,,,,,,o
6,26,Presentation,0,00878960530fa_sunakgbnzxmfohgehnu.jpg,00950960627fa_sunasrjlmglmjzbmqxb.jpg,00878960530fa.jpg,sunakgbnzxmfohgehnu.jpg,00950960627fa.jpg,sunasrjlmglmjzbmqxb.jpg,,,>,Place,,,,,0,,,,,,,x
7,26,Presentation,0,00108960530fa_sunaajtnvzzpsjdzres.jpg,00988960627fa_sunbmaiocftdtvnzgap.jpg,00108960530fa.jpg,sunaajtnvzzpsjdzres.jpg,00988960627fa.jpg,sunbmaiocftdtvnzgap.jpg,,,<,Face,,,,,1,,,,,,,o
8,26,Presentation,0,00822940307fa_sunahqrxievfeusiqlt.jpg,00557940519fa_sunachtuarilwyqnvjx.jpg,00822940307fa.jpg,sunahqrxievfeusiqlt.jpg,00557940519fa.jpg,sunachtuarilwyqnvjx.jpg,,,>,Place,,,,,0,,,,,,,x
9,26,Presentation,0,00871940307_sunajrujcsdxmfbssmc.jpg,00818940307fa_sunahpblecxtmuzkmxb.jpg,00871940307.jpg,sunajrujcsdxmfbssmc.jpg,00818940307fa.jpg,sunahpblecxtmuzkmxb.jpg,,,>,Face,,,,,1,,,,,,,x
10,26,Memory,0,,,,,,,sunalqmfgeadpqsyzpd.jpg,,,,,,,,,,,,,,,
11,26,Memory,0,,,,,,,00822940307fa.jpg,,,,,,,,,,,,,,,
12,26,Memory,0,,,,,,,00871940307.jpg,,,,,,,,,,,,,,,
13,26,Memory,0,,,,,,,00097931230fa.jpg,,,,,,,,,,,,,,,
14,26,Memory,0,,,,,,,sunabmytpyhsgigllxu.jpg,,,,,,,,,,,,,,,
15,26,Memory,0,,,,,,,sunacwggadqsfpovdjv.jpg,,,,,,,,,,,,,,,
16,26,Memory,0,,,,,,,sunaawsdjisukbbginm.jpg,,,,,,,,,,,,,,,
17,26,Memory,0,,,,,,,sunbasypfgzjtomktmu.jpg,,,,,,,,,,,,,,,
18,26,Memory,0,,,,,,,00970960627fa.jpg,,,,,,,,,,,,,,,
19,26,Memory,0,,,,,,,00184940128fa.jpg,,,,,,,,,,,,,,,
20,26,Memory,0,,,,,,,00557940519fa.jpg,,,,,,,,,,,,,,,
21,26,Memory,0,,,,,,,00878960530fa.jpg,,,,,,,,,,,,,,,
22,26,Memory,0,,,,,,,sunachtuarilwyqnvjx.jpg,,,,,,,,,,,,,,,
23,26,Memory,0,,,,,,,00801941205fa.jpg,,,,,,,,,,,,,,,
24,26,Memory,0,,,,,,,sunahqrxievfeusiqlt.jpg,,,,,,,,,,,,,,,
25,26,Memory,0,,,,,,,sunaivdjruhkrfywfed.jpg,,,,,,,,,,,,,,,
26,26,Memory,0,,,,,,,00719960620fa.jpg,,,,,,,,,,,,,,,
27,26,Memory,0,,,,,,,sunajrujcsdxmfbssmc.jpg,,,,,,,,,,,,,,,
28,26,Memory,0,,,,,,,00847940307fa.jpg,,,,,,,,,,,,,,,
29,26,Memory,0,,,,,,,00816941205fa.jpg,,,,,,,,,,,,,,,
30,26,Memory,0,,,,,,,sunahmhrncocyhsjpxk.jpg,,,,,,,,,,,,,,,
31,26,Memory,0,,,,,,,sunaavtbadenwnzeutj.jpg,,,,,,,,,,,,,,,
32,26,Memory,0,,,,,,,sunaajayojuslbbnneg.jpg,,,,,,,,,,,,,,,
33,26,Memory,0,,,,,,,00762941201fa.jpg,,,,,,,,,,,,,,,
34,26,Memory,0,,,,,,,sunacsdhbbsybcyxnel.jpg,,,,,,,,,,,,,,,
35,26,Memory,0,,,,,,,00894960620fa.jpg,,,,,,,,,,,,,,,
36,26,Memory,0,,,,,,,sunagvprlbprarvgdvj.jpg,,,,,,,,,,,,,,,
37,26,Memory,0,,,,,,,sunakgbnzxmfohgehnu.jpg,,,,,,,,,,,,,,,
38,26,Memory,0,,,,,,,00276940422fa.jpg,,,,,,,,,,,,,,,
39,26,Memory,0,,,,,,,sunaaemixhfquhnxxlm.jpg,,,,,,,,,,,,,,,
40,26,Memory,0,,,,,,,00305940422fa.jpg,,,,,,,,,,,,,,,
41,26,Memory,0,,,,,,,00950960627fa.jpg,,,,,,,,,,,,,,,
42,26,Memory,0,,,,,,,sunafgzgbisbopcyslr.jpg,,,,,,,,,,,,,,,
43,26,Memory,0,,,,,,,00191940128fb.jpg,,,,,,,,,,,,,,,
44,26,Memory,0,,,,,,,00568940928fa.jpg,,,,,,,,,,,,,,,
45,26,Memory,0,,,,,,,sunadzuvtmtmgupotmf.jpg,,,,,,,,,,,,,,,
46,26,Memory,0,,,,,,,sunabtrnbvpppgczjim.jpg,,,,,,,,,,,,,,,
47,26,Memory,0,,,,,,,sunasrjlmglmjzbmqxb.jpg,,,,,,,,,,,,,,,
48,26,Memory,0,,,,,,,00065931230fb.jpg,,,,,,,,,,,,,,,
49,26,Memory,0,,,,,,,00589940928fa.jpg,,,,,,,,,,,,,,,
50,26,Presentation,1,00096931230fa_sunaaiqiqcggrskoqgy.jpg,00986960627fa_sunbgzjryivyczuvkvm.jpg,00096931230fa.jpg,sunaaiqiqcggrskoqgy.jpg,00986960627fa.jpg,sunbgzjryivyczuvkvm.jpg,,,<,Face,,,,,1,,,,,,,x
51,26,Presentation,1,00933960627fa_sunapwjkcxdaeqehfql.jpg,00773941201fa_sunafvcflzhlqloapyo.jpg,00933960627fa.jpg,sunapwjkcxdaeqehfql.jpg,00773941201fa.jpg,sunafvcflzhlqloapyo.jpg,,,>,Place,,,,,1,,,,,,,x
52,26,Presentation,1,00774941201fa_sunafvtpfczkzopbgue.jpg,00987960627fa_sunbloeoiozwjjsiamp.jpg,00774941201fa.jpg,sunafvtpfczkzopbgue.jpg,00987960627fa.jpg,sunbloeoiozwjjsiamp.jpg,,,<,Place,,,,,1,,,,,,,o
53,26,Presentation,1,00092931230fa_sunaaheqzstzxuadglu.jpg,00306940422fa_sunabueyoajufbkraki.jpg,00092931230fa.jpg,sunaaheqzstzxuadglu.jpg,00306940422fa.jpg,sunabueyoajufbkraki.jpg,,,<,Place,,,,,1,,,,,,,o
54,26,Presentation,1,00720960620fa_sunaecpkgfewqqreqwe.jpg,00507940519fa_sunacacflqoyxhsqzhe.jpg,00720960620fa.jpg,sunaecpkgfewqqreqwe.jpg,00507940519fa.jpg,sunacacflqoyxhsqzhe.jpg,,,<,Face,,,,,1,,,,,,,o
55,26,Presentation,1,00891960530fa_sunalkiibhqpxfamlll.jpg,00859940307fa_sunaiycurtqsfkvcaso.jpg,00891960530fa.jpg,sunalkiibhqpxfamlll.jpg,00859940307fa.jpg,sunaiycurtqsfkvcaso.jpg,,,<,Place,,,,,1,,,,,,,x
56,26,Presentation,1,01005960627fa_sunbwyuesflwdpqtgoy.jpg,00911960530fa_sunaooaqzputrowwbsw.jpg,01005960627fa.jpg,sunbwyuesflwdpqtgoy.jpg,00911960530fa.jpg,sunaooaqzputrowwbsw.jpg,,,>,Face,,,,,1,,,,,,,x
57,26,Presentation,1,00138931230fa_sunaapfaivxqoynnwwp.jpg,00860940307fa_sunaizeyhvjzknwjudw.jpg,00138931230fa.jpg,sunaapfaivxqoynnwwp.jpg,00860940307fa.jpg,sunaizeyhvjzknwjudw.jpg,,,>,Face,,,,,1,,,,,,,o
58,26,Presentation,1,00070940307fa_sunaaeplwsfslcbtojr.jpg,00564941031fa_sunacsaovnjezqwbykf.jpg,00070940307fa.jpg,sunaaeplwsfslcbtojr.jpg,00564941031fa.jpg,sunacsaovnjezqwbykf.jpg,,,>,Face,,,,,1,,,,,,,x
59,26,Presentation,1,00787960620fa_sunagoufulkpsxrmklt.jpg,00977960627fa_sunbbxkanhzjgbwyxqs.jpg,00787960620fa.jpg,sunagoufulkpsxrmklt.jpg,00977960627fa.jpg,sunbbxkanhzjgbwyxqs.jpg,,,>,Place,,,,,1,,,,,,,x
60,26,Memory,1,,,,,,,00262940128fa.jpg,,,,,,,,,,,,,,,
61,26,Memory,1,,,,,,,00138931230fa.jpg,,,,,,,,,,,,,,,
62,26,Memory,1,,,,,,,00162931230fb.jpg,,,,,,,,,,,,,,,
63,26,Memory,1,,,,,,,sunathzzbcwjykldrem.jpg,,,,,,,,,,,,,,,
64,26,Memory,1,,,,,,,00574940928fa.jpg,,,,,,,,,,,,,,,
65,26,Memory,1,,,,,,,sunbbxkanhzjgbwyxqs.jpg,,,,,,,,,,,,,,,
66,26,Memory,1,,,,,,,00766960620fa.jpg,,,,,,,,,,,,,,,
67,26,Memory,1,,,,,,,00859940307fa.jpg,,,,,,,,,,,,,,,
68,26,Memory,1,,,,,,,00507940519fa.jpg,,,,,,,,,,,,,,,
69,26,Memory,1,,,,,,,00092931230fa.jpg,,,,,,,,,,,,,,,
70,26,Memory,1,,,,,,,sunaiycurtqsfkvcaso.jpg,,,,,,,,,,,,,,,
71,26,Memory,1,,,,,,,sunadqmjrhfjyuzyvdd.jpg,,,,,,,,,,,,,,,
72,26,Memory,1,,,,,,,sunaloffvbvysigxent.jpg,,,,,,,,,,,,,,,
73,26,Memory,1,,,,,,,sunaapfaivxqoynnwwp.jpg,,,,,,,,,,,,,,,
74,26,Memory,1,,,,,,,sunaavjinpnkappuonm.jpg,,,,,,,,,,,,,,,
75,26,Memory,1,,,,,,,sunbloeoiozwjjsiamp.jpg,,,,,,,,,,,,,,,
76,26,Memory,1,,,,,,,00071941031fa.jpg,,,,,,,,,,,,,,,
77,26,Memory,1,,,,,,,00999960627fa.jpg,,,,,,,,,,,,,,,
78,26,Memory,1,,,,,,,00952960627fa.jpg,,,,,,,,,,,,,,,
79,26,Memory,1,,,,,,,sunafijbgncijwykrnl.jpg,,,,,,,,,,,,,,,
80,26,Memory,1,,,,,,,00096931230fa.jpg,,,,,,,,,,,,,,,
81,26,Memory,1,,,,,,,sunahawfngukizslzsd.jpg,,,,,,,,,,,,,,,
82,26,Memory,1,,,,,,,00787960620fa.jpg,,,,,,,,,,,,,,,
83,26,Memory,1,,,,,,,sunagoufulkpsxrmklt.jpg,,,,,,,,,,,,,,,
84,26,Memory,1,,,,,,,00977960627fa.jpg,,,,,,,,,,,,,,,
85,26,Memory,1,,,,,,,sunafvcflzhlqloapyo.jpg,,,,,,,,,,,,,,,
86,26,Memory,1,,,,,,,sunaaiqiqcggrskoqgy.jpg,,,,,,,,,,,,,,,
87,26,Memory,1,,,,,,,sunaecpkgfewqqreqwe.jpg,,,,,,,,,,,,,,,
88,26,Memory,1,,,,,,,00807941205fa.jpg,,,,,,,,,,,,,,,
89,26,Memory,1,,,,,,,00720960620fa.jpg,,,,,,,,,,,,,,,
90,26,Memory,1,,,,,,,00893960530Fa.jpg,,,,,,,,,,,,,,,
91,26,Memory,1,,,,,,,sunacvbrcejzwmcgnoq.jpg,,,,,,,,,,,,,,,
92,26,Memory,1,,,,,,,sunacacflqoyxhsqzhe.jpg,,,,,,,,,,,,,,,
93,26,Memory,1,,,,,,,sunbvbrvgbpanfrawft.jpg,,,,,,,,,,,,,,,
94,26,Memory,1,,,,,,,sunabizydfotqddlnjp.jpg,,,,,,,,,,,,,,,
95,26,Memory,1,,,,,,,00987960627fa.jpg,,,,,,,,,,,,,,,
96,26,Memory,1,,,,,,,sunaaexqbtdswxrqjvz.jpg,,,,,,,,,,,,,,,
97,26,Memory,1,,,,,,,00773941201fa.jpg,,,,,,,,,,,,,,,
98,26,Memory,1,,,,,,,00681941121fa.jpg,,,,,,,,,,,,,,,
99,26,Memory,1,,,,,,,sunaaheqzstzxuadglu.jpg,,,,,,,,,,,,,,,
100,26,Presentation,2,00136931230fb_sunaanptmsknhirrzed.jpg,00922960627fa_sunapqkyghktgtosuuk.jpg,00136931230fb.jpg,sunaanptmsknhirrzed.jpg,00922960627fa.jpg,sunapqkyghktgtosuuk.jpg,,,>,Face,,,,,1,,,,,,,o
101,26,Presentation,2,00913960530fa_sunaooffzffbhcpirmm.jpg,00571940928fa_sunacuatpqpqhyjhjqk.jpg,00913960530fa.jpg,sunaooffzffbhcpirmm.jpg,00571940928fa.jpg,sunacuatpqpqhyjhjqk.jpg,,,>,Face,,,,,1,,,,,,,x
102,26,Presentation,2,00124931230fa_sunaalhlvzmjmitybdn.jpg,00985960627fa_sunbgklxeqjhdbyfhhy.jpg,00124931230fa.jpg,sunaalhlvzmjmitybdn.jpg,00985960627fa.jpg,sunbgklxeqjhdbyfhhy.jpg,,,<,Place,,,,,1,,,,,,,x
103,26,Presentation,2,00780960530fa_sunagetqixeypsysbpn.jpg,00785941205fa_sunaglqunwuycxydmyu.jpg,00780960530fa.jpg,sunagetqixeypsysbpn.jpg,00785941205fa.jpg,sunaglqunwuycxydmyu.jpg,,,<,Place,,,,,1,,,,,,,x
104,26,Presentation,2,00316940422fa_sunabxmguapjekttvwm.jpg,00705941205fa_sunadtlxenqqxsyjvix.jpg,00316940422fa.jpg,sunabxmguapjekttvwm.jpg,00705941205fa.jpg,sunadtlxenqqxsyjvix.jpg,,,>,Place,,,,,1,,,,,,,x
105,26,Presentation,2,00854940307fa_sunaiwduelojtwaqeyh.jpg,00158931230fb_sunaavchcbptaerhcfy.jpg,00854940307fa.jpg,sunaiwduelojtwaqeyh.jpg,00158931230fb.jpg,sunaavchcbptaerhcfy.jpg,,,<,Place,,,,,1,,,,,,,o
106,26,Presentation,2,00803941205fa_sunagvxkjokqimstxpe.jpg,00126931230fb_sunaamdjwemxpmmtypi.jpg,00803941205fa.jpg,sunagvxkjokqimstxpe.jpg,00126931230fb.jpg,sunaamdjwemxpmmtypi.jpg,,,<,Face,,,,,1,,,,,,,x
107,26,Presentation,2,00564940928fa_sunacmpqqfbsvlzinzl.jpg,00958960627fa_sunavspxmxubqaeidjt.jpg,00564940928fa.jpg,sunacmpqqfbsvlzinzl.jpg,00958960627fa.jpg,sunavspxmxubqaeidjt.jpg,,,>,Place,,,,,1,,,,,,,o
108,26,Presentation,2,00793941205fa_sunagtjwilqjvxohypn.jpg,00851940307fa_sunaivflshbyfrfzhqb.jpg,00793941205fa.jpg,sunagtjwilqjvxohypn.jpg,00851940307fa.jpg,sunaivflshbyfrfzhqb.jpg,,,>,Face,,,,,1,,,,,,,x
109,26,Presentation,2,01003960627fb_sunbwdrdvsweerwsdrj.jpg,00131931230fb_sunaangbuylfvckqqoo.jpg,01003960627fb.jpg,sunbwdrdvsweerwsdrj.jpg,00131931230fb.jpg,sunaangbuylfvckqqoo.jpg,,,<,Face,,,,,1,,,,,,,o
110,26,Memory,2,,,,,,,sunacmpqqfbsvlzinzl.jpg,,,,,,,,,,,,,,,
111,26,Memory,2,,,,,,,sunabcfpwlpolnutyju.jpg,,,,,,,,,,,,,,,
112,26,Memory,2,,,,,,,00564940928fa.jpg,,,,,,,,,,,,,,,
113,26,Memory,2,,,,,,,00958960627fa.jpg,,,,,,,,,,,,,,,
114,26,Memory,2,,,,,,,sunaejnvnpltdmhbcsi.jpg,,,,,,,,,,,,,,,
115,26,Memory,2,,,,,,,00793941205fa.jpg,,,,,,,,,,,,,,,
116,26,Memory,2,,,,,,,sunabzuqsrgcsonqlkz.jpg,,,,,,,,,,,,,,,
117,26,Memory,2,,,,,,,sunavspxmxubqaeidjt.jpg,,,,,,,,,,,,,,,
118,26,Memory,2,,,,,,,00124931230fa.jpg,,,,,,,,,,,,,,,
119,26,Memory,2,,,,,,,00985960627fa.jpg,,,,,,,,,,,,,,,
120,26,Memory,2,,,,,,,00938960627fa.jpg,,,,,,,,,,,,,,,
121,26,Memory,2,,,,,,,00785941205fa.jpg,,,,,,,,,,,,,,,
122,26,Memory,2,,,,,,,00126931230fb.jpg,,,,,,,,,,,,,,,
123,26,Memory,2,,,,,,,sunaglqunwuycxydmyu.jpg,,,,,,,,,,,,,,,
124,26,Memory,2,,,,,,,00208940128fa.jpg,,,,,,,,,,,,,,,
125,26,Memory,2,,,,,,,sunaalhlvzmjmitybdn.jpg,,,,,,,,,,,,,,,
126,26,Memory,2,,,,,,,00794960620fa.jpg,,,,,,,,,,,,,,,
127,26,Memory,2,,,,,,,sunacdnquypmsshhsbk.jpg,,,,,,,,,,,,,,,
128,26,Memory,2,,,,,,,00895960530fa.jpg,,,,,,,,,,,,,,,
129,26,Memory,2,,,,,,,00803941205fa.jpg,,,,,,,,,,,,,,,
130,26,Memory,2,,,,,,,sunagtjwilqjvxohypn.jpg,,,,,,,,,,,,,,,
131,26,Memory,2,,,,,,,sunaqyylsngywqzwfmx.jpg,,,,,,,,,,,,,,,
132,26,Memory,2,,,,,,,00221940128fa.jpg,,,,,,,,,,,,,,,
133,26,Memory,2,,,,,,,sunaamdjwemxpmmtypi.jpg,,,,,,,,,,,,,,,
134,26,Memory,2,,,,,,,sunaajpqmulidejvjsr.jpg,,,,,,,,,,,,,,,
135,26,Memory,2,,,,,,,00540940519fa.jpg,,,,,,,,,,,,,,,
136,26,Memory,2,,,,,,,sunbgklxeqjhdbyfhhy.jpg,,,,,,,,,,,,,,,
137,26,Memory,2,,,,,,,00728941205fa.jpg,,,,,,,,,,,,,,,
138,26,Memory,2,,,,,,,sunahiphsekjihkafsl.jpg,,,,,,,,,,,,,,,
139,26,Memory,2,,,,,,,00505960627fa.jpg,,,,,,,,,,,,,,,
140,26,Memory,2,,,,,,,00815941205fa.jpg,,,,,,,,,,,,,,,
141,26,Memory,2,,,,,,,00705941205fa.jpg,,,,,,,,,,,,,,,
142,26,Memory,2,,,,,,,sunaazzyhbvqjpmazjq.jpg,,,,,,,,,,,,,,,
143,26,Memory,2,,,,,,,sunagvxkjokqimstxpe.jpg,,,,,,,,,,,,,,,
144,26,Memory,2,,,,,,,sunbwdrdvsweerwsdrj.jpg,,,,,,,,,,,,,,,
145,26,Memory,2,,,,,,,sunagtqhhwxjeuxdebe.jpg,,,,,,,,,,,,,,,
146,26,Memory,2,,,,,,,sunamczizlzavhzhpay.jpg,,,,,,,,,,,,,,,
147,26,Memory,2,,,,,,,00098931230fa.jpg,,,,,,,,,,,,,,,
148,26,Memory,2,,,,,,,01003960627fb.jpg,,,,,,,,,,,,,,,
149,26,Memory,2,,,,,,,sunadtlxenqqxsyjvix.jpg,,,,,,,,,,,,,,,
150,26,Presentation,3,01207940128fa_sundbixjudsgeuuehrn.jpg,00163931230fb_sunaavodbcpygkggnfp.jpg,01207940128fa.jpg,sundbixjudsgeuuehrn.jpg,00163931230fb.jpg,sunaavodbcpygkggnfp.jpg,,,<,Face,,,,,1,,,,,,,x
151,26,Presentation,3,00979960627fa_sunbdycacjfaujxitbw.jpg,00723941201fa_sunaedtgwjvvziytspa.jpg,00979960627fa.jpg,sunbdycacjfaujxitbw.jpg,00723941201fa.jpg,sunaedtgwjvvziytspa.jpg,,,<,Face,,,,,1,,,,,,,o
152,26,Presentation,3,00076931230fa_sunaafewhewbxmjiurz.jpg,00779941205fa_sunagdzlvkqtpnfxfcg.jpg,00076931230fa.jpg,sunaafewhewbxmjiurz.jpg,00779941205fa.jpg,sunagdzlvkqtpnfxfcg.jpg,,,>,Face,,,,,1,,,,,,,o
153,26,Presentation,3,00786941205fa_sunagmhildamktmqjss.jpg,00791941205fa_sunagrmyoovzukhxmlo.jpg,00786941205fa.jpg,sunagmhildamktmqjss.jpg,00791941205fa.jpg,sunagrmyoovzukhxmlo.jpg,,,>,Face,,,,,1,,,,,,,x
154,26,Presentation,3,00663941121fa_sunadnjjzohjhbohlwq.jpg,00620940928fa_sunacypmnujalygkunp.jpg,00663941121fa.jpg,sunadnjjzohjhbohlwq.jpg,00620940928fa.jpg,sunacypmnujalygkunp.jpg,,,>,Place,,,,,1,,,,,,,x
155,26,Presentation,3,00784941205fb_sunagjzcrjvmxzqzljx.jpg,00119931230fb_sunaakvmbftkrgqhjun.jpg,00784941205fb.jpg,sunagjzcrjvmxzqzljx.jpg,00119931230fb.jpg,sunaakvmbftkrgqhjun.jpg,,,>,Place,,,,,1,,,,,,,o
156,26,Presentation,3,00949960627fb_sunasnqkkyhilqkxiqm.jpg,00746941201fa_sunaetydippjxikifsb.jpg,00949960627fb.jpg,sunasnqkkyhilqkxiqm.jpg,00746941201fa.jpg,sunaetydippjxikifsb.jpg,,,>,Place,,,,,1,,,,,,,o
157,26,Presentation,3,00214940128fa_sunabbafjowbzcvbucc.jpg,00982960627fa_sunbesrwkdsffeogeqq.jpg,00214940128fa.jpg,sunabbafjowbzcvbucc.jpg,00982960627fa.jpg,sunbesrwkdsffeogeqq.jpg,,,<,Place,,,,,1,,,,,,,o
158,26,Presentation,3,00763941205fa_sunafhmnhsdurlvddpw.jpg,00805941205fa_sunagwzdbtlixdhgolm.jpg,00763941205fa.jpg,sunafhmnhsdurlvddpw.jpg,00805941205fa.jpg,sunagwzdbtlixdhgolm.jpg,,,<,Face,,,,,1,,,,,,,x
159,26,Presentation,3,00581940928fa_sunacvzhvcksnwqcqbw.jpg,00955960627fb_sunauburywlkjszngcq.jpg,00581940928fa.jpg,sunacvzhvcksnwqcqbw.jpg,00955960627fb.jpg,sunauburywlkjszngcq.jpg,,,<,Place,,,,,1,,,,,,,x
160,26,Memory,3,,,,,,,00218940128fa.jpg,,,,,,,,,,,,,,,
161,26,Memory,3,,,,,,,00270940422fb.jpg,,,,,,,,,,,,,,,
162,26,Memory,3,,,,,,,00864940307fa.jpg,,,,,,,,,,,,,,,
163,26,Memory,3,,,,,,,sunafvsxtzaizojicxx.jpg,,,,,,,,,,,,,,,
164,26,Memory,3,,,,,,,sunacxtcahkymosigud.jpg,,,,,,,,,,,,,,,
165,26,Memory,3,,,,,,,00598941031fa.jpg,,,,,,,,,,,,,,,
166,26,Memory,3,,,,,,,00194940128fb.jpg,,,,,,,,,,,,,,,
167,26,Memory,3,,,,,,,sunajawzbrlrwafowen.jpg,,,,,,,,,,,,,,,
168,26,Memory,3,,,,,,,sunafhmnhsdurlvddpw.jpg,,,,,,,,,,,,,,,
169,26,Memory,3,,,,,,,00773960620fa.jpg,,,,,,,,,,,,,,,
170,26,Memory,3,,,,,,,sunajtrfunvzdfticna.jpg,,,,,,,,,,,,,,,
171,26,Memory,3,,,,,,,sunaedtgwjvvziytspa.jpg,,,,,,,,,,,,,,,
172,26,Memory,3,,,,,,,01004960627fa.jpg,,,,,,,,,,,,,,,
173,26,Memory,3,,,,,,,sunabbwggenhfbftyvi.jpg,,,,,,,,,,,,,,,
174,26,Memory,3,,,,,,,00620940928fa.jpg,,,,,,,,,,,,,,,
175,26,Memory,3,,,,,,,sunaayehfdqcyxggsej.jpg,,,,,,,,,,,,,,,
176,26,Memory,3,,,,,,,sunbesrwkdsffeogeqq.jpg,,,,,,,,,,,,,,,
177,26,Memory,3,,,,,,,00153931230fa.jpg,,,,,,,,,,,,,,,
178,26,Memory,3,,,,,,,01207940128fa.jpg,,,,,,,,,,,,,,,
179,26,Memory,3,,,,,,,sunabbafjowbzcvbucc.jpg,,,,,,,,,,,,,,,
180,26,Memory,3,,,,,,,sunalcrtwiycqobgelp.jpg,,,,,,,,,,,,,,,
181,26,Memory,3,,,,,,,00887960530.jpg,,,,,,,,,,,,,,,
182,26,Memory,3,,,,,,,sunbwtlihsuptkrckid.jpg,,,,,,,,,,,,,,,
183,26,Memory,3,,,,,,,sunaauhozyxzeeqstxi.jpg,,,,,,,,,,,,,,,
184,26,Memory,3,,,,,,,00982960627fa.jpg,,,,,,,,,,,,,,,
185,26,Memory,3,,,,,,,00791941205fa.jpg,,,,,,,,,,,,,,,
186,26,Memory,3,,,,,,,00723941201fa.jpg,,,,,,,,,,,,,,,
187,26,Memory,3,,,,,,,00786941205fa.jpg,,,,,,,,,,,,,,,
188,26,Memory,3,,,,,,,00874940307fa.jpg,,,,,,,,,,,,,,,
189,26,Memory,3,,,,,,,sunabllobxadqcyttej.jpg,,,,,,,,,,,,,,,
190,26,Memory,3,,,,,,,sunagmhildamktmqjss.jpg,,,,,,,,,,,,,,,
191,26,Memory,3,,,,,,,sundbixjudsgeuuehrn.jpg,,,,,,,,,,,,,,,
192,26,Memory,3,,,,,,,sunagrmyoovzukhxmlo.jpg,,,,,,,,,,,,,,,
193,26,Memory,3,,,,,,,00763941205fa.jpg,,,,,,,,,,,,,,,
194,26,Memory,3,,,,,,,00784941205fb.jpg,,,,,,,,,,,,,,,
195,26,Memory,3,,,,,,,00214940128fa.jpg,,,,,,,,,,,,,,,
196,26,Memory,3,,,,,,,sunagwzdbtlixdhgolm.jpg,,,,,,,,,,,,,,,
197,26,Memory,3,,,,,,,sunacypmnujalygkunp.jpg,,,,,,,,,,,,,,,
198,26,Memory,3,,,,,,,00805941205fa.jpg,,,,,,,,,,,,,,,
199,26,Memory,3,,,,,,,sunagjzcrjvmxzqzljx.jpg,,,,,,,,,,,,,,,
200,26,Presentation,4,00752960620fa_sunafbwnojpqeyzssoe.jpg,00144931230fb_sunaathajvxrgptwhoj.jpg,00752960620fa.jpg,sunafbwnojpqeyzssoe.jpg,00144931230fb.jpg,sunaathajvxrgptwhoj.jpg,,,>,Face,,,,,1,,,,,,,o
201,26,Presentation,4,01011960627fa_sundahdxwmcdluscvot.jpg,00719941201fa_sunadvithllcgmfxsrn.jpg,01011960627fa.jpg,sundahdxwmcdluscvot.jpg,00719941201fa.jpg,sunadvithllcgmfxsrn.jpg,,,<,Place,,,,,1,,,,,,,x
202,26,Presentation,4,00245940128fa_sunabeyhmxodahoieyk.jpg,00670941121fa_sunadochqcucscehsgk.jpg,00245940128fa.jpg,sunabeyhmxodahoieyk.jpg,00670941121fa.jpg,sunadochqcucscehsgk.jpg,,,>,Face,,,,,1,,,,,,,o
203,26,Presentation,4,00993960627fa_sunbprywzqxjcezkbch.jpg,00771941205fa_sunafowswglhxcsufpo.jpg,00993960627fa.jpg,sunbprywzqxjcezkbch.jpg,00771941205fa.jpg,sunafowswglhxcsufpo.jpg,,,<,Place,,,,,1,,,,,,,x
204,26,Presentation,4,00741941201fa_sunaemcowdozyphwknd.jpg,00063931230fa_sunaaelyvurpntclgau.jpg,00741941201fa.jpg,sunaemcowdozyphwknd.jpg,00063931230fa.jpg,sunaaelyvurpntclgau.jpg,,,>,Face,,,,,1,,,,,,,x
205,26,Presentation,4,00197940128fa_sunaaylzyqlqrsmfwif.jpg,00648941031fa_sunadfndyrtqqiasoig.jpg,00197940128fa.jpg,sunaaylzyqlqrsmfwif.jpg,00648941031fa.jpg,sunadfndyrtqqiasoig.jpg,,,>,Place,,,,,1,,,,,,,x
206,26,Presentation,4,00858940307fa_sunaixpqndlwhwjtjek.jpg,00776941205fa_sunafxokyavhgptyfye.jpg,00858940307fa.jpg,sunaixpqndlwhwjtjek.jpg,00776941205fa.jpg,sunafxokyavhgptyfye.jpg,,,<,Face,,,,,1,,,,,,,x
207,26,Presentation,4,00841940307fa_sunaisiwfgppimtnmxl.jpg,00751960620fa_sunaezuszgtxnmsxdbk.jpg,00841940307fa.jpg,sunaisiwfgppimtnmxl.jpg,00751960620fa.jpg,sunaezuszgtxnmsxdbk.jpg,,,<,Face,,,,,1,,,,,,,o
208,26,Presentation,4,00662941121fa_sunadkazmlajmohnwfl.jpg,00825940307fa_sunahrltmuwbiehihpe.jpg,00662941121fa.jpg,sunadkazmlajmohnwfl.jpg,00825940307fa.jpg,sunahrltmuwbiehihpe.jpg,,,<,Place,,,,,1,,,,,,,o
209,26,Presentation,4,00754941201fa_sunaffgsyyvoqdlkmnk.jpg,01009960627fa_sunbxzweleltykebgan.jpg,00754941201fa.jpg,sunaffgsyyvoqdlkmnk.jpg,01009960627fa.jpg,sunbxzweleltykebgan.jpg,,,>,Place,,,,,0,,,,,,,x
210,26,Memory,4,,,,,,,sunadbdqzigzwipuipr.jpg,,,,,,,,,,,,,,,
211,26,Memory,4,,,,,,,00662941121fa.jpg,,,,,,,,,,,,,,,
212,26,Memory,4,,,,,,,00989960627fa.jpg,,,,,,,,,,,,,,,
213,26,Memory,4,,,,,,,00633940928fa.jpg,,,,,,,,,,,,,,,
214,26,Memory,4,,,,,,,00095931230fa.jpg,,,,,,,,,,,,,,,
215,26,Memory,4,,,,,,,00778941205fa.jpg,,,,,,,,,,,,,,,
216,26,Memory,4,,,,,,,sunbondbduabvijnmch.jpg,,,,,,,,,,,,,,,
217,26,Memory,4,,,,,,,00825940307fa.jpg,,,,,,,,,,,,,,,
218,26,Memory,4,,,,,,,00631940928fa.jpg,,,,,,,,,,,,,,,
219,26,Memory,4,,,,,,,sunaemcowdozyphwknd.jpg,,,,,,,,,,,,,,,
220,26,Memory,4,,,,,,,sunabeyhmxodahoieyk.jpg,,,,,,,,,,,,,,,
221,26,Memory,4,,,,,,,00848940307fa.jpg,,,,,,,,,,,,,,,
222,26,Memory,4,,,,,,,00776941205fa.jpg,,,,,,,,,,,,,,,
223,26,Memory,4,,,,,,,sunabrwnslxalcohfre.jpg,,,,,,,,,,,,,,,
224,26,Memory,4,,,,,,,sunadbhmrgrrpyzglxs.jpg,,,,,,,,,,,,,,,
225,26,Memory,4,,,,,,,sunahrltmuwbiehihpe.jpg,,,,,,,,,,,,,,,
226,26,Memory,4,,,,,,,sunaivdylrawbmhryfp.jpg,,,,,,,,,,,,,,,
227,26,Memory,4,,,,,,,00993960627fa.jpg,,,,,,,,,,,,,,,
228,26,Memory,4,,,,,,,00838940307fa.jpg,,,,,,,,,,,,,,,
229,26,Memory,4,,,,,,,sunagcthdfirrcawoic.jpg,,,,,,,,,,,,,,,
230,26,Memory,4,,,,,,,sunaiozxhxgtfrmoagh.jpg,,,,,,,,,,,,,,,
231,26,Memory,4,,,,,,,sunaqgjuuwvdcyiccjt.jpg,,,,,,,,,,,,,,,
232,26,Memory,4,,,,,,,sunbprywzqxjcezkbch.jpg,,,,,,,,,,,,,,,
233,26,Memory,4,,,,,,,00245940128fa.jpg,,,,,,,,,,,,,,,
234,26,Memory,4,,,,,,,sunadvithllcgmfxsrn.jpg,,,,,,,,,,,,,,,
235,26,Memory,4,,,,,,,00197940128fa.jpg,,,,,,,,,,,,,,,
236,26,Memory,4,,,,,,,sunadkazmlajmohnwfl.jpg,,,,,,,,,,,,,,,
237,26,Memory,4,,,,,,,00936960627fa.jpg,,,,,,,,,,,,,,,
238,26,Memory,4,,,,,,,sunafxokyavhgptyfye.jpg,,,,,,,,,,,,,,,
239,26,Memory,4,,,,,,,sunaaylzyqlqrsmfwif.jpg,,,,,,,,,,,,,,,
240,26,Memory,4,,,,,,,00751960620fa.jpg,,,,,,,,,,,,,,,
241,26,Memory,4,,,,,,,00296940422fa.jpg,,,,,,,,,,,,,,,
242,26,Memory,4,,,,,,,00741941201fa.jpg,,,,,,,,,,,,,,,
243,26,Memory,4,,,,,,,sunbxzweleltykebgan.jpg,,,,,,,,,,,,,,,
244,26,Memory,4,,,,,,,00745941205fa.jpg,,,,,,,,,,,,,,,
245,26,Memory,4,,,,,,,sunaeouogqolxvggaoq.jpg,,,,,,,,,,,,,,,
246,26,Memory,4,,,,,,,sunaezuszgtxnmsxdbk.jpg,,,,,,,,,,,,,,,
247,26,Memory,4,,,,,,,01009960627fa.jpg,,,,,,,,,,,,,,,
248,26,Memory,4,,,,,,,sunaahzooisqkwlxwoz.jpg,,,,,,,,,,,,,,,
249,26,Memory,4,,,,,,,00719941201fa.jpg,,,,,,,,,,,,,,,
250,26,Presentation,5,00777941205fa_sunagcinxkccdtrjmlv.jpg,00227940128fa_sunabckqabszusgcykj.jpg,00777941205fa.jpg,sunagcinxkccdtrjmlv.jpg,00227940128fa.jpg,sunabckqabszusgcykj.jpg,,,<,Face,,,,,1,,,,,,,o
251,26,Presentation,5,00142931230fb_sunaapxkpvrhpjplsok.jpg,00123931230fb_sunaalcrrdbjgdztbiz.jpg,00142931230fb.jpg,sunaapxkpvrhpjplsok.jpg,00123931230fb.jpg,sunaalcrrdbjgdztbiz.jpg,,,>,Place,,,,,1,,,,,,,x
252,26,Presentation,5,00288940422fa_sunabppokiyglaxpcha.jpg,00069931230fb_sunaaeowapdkwzqpgqr.jpg,00288940422fa.jpg,sunabppokiyglaxpcha.jpg,00069931230fb.jpg,sunaaeowapdkwzqpgqr.jpg,,,<,Place,,,,,1,,,,,,,x
253,26,Presentation,5,00267940128fb_sunablfqiwfqomjarht.jpg,00562941031fa_sunacjnahdmqfnjfwqx.jpg,00267940128fb.jpg,sunablfqiwfqomjarht.jpg,00562941031fa.jpg,sunacjnahdmqfnjfwqx.jpg,,,>,Place,,,,,1,,,,,,,o
254,26,Presentation,5,00559940519fa_sunacjkmnpawfzbyvae.jpg,00308940422fb_sunabwfvcqqidycwypa.jpg,00559940519fa.jpg,sunacjkmnpawfzbyvae.jpg,00308940422fb.jpg,sunabwfvcqqidycwypa.jpg,,,<,Place,,,,,1,,,,,,,o
255,26,Presentation,5,00529940519fa_sunacbeefkxpymwevpk.jpg,00263940128fb_sunabjuovqvyfuzvqwt.jpg,00529940519fa.jpg,sunacbeefkxpymwevpk.jpg,00263940128fb.jpg,sunabjuovqvyfuzvqwt.jpg,,,<,Face,,,,,1,,,,,,,o
256,26,Presentation,5,00532960627fa_sunaccdtpgenvcbcbcf.jpg,00130931230fa_sunaamvxnvouicstkjb.jpg,00532960627fa.jpg,sunaccdtpgenvcbcbcf.jpg,00130931230fa.jpg,sunaamvxnvouicstkjb.jpg,,,>,Face,,,,,1,,,,,,,o
257,26,Presentation,5,00925960627fa_sunapqwnqzxlsfvgsjm.jpg,00101931230fb_sunaajqmsaavkmgbsth.jpg,00925960627fa.jpg,sunapqwnqzxlsfvgsjm.jpg,00101931230fb.jpg,sunaajqmsaavkmgbsth.jpg,,,>,Face,,,,,1,,,,,,,x
258,26,Presentation,5,00675941121fa_sunadoxcchtmsxewsau.jpg,01002960627fb_sunbwaafjdebjzttuvq.jpg,00675941121fa.jpg,sunadoxcchtmsxewsau.jpg,01002960627fb.jpg,sunbwaafjdebjzttuvq.jpg,,,>,Face,,,,,1,,,,,,,x
259,26,Presentation,5,00943960627fa_sunarpsxqkduedrrzyi.jpg,00290940422fa_sunabqowuarvqqcnipn.jpg,00943960627fa.jpg,sunarpsxqkduedrrzyi.jpg,00290940422fa.jpg,sunabqowuarvqqcnipn.jpg,,,<,Place,,,,,1,,,,,,,x
260,26,Memory,5,,,,,,,sunabckqabszusgcykj.jpg,,,,,,,,,,,,,,,
261,26,Memory,5,,,,,,,00239940128fa.jpg,,,,,,,,,,,,,,,
262,26,Memory,5,,,,,,,sunabwfvcqqidycwypa.jpg,,,,,,,,,,,,,,,
263,26,Memory,5,,,,,,,sunadoxcchtmsxewsau.jpg,,,,,,,,,,,,,,,
264,26,Memory,5,,,,,,,sunagmwxxwymwojbvgi.jpg,,,,,,,,,,,,,,,
265,26,Memory,5,,,,,,,00227940128fa.jpg,,,,,,,,,,,,,,,
266,26,Memory,5,,,,,,,sunaaeowapdkwzqpgqr.jpg,,,,,,,,,,,,,,,
267,26,Memory,5,,,,,,,00790941205fa.jpg,,,,,,,,,,,,,,,
268,26,Memory,5,,,,,,,00263940128fb.jpg,,,,,,,,,,,,,,,
269,26,Memory,5,,,,,,,00142931230fb.jpg,,,,,,,,,,,,,,,
270,26,Memory,5,,,,,,,00308940422fb.jpg,,,,,,,,,,,,,,,
271,26,Memory,5,,,,,,,sunabjuovqvyfuzvqwt.jpg,,,,,,,,,,,,,,,
272,26,Memory,5,,,,,,,00827940307fa.jpg,,,,,,,,,,,,,,,
273,26,Memory,5,,,,,,,00900960530fa.jpg,,,,,,,,,,,,,,,
274,26,Memory,5,,,,,,,00559940519fa.jpg,,,,,,,,,,,,,,,
275,26,Memory,5,,,,,,,00925960627fa.jpg,,,,,,,,,,,,,,,
276,26,Memory,5,,,,,,,sunaaelotvjgibjtjhs.jpg,,,,,,,,,,,,,,,
277,26,Memory,5,,,,,,,sunaijsqpvodplbwxkf.jpg,,,,,,,,,,,,,,,
278,26,Memory,5,,,,,,,00929960627fa.jpg,,,,,,,,,,,,,,,
279,26,Memory,5,,,,,,,sunacjkmnpawfzbyvae.jpg,,,,,,,,,,,,,,,
280,26,Memory,5,,,,,,,sunabctlikybqabezjv.jpg,,,,,,,,,,,,,,,
281,26,Memory,5,,,,,,,00069931230fb.jpg,,,,,,,,,,,,,,,
282,26,Memory,5,,,,,,,sunaatpeezlljqaxlhj.jpg,,,,,,,,,,,,,,,
283,26,Memory,5,,,,,,,00937960627fa.jpg,,,,,,,,,,,,,,,
284,26,Memory,5,,,,,,,sunaapxkpvrhpjplsok.jpg,,,,,,,,,,,,,,,
285,26,Memory,5,,,,,,,00835940307fa.jpg,,,,,,,,,,,,,,,
286,26,Memory,5,,,,,,,00943960627fa.jpg,,,,,,,,,,,,,,,
287,26,Memory,5,,,,,,,00675941121fa.jpg,,,,,,,,,,,,,,,
288,26,Memory,5,,,,,,,00787941205fa.jpg,,,,,,,,,,,,,,,
289,26,Memory,5,,,,,,,00562941031fa.jpg,,,,,,,,,,,,,,,
290,26,Memory,5,,,,,,,sunaqsolmfydodnakub.jpg,,,,,,,,,,,,,,,
291,26,Memory,5,,,,,,,00146960620fb.jpg,,,,,,,,,,,,,,,
292,26,Memory,5,,,,,,,sunarpsxqkduedrrzyi.jpg,,,,,,,,,,,,,,,
293,26,Memory,5,,,,,,,sunaprnrbmgkomdbchr.jpg,,,,,,,,,,,,,,,
294,26,Memory,5,,,,,,,sunacjnahdmqfnjfwqx.jpg,,,,,,,,,,,,,,,
295,26,Memory,5,,,,,,,sunapqwnqzxlsfvgsjm.jpg,,,,,,,,,,,,,,,
296,26,Memory,5,,,,,,,sunamlotskmmsjeogby.jpg,,,,,,,,,,,,,,,
297,26,Memory,5,,,,,,,sunagpjzsbltchlwvou.jpg,,,,,,,,,,,,,,,
298,26,Memory,5,,,,,,,00062931230fb.jpg,,,,,,,,,,,,,,,
299,26,Memory,5,,,,,,,sunahtfxgsrmkiulnwk.jpg,,,,,,,,,,,,,,,
300,26,Presentation,6,00576941031fa_sunacvjlsylseoghjup.jpg,00935960627fa_sunaqbmgkgqucajzrkp.jpg,00576941031fa.jpg,sunacvjlsylseoghjup.jpg,00935960627fa.jpg,sunaqbmgkgqucajzrkp.jpg,,,<,Place,,,,,0,,,,,,,x
301,26,Presentation,6,00280940422fb_sunabohxbskznglnrhv.jpg,00080931230fb_sunaafjszryxyavjzln.jpg,00280940422fb.jpg,sunabohxbskznglnrhv.jpg,00080931230fb.jpg,sunaafjszryxyavjzln.jpg,,,>,Place,,,,,1,,,,,,,o
302,26,Presentation,6,00060931230fa_sunaaehaikpckyjsety.jpg,00145931230fb_sunaatjesvdupctftmn.jpg,00060931230fa.jpg,sunaaehaikpckyjsety.jpg,00145931230fb.jpg,sunaatjesvdupctftmn.jpg,,,<,Face,,,,,1,,,,,,,o
303,26,Presentation,6,01007960627fa_sunbxarcshsnqsefemx.jpg,00705960530fa_sunaduslxfzlbxlllnz.jpg,01007960627fa.jpg,sunbxarcshsnqsefemx.jpg,00705960530fa.jpg,sunaduslxfzlbxlllnz.jpg,,,<,Place,,,,,0,,,,,,,o
304,26,Presentation,6,00775941205fa_sunafvwfsmqkjrutjta.jpg,00077931230fb_sunaafgqutfaishsxyu.jpg,00775941205fa.jpg,sunafvwfsmqkjrutjta.jpg,00077931230fb.jpg,sunaafgqutfaishsxyu.jpg,,,>,Place,,,,,1,,,,,,,o
305,26,Presentation,6,00959960627fa_sunavxokzybtomhbmvm.jpg,00799941205fa_sunagutjvdvnhxejerz.jpg,00959960627fa.jpg,sunavxokzybtomhbmvm.jpg,00799941205fa.jpg,sunagutjvdvnhxejerz.jpg,,,<,Place,,,,,1,,,,,,,x
306,26,Presentation,6,00792941205fa_sunagsiwrmuixqgdimb.jpg,00804960530fa_sunagwswhkvnsmuszlz.jpg,00792941205fa.jpg,sunagsiwrmuixqgdimb.jpg,00804960530fa.jpg,sunagwswhkvnsmuszlz.jpg,,,>,Face,,,,,0,,,,,,,o
307,26,Presentation,6,00292940422fb_sunabrjdpmoedcdjbpo.jpg,00554940519fa_sunacfdkbsrughwqwtt.jpg,00292940422fb.jpg,sunabrjdpmoedcdjbpo.jpg,00554940519fa.jpg,sunacfdkbsrughwqwtt.jpg,,,>,Face,,,,,1,,,,,,,o
308,26,Presentation,6,00961960627fa_sunawotxrevnqvamsfp.jpg,00984960627fa_sunbfzchmomnvzhbxdg.jpg,00961960627fa.jpg,sunawotxrevnqvamsfp.jpg,00984960627fa.jpg,sunbfzchmomnvzhbxdg.jpg,,,>,Face,,,,,1,,,,,,,x
309,26,Presentation,6,00102931230fa_sunaajspcoepticvplv.jpg,00630941031fa_sunadakkdovnuzlycvp.jpg,00102931230fa.jpg,sunaajspcoepticvplv.jpg,00630941031fa.jpg,sunadakkdovnuzlycvp.jpg,,,<,Face,,,,,0,,,,,,,o
310,26,Memory,6,,,,,,,00795941205fa.jpg,,,,,,,,,,,,,,,
311,26,Memory,6,,,,,,,sunafvwfsmqkjrutjta.jpg,,,,,,,,,,,,,,,
312,26,Memory,6,,,,,,,00638941031fa.jpg,,,,,,,,,,,,,,,
313,26,Memory,6,,,,,,,00694941121fa.jpg,,,,,,,,,,,,,,,
314,26,Memory,6,,,,,,,00799941205fa.jpg,,,,,,,,,,,,,,,
315,26,Memory,6,,,,,,,00111931230fb.jpg,,,,,,,,,,,,,,,
316,26,Memory,6,,,,,,,sunabaergayifsgacxt.jpg,,,,,,,,,,,,,,,
317,26,Memory,6,,,,,,,00961960627fa.jpg,,,,,,,,,,,,,,,
318,26,Memory,6,,,,,,,00145931230fb.jpg,,,,,,,,,,,,,,,
319,26,Memory,6,,,,,,,sunaajspcoepticvplv.jpg,,,,,,,,,,,,,,,
320,26,Memory,6,,,,,,,sunagwswhkvnsmuszlz.jpg,,,,,,,,,,,,,,,
321,26,Memory,6,,,,,,,sunagsiwrmuixqgdimb.jpg,,,,,,,,,,,,,,,
322,26,Memory,6,,,,,,,sunadakkdovnuzlycvp.jpg,,,,,,,,,,,,,,,
323,26,Memory,6,,,,,,,sunadrmfzmstgdjdcod.jpg,,,,,,,,,,,,,,,
324,26,Memory,6,,,,,,,sunaduslxfzlbxlllnz.jpg,,,,,,,,,,,,,,,
325,26,Memory,6,,,,,,,sunadfktsqjthoglcsm.jpg,,,,,,,,,,,,,,,
326,26,Memory,6,,,,,,,00753941201fa.jpg,,,,,,,,,,,,,,,
327,26,Memory,6,,,,,,,00792941205fa.jpg,,,,,,,,,,,,,,,
328,26,Memory,6,,,,,,,sunawksfbacycuhbrsc.jpg,,,,,,,,,,,,,,,
329,26,Memory,6,,,,,,,00705960530fa.jpg,,,,,,,,,,,,,,,
330,26,Memory,6,,,,,,,sunbaejotfklekvpxcz.jpg,,,,,,,,,,,,,,,
331,26,Memory,6,,,,,,,sunafcofuuzebuadceo.jpg,,,,,,,,,,,,,,,
332,26,Memory,6,,,,,,,sunaakxjfbrrequcjmx.jpg,,,,,,,,,,,,,,,
333,26,Memory,6,,,,,,,00102931230fa.jpg,,,,,,,,,,,,,,,
334,26,Memory,6,,,,,,,sunabyfxcxhdebvdyfd.jpg,,,,,,,,,,,,,,,
335,26,Memory,6,,,,,,,00630941031fa.jpg,,,,,,,,,,,,,,,
336,26,Memory,6,,,,,,,00482940519fa.jpg,,,,,,,,,,,,,,,
337,26,Memory,6,,,,,,,00775941205fa.jpg,,,,,,,,,,,,,,,
338,26,Memory,6,,,,,,,sunawotxrevnqvamsfp.jpg,,,,,,,,,,,,,,,
339,26,Memory,6,,,,,,,sunaakgekhjklxmvulj.jpg,,,,,,,,,,,,,,,
340,26,Memory,6,,,,,,,sunagtumacdlmciqamz.jpg,,,,,,,,,,,,,,,
341,26,Memory,6,,,,,,,00967960627fa.jpg,,,,,,,,,,,,,,,
342,26,Memory,6,,,,,,,00280940422fb.jpg,,,,,,,,,,,,,,,
343,26,Memory,6,,,,,,,00209940128fb.jpg,,,,,,,,,,,,,,,
344,26,Memory,6,,,,,,,00804960530fa.jpg,,,,,,,,,,,,,,,
345,26,Memory,6,,,,,,,00122931230fa.jpg,,,,,,,,,,,,,,,
346,26,Memory,6,,,,,,,sunabohxbskznglnrhv.jpg,,,,,,,,,,,,,,,
347,26,Memory,6,,,,,,,sunagutjvdvnhxejerz.jpg,,,,,,,,,,,,,,,
348,26,Memory,6,,,,,,,sunaatjesvdupctftmn.jpg,,,,,,,,,,,,,,,
349,26,Memory,6,,,,,,,00960960627fa.jpg,,,,,,,,,,,,,,,
350,26,Presentation,7,00889960530fa_sunaletopenvvozhpxc.jpg,00868960307fa_sunajjxttslobudoqbv.jpg,00889960530fa.jpg,sunaletopenvvozhpxc.jpg,00868960307fa.jpg,sunajjxttslobudoqbv.jpg,,,>,Place,,,,,1,,,,,,,o
351,26,Presentation,7,00789960620fa_sunagpancjmxqfazssf.jpg,00976960627fa_sunbbhqyyzmsxhsbjmp.jpg,00789960620fa.jpg,sunagpancjmxqfazssf.jpg,00976960627fa.jpg,sunbbhqyyzmsxhsbjmp.jpg,,,>,Face,,,,,1,,,,,,,x
352,26,Presentation,7,00630940928fa_sunaczwgyukesaajxnx.jpg,00857940307fa_sunaiwfobocrruqznsv.jpg,00630940928fa.jpg,sunaczwgyukesaajxnx.jpg,00857940307fa.jpg,sunaiwfobocrruqznsv.jpg,,,<,Place,,,,,1,,,,,,,x
353,26,Presentation,7,00725941201fa_sunaefgzwiramypjvtd.jpg,00966960627fa_sunaygrtwrwfezqjizr.jpg,00725941201fa.jpg,sunaefgzwiramypjvtd.jpg,00966960627fa.jpg,sunaygrtwrwfezqjizr.jpg,,,<,Face,,,,,0,,,,,,,o
354,26,Presentation,7,00947960627fa_sunasmmcxdddtmtazwx.jpg,00761960627fa_sunafgdqbclkwfocdhg.jpg,00947960627fa.jpg,sunasmmcxdddtmtazwx.jpg,00761960627fa.jpg,sunafgdqbclkwfocdhg.jpg,,,>,Face,,,,,1,,,,,,,o
355,26,Presentation,7,00147931230fb_sunaatpkocdkocwxpkb.jpg,00869940307fa_sunajoveqhiprwqgoco.jpg,00147931230fb.jpg,sunaatpkocdkocwxpkb.jpg,00869940307fa.jpg,sunajoveqhiprwqgoco.jpg,,,<,Face,,,,,1,,,,,,,x
356,26,Presentation,7,00744941201fa_sunaeomlfaabhpswasy.jpg,00810941205fa_sunahctntqrunhdxhtb.jpg,00744941201fa.jpg,sunaeomlfaabhpswasy.jpg,00810941205fa.jpg,sunahctntqrunhdxhtb.jpg,,,>,Place,,,,,1,,,,,,,o
357,26,Presentation,7,00073931230fa_sunaafbmtoniaasysgu.jpg,00926960627Fa_sunapqwoeotxshkukbh.jpg,00073931230fa.jpg,sunaafbmtoniaasysgu.jpg,00926960627Fa.jpg,sunapqwoeotxshkukbh.jpg,,,>,Face,,,,,1,,,,,,,o
358,26,Presentation,7,00127931230fa_sunaampvucecsfbdafn.jpg,00129931230fb_sunaamsdyakblkfoydx.jpg,00127931230fa.jpg,sunaampvucecsfbdafn.jpg,00129931230fb.jpg,sunaamsdyakblkfoydx.jpg,,,<,Place,,,,,1,,,,,,,x
359,26,Presentation,7,00747941201fa_sunaeutbrtswvsozxyk.jpg,00498960627fa_sunabzjxlmkwnwzimua.jpg,00747941201fa.jpg,sunaeutbrtswvsozxyk.jpg,00498960627fa.jpg,sunabzjxlmkwnwzimua.jpg,,,<,Place,,,,,1,,,,,,,o
360,26,Memory,7,,,,,,,sunaeomlfaabhpswasy.jpg,,,,,,,,,,,,,,,
361,26,Memory,7,,,,,,,00868960307fa.jpg,,,,,,,,,,,,,,,
362,26,Memory,7,,,,,,,sunaekgzpfilgjxpeyq.jpg,,,,,,,,,,,,,,,
363,26,Memory,7,,,,,,,sunaeutbrtswvsozxyk.jpg,,,,,,,,,,,,,,,
364,26,Memory,7,,,,,,,00931960627fa.jpg,,,,,,,,,,,,,,,
365,26,Memory,7,,,,,,,00127931230fa.jpg,,,,,,,,,,,,,,,
366,26,Memory,7,,,,,,,00782941205fa.jpg,,,,,,,,,,,,,,,
367,26,Memory,7,,,,,,,00193940928fa.jpg,,,,,,,,,,,,,,,
368,26,Memory,7,,,,,,,sunakodkcslgqhqlgwl.jpg,,,,,,,,,,,,,,,
369,26,Memory,7,,,,,,,sunajbwkywmsqkldfml.jpg,,,,,,,,,,,,,,,
370,26,Memory,7,,,,,,,00744941201fa.jpg,,,,,,,,,,,,,,,
371,26,Memory,7,,,,,,,sunajjxttslobudoqbv.jpg,,,,,,,,,,,,,,,
372,26,Memory,7,,,,,,,00884960530fa.jpg,,,,,,,,,,,,,,,
373,26,Memory,7,,,,,,,00747941201fa.jpg,,,,,,,,,,,,,,,
374,26,Memory,7,,,,,,,00866940307fa.jpg,,,,,,,,,,,,,,,
375,26,Memory,7,,,,,,,00926960627Fa.jpg,,,,,,,,,,,,,,,
376,26,Memory,7,,,,,,,sunabkmdplkdbvxriff.jpg,,,,,,,,,,,,,,,
377,26,Memory,7,,,,,,,sunabasphceswhwwqvv.jpg,,,,,,,,,,,,,,,
378,26,Memory,7,,,,,,,00630940928fa.jpg,,,,,,,,,,,,,,,
379,26,Memory,7,,,,,,,sunanainkqdvktzoxyl.jpg,,,,,,,,,,,,,,,
380,26,Memory,7,,,,,,,sunaampvucecsfbdafn.jpg,,,,,,,,,,,,,,,
381,26,Memory,7,,,,,,,00857940307fa.jpg,,,,,,,,,,,,,,,
382,26,Memory,7,,,,,,,00966960627fa.jpg,,,,,,,,,,,,,,,
383,26,Memory,7,,,,,,,sunasmmcxdddtmtazwx.jpg,,,,,,,,,,,,,,,
384,26,Memory,7,,,,,,,sunaygrtwrwfezqjizr.jpg,,,,,,,,,,,,,,,
385,26,Memory,7,,,,,,,sunafgdqbclkwfocdhg.jpg,,,,,,,,,,,,,,,
386,26,Memory,7,,,,,,,00947960627fa.jpg,,,,,,,,,,,,,,,
387,26,Memory,7,,,,,,,00211940128fa.jpg,,,,,,,,,,,,,,,
388,26,Memory,7,,,,,,,00761960627fa.jpg,,,,,,,,,,,,,,,
389,26,Memory,7,,,,,,,sunaczwgyukesaajxnx.jpg,,,,,,,,,,,,,,,
390,26,Memory,7,,,,,,,00265940128fb.jpg,,,,,,,,,,,,,,,
391,26,Memory,7,,,,,,,sunaptrqvaooxfvktvw.jpg,,,,,,,,,,,,,,,
392,26,Memory,7,,,,,,,sunaflojskatpeqyzqp.jpg,,,,,,,,,,,,,,,
393,26,Memory,7,,,,,,,sunaiwfobocrruqznsv.jpg,,,,,,,,,,,,,,,
394,26,Memory,7,,,,,,,sunaaxjpzcnxligjtjq.jpg,,,,,,,,,,,,,,,
395,26,Memory,7,,,,,,,00903960620fa.jpg,,,,,,,,,,,,,,,
396,26,Memory,7,,,,,,,sunagfvluwixdsozaql.jpg,,,,,,,,,,,,,,,
397,26,Memory,7,,,,,,,00770941201fa.jpg,,,,,,,,,,,,,,,
398,26,Memory,7,,,,,,,sunapqwoeotxshkukbh.jpg,,,,,,,,,,,,,,,
399,26,Memory,7,,,,,,,00730960620fa.jpg,,,,,,,,,,,,,,,
