,Subject,Trial Type,Run,Cued Composite,Uncued Composite,Cued Face,Cued Place,Uncued Face,Uncued Place,Memory Image,Category,Cued Side,Cued Category,Attention Reaction Time (s),Familiarity Reaction Time (s),Familiarity Rating,Attention Level,Cue Validity,Post Invalid Cue,Pre Invalid Cue,Attention Button
0,SingleRunTest,Presentation,0,00887960530_sunalcrtwiycqobgelp.jpg,00877960530fa_sunajxpkuhbizeveguy.jpg,00887960530.jpg,sunalcrtwiycqobgelp.jpg,00877960530fa.jpg,sunajxpkuhbizeveguy.jpg,,,<,Place,,,,,1,,,
1,SingleRunTest,Presentation,0,00862940307fa_sunaizgnnplsvajzhkc.jpg,00119931230fb_sunaakvmbftkrgqhjun.jpg,00862940307fa.jpg,sunaizgnnplsvajzhkc.jpg,00119931230fb.jpg,sunaakvmbftkrgqhjun.jpg,,,<,Place,,,,,1,,,
2,SingleRunTest,Presentation,0,00705960530fa_sunaduslxfzlbxlllnz.jpg,00316940422fa_sunabxmguapjekttvwm.jpg,00705960530fa.jpg,sunaduslxfzlbxlllnz.jpg,00316940422fa.jpg,sunabxmguapjekttvwm.jpg,,,<,Place,,,,,1,,,
3,SingleRunTest,Presentation,0,00730960620fa_sunaekgzpfilgjxpeyq.jpg,00859940307fa_sunaiycurtqsfkvcaso.jpg,00730960620fa.jpg,sunaekgzpfilgjxpeyq.jpg,00859940307fa.jpg,sunaiycurtqsfkvcaso.jpg,,,<,Place,,,,,1,,,
4,SingleRunTest,Presentation,0,00559940519fa_sunacjkmnpawfzbyvae.jpg,01004960627fa_sunbwtlihsuptkrckid.jpg,00559940519fa.jpg,sunacjkmnpawfzbyvae.jpg,01004960627fa.jpg,sunbwtlihsuptkrckid.jpg,,,<,Place,,,,,0,,,
5,SingleRunTest,Presentation,0,00071940128fa_sunaaexpnawiehinlpy.jpg,00483940519fa_sunabyvpwkgsjtijdwj.jpg,00071940128fa.jpg,sunaaexpnawiehinlpy.jpg,00483940519fa.jpg,sunabyvpwkgsjtijdwj.jpg,,,<,Place,,,,,1,,,
6,SingleRunTest,Presentation,0,00185940422fb_sunaawqdbpihmlbwyyn.jpg,00746941201fa_sunaetydippjxikifsb.jpg,00185940422fb.jpg,sunaawqdbpihmlbwyyn.jpg,00746941201fa.jpg,sunaetydippjxikifsb.jpg,,,<,Place,,,,,1,,,
7,SingleRunTest,Presentation,0,00532960627fa_sunaccdtpgenvcbcbcf.jpg,00576941031fa_sunacvjlsylseoghjup.jpg,00532960627fa.jpg,sunaccdtpgenvcbcbcf.jpg,00576941031fa.jpg,sunacvjlsylseoghjup.jpg,,,<,Place,,,,,0,,,
8,SingleRunTest,Presentation,0,00288940422fa_sunabppokiyglaxpcha.jpg,00982960627fa_sunbesrwkdsffeogeqq.jpg,00288940422fa.jpg,sunabppokiyglaxpcha.jpg,00982960627fa.jpg,sunbesrwkdsffeogeqq.jpg,,,<,Place,,,,,1,,,
9,SingleRunTest,Presentation,0,00077931230fb_sunaafgqutfaishsxyu.jpg,00773960620fa_sunafvsxtzaizojicxx.jpg,00077931230fb.jpg,sunaafgqutfaishsxyu.jpg,00773960620fa.jpg,sunafvsxtzaizojicxx.jpg,,,<,Place,,,,,1,,,
10,SingleRunTest,Memory,0,,,,,,,00483940519fa.jpg,,,,,,,,,,,
11,SingleRunTest,Memory,0,,,,,,,00316940422fa.jpg,,,,,,,,,,,
12,SingleRunTest,Memory,0,,,,,,,00559940519fa.jpg,,,,,,,,,,,
13,SingleRunTest,Memory,0,,,,,,,00947960627fa.jpg,,,,,,,,,,,
14,SingleRunTest,Memory,0,,,,,,,sunasmmcxdddtmtazwx.jpg,,,,,,,,,,,
15,SingleRunTest,Memory,0,,,,,,,sunaczwgyukesaajxnx.jpg,,,,,,,,,,,
16,SingleRunTest,Memory,0,,,,,,,00532960627fa.jpg,,,,,,,,,,,
17,SingleRunTest,Memory,0,,,,,,,00630940928fa.jpg,,,,,,,,,,,
18,SingleRunTest,Memory,0,,,,,,,sunagvjurcwdbixvnyi.jpg,,,,,,,,,,,
19,SingleRunTest,Memory,0,,,,,,,00635941031fa.jpg,,,,,,,,,,,
20,SingleRunTest,Memory,0,,,,,,,sunajwqkfsykceonyig.jpg,,,,,,,,,,,
21,SingleRunTest,Memory,0,,,,,,,sunaayehfdqcyxggsej.jpg,,,,,,,,,,,
22,SingleRunTest,Memory,0,,,,,,,00077931230fb.jpg,,,,,,,,,,,
23,SingleRunTest,Memory,0,,,,,,,sunayaepykrqvenaqqy.jpg,,,,,,,,,,,
24,SingleRunTest,Memory,0,,,,,,,sunabppokiyglaxpcha.jpg,,,,,,,,,,,
25,SingleRunTest,Memory,0,,,,,,,00953960627fa.jpg,,,,,,,,,,,
26,SingleRunTest,Memory,0,,,,,,,00288940422fa.jpg,,,,,,,,,,,
27,SingleRunTest,Memory,0,,,,,,,00746941201fa.jpg,,,,,,,,,,,
28,SingleRunTest,Memory,0,,,,,,,00876960620fa.jpg,,,,,,,,,,,
29,SingleRunTest,Memory,0,,,,,,,sunaccdtpgenvcbcbcf.jpg,,,,,,,,,,,
30,SingleRunTest,Memory,0,,,,,,,sunabxmguapjekttvwm.jpg,,,,,,,,,,,
31,SingleRunTest,Memory,0,,,,,,,sunacjkmnpawfzbyvae.jpg,,,,,,,,,,,
32,SingleRunTest,Memory,0,,,,,,,00963960627fa.jpg,,,,,,,,,,,
33,SingleRunTest,Memory,0,,,,,,,sunaizeyhvjzknwjudw.jpg,,,,,,,,,,,
34,SingleRunTest,Memory,0,,,,,,,00730960620fa.jpg,,,,,,,,,,,
35,SingleRunTest,Memory,0,,,,,,,sunahqldjibofgsfdgb.jpg,,,,,,,,,,,
36,SingleRunTest,Memory,0,,,,,,,00800941205fb.jpg,,,,,,,,,,,
37,SingleRunTest,Memory,0,,,,,,,sunatstrpjxhvtbaczf.jpg,,,,,,,,,,,
38,SingleRunTest,Memory,0,,,,,,,sunabyvpwkgsjtijdwj.jpg,,,,,,,,,,,
39,SingleRunTest,Memory,0,,,,,,,00982960627fa.jpg,,,,,,,,,,,
40,SingleRunTest,Memory,0,,,,,,,sunaddsaeicthrfbkhe.jpg,,,,,,,,,,,
41,SingleRunTest,Memory,0,,,,,,,00194940128fb.jpg,,,,,,,,,,,
42,SingleRunTest,Memory,0,,,,,,,sunaafgqutfaishsxyu.jpg,,,,,,,,,,,
43,SingleRunTest,Memory,0,,,,,,,sunbesrwkdsffeogeqq.jpg,,,,,,,,,,,
44,SingleRunTest,Memory,0,,,,,,,00819940307fa.jpg,,,,,,,,,,,
45,SingleRunTest,Memory,0,,,,,,,sunaetydippjxikifsb.jpg,,,,,,,,,,,
46,SingleRunTest,Memory,0,,,,,,,00860940307fa.jpg,,,,,,,,,,,
47,SingleRunTest,Memory,0,,,,,,,sunaekgzpfilgjxpeyq.jpg,,,,,,,,,,,
48,SingleRunTest,Memory,0,,,,,,,sunafvsxtzaizojicxx.jpg,,,,,,,,,,,
49,SingleRunTest,Memory,0,,,,,,,00773960620fa.jpg,,,,,,,,,,,
50,SingleRunTest,Presentation,1,00305940422fa_sunabtrnbvpppgczjim.jpg,00136931230fb_sunaanptmsknhirrzed.jpg,00305940422fa.jpg,sunabtrnbvpppgczjim.jpg,00136931230fb.jpg,sunaanptmsknhirrzed.jpg,,,<,Place,,,,,0,,,
51,SingleRunTest,Presentation,1,00271940422fa_sunabmbnddafmywtjjj.jpg,00900960530fa_sunamlotskmmsjeogby.jpg,00271940422fa.jpg,sunabmbnddafmywtjjj.jpg,00900960530fa.jpg,sunamlotskmmsjeogby.jpg,,,<,Place,,,,,1,,,
52,SingleRunTest,Presentation,1,00245940128fa_sunabeyhmxodahoieyk.jpg,00794960620fa_sunagtqhhwxjeuxdebe.jpg,00245940128fa.jpg,sunabeyhmxodahoieyk.jpg,00794960620fa.jpg,sunagtqhhwxjeuxdebe.jpg,,,<,Place,,,,,1,,,
53,SingleRunTest,Presentation,1,00753941201fa_sunafcofuuzebuadceo.jpg,00784941205fb_sunagjzcrjvmxzqzljx.jpg,00753941201fa.jpg,sunafcofuuzebuadceo.jpg,00784941205fb.jpg,sunagjzcrjvmxzqzljx.jpg,,,<,Place,,,,,0,,,
54,SingleRunTest,Presentation,1,00829940307fa_sunahwgbqkqcrwprgvh.jpg,00670941121fa_sunadochqcucscehsgk.jpg,00829940307fa.jpg,sunahwgbqkqcrwprgvh.jpg,00670941121fa.jpg,sunadochqcucscehsgk.jpg,,,<,Place,,,,,1,,,
55,SingleRunTest,Presentation,1,00913960530fa_sunaooffzffbhcpirmm.jpg,00061931230fb_sunaaekxzjzrfgtkwjf.jpg,00913960530fa.jpg,sunaooffzffbhcpirmm.jpg,00061931230fb.jpg,sunaaekxzjzrfgtkwjf.jpg,,,<,Place,,,,,1,,,
56,SingleRunTest,Presentation,1,00774941201fa_sunafvtpfczkzopbgue.jpg,00761960627fa_sunafgdqbclkwfocdhg.jpg,00774941201fa.jpg,sunafvtpfczkzopbgue.jpg,00761960627fa.jpg,sunafgdqbclkwfocdhg.jpg,,,<,Place,,,,,1,,,
57,SingleRunTest,Presentation,1,00571940928fa_sunacuatpqpqhyjhjqk.jpg,00676941121fa_sunadpnqovzckyikrjo.jpg,00571940928fa.jpg,sunacuatpqpqhyjhjqk.jpg,00676941121fa.jpg,sunadpnqovzckyikrjo.jpg,,,<,Place,,,,,1,,,
58,SingleRunTest,Presentation,1,00562941031fa_sunacjnahdmqfnjfwqx.jpg,00144931230fb_sunaathajvxrgptwhoj.jpg,00562941031fa.jpg,sunacjnahdmqfnjfwqx.jpg,00144931230fb.jpg,sunaathajvxrgptwhoj.jpg,,,<,Place,,,,,1,,,
59,SingleRunTest,Presentation,1,00772941201fa_sunafpfpiiujzoesnqg.jpg,00914960620fa_sunaozisvwfbmlkfhzv.jpg,00772941201fa.jpg,sunafpfpiiujzoesnqg.jpg,00914960620fa.jpg,sunaozisvwfbmlkfhzv.jpg,,,<,Place,,,,,1,,,
60,SingleRunTest,Memory,1,,,,,,,sunaaemixhfquhnxxlm.jpg,,,,,,,,,,,
61,SingleRunTest,Memory,1,,,,,,,00785941205fa.jpg,,,,,,,,,,,
62,SingleRunTest,Memory,1,,,,,,,00670941121fa.jpg,,,,,,,,,,,
63,SingleRunTest,Memory,1,,,,,,,sunafpfpiiujzoesnqg.jpg,,,,,,,,,,,
64,SingleRunTest,Memory,1,,,,,,,00305940422fa.jpg,,,,,,,,,,,
65,SingleRunTest,Memory,1,,,,,,,sunaavtbadenwnzeutj.jpg,,,,,,,,,,,
66,SingleRunTest,Memory,1,,,,,,,sunaanptmsknhirrzed.jpg,,,,,,,,,,,
67,SingleRunTest,Memory,1,,,,,,,sunaooffzffbhcpirmm.jpg,,,,,,,,,,,
68,SingleRunTest,Memory,1,,,,,,,00242940128fa.jpg,,,,,,,,,,,
69,SingleRunTest,Memory,1,,,,,,,00774941201fa.jpg,,,,,,,,,,,
70,SingleRunTest,Memory,1,,,,,,,sunaajtnvzzpsjdzres.jpg,,,,,,,,,,,
71,SingleRunTest,Memory,1,,,,,,,sunafvtpfczkzopbgue.jpg,,,,,,,,,,,
72,SingleRunTest,Memory,1,,,,,,,sunabtrnbvpppgczjim.jpg,,,,,,,,,,,
73,SingleRunTest,Memory,1,,,,,,,00116931230fa.jpg,,,,,,,,,,,
74,SingleRunTest,Memory,1,,,,,,,sunafcofuuzebuadceo.jpg,,,,,,,,,,,
75,SingleRunTest,Memory,1,,,,,,,sunbvzmgrdvaakxusbu.jpg,,,,,,,,,,,
76,SingleRunTest,Memory,1,,,,,,,sunaathajvxrgptwhoj.jpg,,,,,,,,,,,
77,SingleRunTest,Memory,1,,,,,,,00184940128fa.jpg,,,,,,,,,,,
78,SingleRunTest,Memory,1,,,,,,,00675941121fa.jpg,,,,,,,,,,,
79,SingleRunTest,Memory,1,,,,,,,sunaglqunwuycxydmyu.jpg,,,,,,,,,,,
80,SingleRunTest,Memory,1,,,,,,,sunagjzcrjvmxzqzljx.jpg,,,,,,,,,,,
81,SingleRunTest,Memory,1,,,,,,,00071941031fa.jpg,,,,,,,,,,,
82,SingleRunTest,Memory,1,,,,,,,sunadoxcchtmsxewsau.jpg,,,,,,,,,,,
83,SingleRunTest,Memory,1,,,,,,,00913960530fa.jpg,,,,,,,,,,,
84,SingleRunTest,Memory,1,,,,,,,00761960627fa.jpg,,,,,,,,,,,
85,SingleRunTest,Memory,1,,,,,,,01000960627fa.jpg,,,,,,,,,,,
86,SingleRunTest,Memory,1,,,,,,,sunabcuurugvxwparpk.jpg,,,,,,,,,,,
87,SingleRunTest,Memory,1,,,,,,,00753941201fa.jpg,,,,,,,,,,,
88,SingleRunTest,Memory,1,,,,,,,sunaaexqbtdswxrqjvz.jpg,,,,,,,,,,,
89,SingleRunTest,Memory,1,,,,,,,00784941205fb.jpg,,,,,,,,,,,
90,SingleRunTest,Memory,1,,,,,,,00743941201fa.jpg,,,,,,,,,,,
91,SingleRunTest,Memory,1,,,,,,,00065931230fb.jpg,,,,,,,,,,,
92,SingleRunTest,Memory,1,,,,,,,00108960530fa.jpg,,,,,,,,,,,
93,SingleRunTest,Memory,1,,,,,,,00772941201fa.jpg,,,,,,,,,,,
94,SingleRunTest,Memory,1,,,,,,,00136931230fb.jpg,,,,,,,,,,,
95,SingleRunTest,Memory,1,,,,,,,sunaeoghzrjarigmwua.jpg,,,,,,,,,,,
96,SingleRunTest,Memory,1,,,,,,,sunafgdqbclkwfocdhg.jpg,,,,,,,,,,,
97,SingleRunTest,Memory,1,,,,,,,00144931230fb.jpg,,,,,,,,,,,
98,SingleRunTest,Memory,1,,,,,,,sunadochqcucscehsgk.jpg,,,,,,,,,,,
99,SingleRunTest,Memory,1,,,,,,,sunaakqepfoeqomfgxf.jpg,,,,,,,,,,,
100,SingleRunTest,Presentation,2,00882960530fa_sunaknlirqjqiwbbeeg.jpg,00952960627fa_sunathzzbcwjykldrem.jpg,00882960530fa.jpg,sunaknlirqjqiwbbeeg.jpg,00952960627fa.jpg,sunathzzbcwjykldrem.jpg,,,>,Place,,,,,1,,,
101,SingleRunTest,Presentation,2,00598940928fa_sunacxeheuiigkcgquf.jpg,00960960627fa_sunawksfbacycuhbrsc.jpg,00598940928fa.jpg,sunacxeheuiigkcgquf.jpg,00960960627fa.jpg,sunawksfbacycuhbrsc.jpg,,,>,Place,,,,,0,,,
102,SingleRunTest,Presentation,2,00728941205fa_sunaejnvnpltdmhbcsi.jpg,00925960627fa_sunapqwnqzxlsfvgsjm.jpg,00728941205fa.jpg,sunaejnvnpltdmhbcsi.jpg,00925960627fa.jpg,sunapqwnqzxlsfvgsjm.jpg,,,>,Place,,,,,1,,,
103,SingleRunTest,Presentation,2,00935960627fa_sunaqbmgkgqucajzrkp.jpg,00939960627fa_sunarceibpcyacbmfga.jpg,00935960627fa.jpg,sunaqbmgkgqucajzrkp.jpg,00939960627fa.jpg,sunarceibpcyacbmfga.jpg,,,>,Place,,,,,1,,,
104,SingleRunTest,Presentation,2,00967960627fa_sunbaejotfklekvpxcz.jpg,00986960627fa_sunbgzjryivyczuvkvm.jpg,00967960627fa.jpg,sunbaejotfklekvpxcz.jpg,00986960627fa.jpg,sunbgzjryivyczuvkvm.jpg,,,>,Place,,,,,1,,,
105,SingleRunTest,Presentation,2,00997960627fa_sunbtpilbhhbmhmeuzq.jpg,00090931230fa_sunaahedjlmtqekgyvj.jpg,00997960627fa.jpg,sunbtpilbhhbmhmeuzq.jpg,00090931230fa.jpg,sunaahedjlmtqekgyvj.jpg,,,>,Place,,,,,1,,,
106,SingleRunTest,Presentation,2,00479940519fa_sunabxsbfwjccqxxzxq.jpg,00977960627fa_sunbbxkanhzjgbwyxqs.jpg,00479940519fa.jpg,sunabxsbfwjccqxxzxq.jpg,00977960627fa.jpg,sunbbxkanhzjgbwyxqs.jpg,,,>,Place,,,,,1,,,
107,SingleRunTest,Presentation,2,00154931230fa_sunaauueuhhvklldjik.jpg,00893960530Fa_sunaloffvbvysigxent.jpg,00154931230fa.jpg,sunaauueuhhvklldjik.jpg,00893960530Fa.jpg,sunaloffvbvysigxent.jpg,,,>,Place,,,,,1,,,
108,SingleRunTest,Presentation,2,00554940519fa_sunacfdkbsrughwqwtt.jpg,00227940128fa_sunabckqabszusgcykj.jpg,00554940519fa.jpg,sunacfdkbsrughwqwtt.jpg,00227940128fa.jpg,sunabckqabszusgcykj.jpg,,,>,Place,,,,,1,,,
109,SingleRunTest,Presentation,2,00780960530fa_sunagetqixeypsysbpn.jpg,00851940307fa_sunaivflshbyfrfzhqb.jpg,00780960530fa.jpg,sunagetqixeypsysbpn.jpg,00851940307fa.jpg,sunaivflshbyfrfzhqb.jpg,,,>,Place,,,,,1,,,
110,SingleRunTest,Memory,2,,,,,,,sunabxsbfwjccqxxzxq.jpg,,,,,,,,,,,
111,SingleRunTest,Memory,2,,,,,,,00227940128fa.jpg,,,,,,,,,,,
112,SingleRunTest,Memory,2,,,,,,,sunacdnquypmsshhsbk.jpg,,,,,,,,,,,
113,SingleRunTest,Memory,2,,,,,,,sunabqowuarvqqcnipn.jpg,,,,,,,,,,,
114,SingleRunTest,Memory,2,,,,,,,sunathzzbcwjykldrem.jpg,,,,,,,,,,,
115,SingleRunTest,Memory,2,,,,,,,sunabckqabszusgcykj.jpg,,,,,,,,,,,
116,SingleRunTest,Memory,2,,,,,,,00154931230fa.jpg,,,,,,,,,,,
117,SingleRunTest,Memory,2,,,,,,,sunagountlxpzkytsmp.jpg,,,,,,,,,,,
118,SingleRunTest,Memory,2,,,,,,,sunaauueuhhvklldjik.jpg,,,,,,,,,,,
119,SingleRunTest,Memory,2,,,,,,,sunbddbivbptlrlauhy.jpg,,,,,,,,,,,
120,SingleRunTest,Memory,2,,,,,,,sunabkngeblodihjvbk.jpg,,,,,,,,,,,
121,SingleRunTest,Memory,2,,,,,,,sunbloeoiozwjjsiamp.jpg,,,,,,,,,,,
122,SingleRunTest,Memory,2,,,,,,,00788941205fa.jpg,,,,,,,,,,,
123,SingleRunTest,Memory,2,,,,,,,00967960627fa.jpg,,,,,,,,,,,
124,SingleRunTest,Memory,2,,,,,,,sunbaejotfklekvpxcz.jpg,,,,,,,,,,,
125,SingleRunTest,Memory,2,,,,,,,00851940307fa.jpg,,,,,,,,,,,
126,SingleRunTest,Memory,2,,,,,,,00290940422fa.jpg,,,,,,,,,,,
127,SingleRunTest,Memory,2,,,,,,,00070940307fa.jpg,,,,,,,,,,,
128,SingleRunTest,Memory,2,,,,,,,sunbwyuesflwdpqtgoy.jpg,,,,,,,,,,,
129,SingleRunTest,Memory,2,,,,,,,00598940928fa.jpg,,,,,,,,,,,
130,SingleRunTest,Memory,2,,,,,,,sunacxeheuiigkcgquf.jpg,,,,,,,,,,,
131,SingleRunTest,Memory,2,,,,,,,00952960627fa.jpg,,,,,,,,,,,
132,SingleRunTest,Memory,2,,,,,,,sunabyfxcxhdebvdyfd.jpg,,,,,,,,,,,
133,SingleRunTest,Memory,2,,,,,,,00266940128fb.jpg,,,,,,,,,,,
134,SingleRunTest,Memory,2,,,,,,,sunarceibpcyacbmfga.jpg,,,,,,,,,,,
135,SingleRunTest,Memory,2,,,,,,,00681941121fa.jpg,,,,,,,,,,,
136,SingleRunTest,Memory,2,,,,,,,sunaqbmgkgqucajzrkp.jpg,,,,,,,,,,,
137,SingleRunTest,Memory,2,,,,,,,00939960627fa.jpg,,,,,,,,,,,
138,SingleRunTest,Memory,2,,,,,,,00540940519fa.jpg,,,,,,,,,,,
139,SingleRunTest,Memory,2,,,,,,,sunbbxkanhzjgbwyxqs.jpg,,,,,,,,,,,
140,SingleRunTest,Memory,2,,,,,,,00987960627fa.jpg,,,,,,,,,,,
141,SingleRunTest,Memory,2,,,,,,,sunaaeplwsfslcbtojr.jpg,,,,,,,,,,,
142,SingleRunTest,Memory,2,,,,,,,00977960627fa.jpg,,,,,,,,,,,
143,SingleRunTest,Memory,2,,,,,,,00479940519fa.jpg,,,,,,,,,,,
144,SingleRunTest,Memory,2,,,,,,,00935960627fa.jpg,,,,,,,,,,,
145,SingleRunTest,Memory,2,,,,,,,sunaivflshbyfrfzhqb.jpg,,,,,,,,,,,
146,SingleRunTest,Memory,2,,,,,,,01005960627fa.jpg,,,,,,,,,,,
147,SingleRunTest,Memory,2,,,,,,,sunadqmjrhfjyuzyvdd.jpg,,,,,,,,,,,
148,SingleRunTest,Memory,2,,,,,,,00978960627fa.jpg,,,,,,,,,,,
149,SingleRunTest,Memory,2,,,,,,,00482940519fa.jpg,,,,,,,,,,,
150,SingleRunTest,Presentation,3,00069931230fb_sunaaeowapdkwzqpgqr.jpg,00130931230fa_sunaamvxnvouicstkjb.jpg,00069931230fb.jpg,sunaaeowapdkwzqpgqr.jpg,00130931230fa.jpg,sunaamvxnvouicstkjb.jpg,,,<,Face,,,,,0,,,
151,SingleRunTest,Presentation,3,00647941031fa_sunadflbrkckmepztql.jpg,00198940128fb_sunaazezcsunmhttzxz.jpg,00647941031fa.jpg,sunadflbrkckmepztql.jpg,00198940128fb.jpg,sunaazezcsunmhttzxz.jpg,,,<,Face,,,,,1,,,
152,SingleRunTest,Presentation,3,00197940128fa_sunaaylzyqlqrsmfwif.jpg,00620940928fa_sunacypmnujalygkunp.jpg,00197940128fa.jpg,sunaaylzyqlqrsmfwif.jpg,00620940928fa.jpg,sunacypmnujalygkunp.jpg,,,<,Face,,,,,1,,,
153,SingleRunTest,Presentation,3,00792941205fa_sunagsiwrmuixqgdimb.jpg,00871940307_sunajrujcsdxmfbssmc.jpg,00792941205fa.jpg,sunagsiwrmuixqgdimb.jpg,00871940307.jpg,sunajrujcsdxmfbssmc.jpg,,,<,Face,,,,,1,,,
154,SingleRunTest,Presentation,3,00762941201fa_sunafgzgbisbopcyslr.jpg,00773941201fa_sunafvcflzhlqloapyo.jpg,00762941201fa.jpg,sunafgzgbisbopcyslr.jpg,00773941201fa.jpg,sunafvcflzhlqloapyo.jpg,,,<,Face,,,,,1,,,
155,SingleRunTest,Presentation,3,00910960530fa_sunaofikylqtxphvdem.jpg,00812941205fa_sunahgtbwgsmtqeodwh.jpg,00910960530fa.jpg,sunaofikylqtxphvdem.jpg,00812941205fa.jpg,sunahgtbwgsmtqeodwh.jpg,,,<,Face,,,,,1,,,
156,SingleRunTest,Presentation,3,00955960627fb_sunauburywlkjszngcq.jpg,00662941121fa_sunadkazmlajmohnwfl.jpg,00955960627fb.jpg,sunauburywlkjszngcq.jpg,00662941121fa.jpg,sunadkazmlajmohnwfl.jpg,,,<,Face,,,,,1,,,
157,SingleRunTest,Presentation,3,00827940307fa_sunahtfxgsrmkiulnwk.jpg,00778941205fa_sunagcthdfirrcawoic.jpg,00827940307fa.jpg,sunahtfxgsrmkiulnwk.jpg,00778941205fa.jpg,sunagcthdfirrcawoic.jpg,,,<,Face,,,,,1,,,
158,SingleRunTest,Presentation,3,00098931230fa_sunaajpqmulidejvjsr.jpg,00908960530fa_sunanwjjyqqwzqrqagd.jpg,00098931230fa.jpg,sunaajpqmulidejvjsr.jpg,00908960530fa.jpg,sunanwjjyqqwzqrqagd.jpg,,,<,Face,,,,,1,,,
159,SingleRunTest,Presentation,3,00210940128fb_sunabanoxjtqxamkucc.jpg,00127931230fa_sunaampvucecsfbdafn.jpg,00210940128fb.jpg,sunabanoxjtqxamkucc.jpg,00127931230fa.jpg,sunaampvucecsfbdafn.jpg,,,<,Face,,,,,1,,,
160,SingleRunTest,Memory,3,,,,,,,sunalkiibhqpxfamlll.jpg,,,,,,,,,,,
161,SingleRunTest,Memory,3,,,,,,,sunacypmnujalygkunp.jpg,,,,,,,,,,,
162,SingleRunTest,Memory,3,,,,,,,00093931230fa.jpg,,,,,,,,,,,
163,SingleRunTest,Memory,3,,,,,,,sunagsiwrmuixqgdimb.jpg,,,,,,,,,,,
164,SingleRunTest,Memory,3,,,,,,,00662941121fa.jpg,,,,,,,,,,,
165,SingleRunTest,Memory,3,,,,,,,00260940128fa.jpg,,,,,,,,,,,
166,SingleRunTest,Memory,3,,,,,,,00779941205fa.jpg,,,,,,,,,,,
167,SingleRunTest,Memory,3,,,,,,,00919960620fa.jpg,,,,,,,,,,,
168,SingleRunTest,Memory,3,,,,,,,sunaofikylqtxphvdem.jpg,,,,,,,,,,,
169,SingleRunTest,Memory,3,,,,,,,00908960530fa.jpg,,,,,,,,,,,
170,SingleRunTest,Memory,3,,,,,,,sunagdzlvkqtpnfxfcg.jpg,,,,,,,,,,,
171,SingleRunTest,Memory,3,,,,,,,sunaajpqmulidejvjsr.jpg,,,,,,,,,,,
172,SingleRunTest,Memory,3,,,,,,,sunanwjjyqqwzqrqagd.jpg,,,,,,,,,,,
173,SingleRunTest,Memory,3,,,,,,,sunaahwnmtqsrhocysw.jpg,,,,,,,,,,,
174,SingleRunTest,Memory,3,,,,,,,sunabgfhvifeijihhjw.jpg,,,,,,,,,,,
175,SingleRunTest,Memory,3,,,,,,,sunadflbrkckmepztql.jpg,,,,,,,,,,,
176,SingleRunTest,Memory,3,,,,,,,sunafgzgbisbopcyslr.jpg,,,,,,,,,,,
177,SingleRunTest,Memory,3,,,,,,,00650941031fa.jpg,,,,,,,,,,,
178,SingleRunTest,Memory,3,,,,,,,00198940128fb.jpg,,,,,,,,,,,
179,SingleRunTest,Memory,3,,,,,,,sunadkazmlajmohnwfl.jpg,,,,,,,,,,,
180,SingleRunTest,Memory,3,,,,,,,sunadikxpvqeabxrvvc.jpg,,,,,,,,,,,
181,SingleRunTest,Memory,3,,,,,,,sunapmfmzadmosuogaz.jpg,,,,,,,,,,,
182,SingleRunTest,Memory,3,,,,,,,sunaeuzwggvibufclwf.jpg,,,,,,,,,,,
183,SingleRunTest,Memory,3,,,,,,,00762941201fa.jpg,,,,,,,,,,,
184,SingleRunTest,Memory,3,,,,,,,sunahrltmuwbiehihpe.jpg,,,,,,,,,,,
185,SingleRunTest,Memory,3,,,,,,,sunabctlikybqabezjv.jpg,,,,,,,,,,,
186,SingleRunTest,Memory,3,,,,,,,00792941205fa.jpg,,,,,,,,,,,
187,SingleRunTest,Memory,3,,,,,,,00750941201fa.jpg,,,,,,,,,,,
188,SingleRunTest,Memory,3,,,,,,,00825940307fa.jpg,,,,,,,,,,,
189,SingleRunTest,Memory,3,,,,,,,00130931230fa.jpg,,,,,,,,,,,
190,SingleRunTest,Memory,3,,,,,,,00239940128fa.jpg,,,,,,,,,,,
191,SingleRunTest,Memory,3,,,,,,,sunaazezcsunmhttzxz.jpg,,,,,,,,,,,
192,SingleRunTest,Memory,3,,,,,,,00098931230fa.jpg,,,,,,,,,,,
193,SingleRunTest,Memory,3,,,,,,,00647941031fa.jpg,,,,,,,,,,,
194,SingleRunTest,Memory,3,,,,,,,00811960530fa.jpg,,,,,,,,,,,
195,SingleRunTest,Memory,3,,,,,,,sunaamvxnvouicstkjb.jpg,,,,,,,,,,,
196,SingleRunTest,Memory,3,,,,,,,00620940928fa.jpg,,,,,,,,,,,
197,SingleRunTest,Memory,3,,,,,,,sunahedfrhtcwpneund.jpg,,,,,,,,,,,
198,SingleRunTest,Memory,3,,,,,,,00891960530fa.jpg,,,,,,,,,,,
199,SingleRunTest,Memory,3,,,,,,,00910960530fa.jpg,,,,,,,,,,,
200,SingleRunTest,Presentation,4,00870940307fa_sunajrgtewnualfcerj.jpg,00760960620fa_sunaffstbkappprzxnv.jpg,00870940307fa.jpg,sunajrgtewnualfcerj.jpg,00760960620fa.jpg,sunaffstbkappprzxnv.jpg,,,<,Face,,,,,1,,,
201,SingleRunTest,Presentation,4,00193940928fa_sunaaxjpzcnxligjtjq.jpg,00878960530fa_sunakgbnzxmfohgehnu.jpg,00193940928fa.jpg,sunaaxjpzcnxligjtjq.jpg,00878960530fa.jpg,sunakgbnzxmfohgehnu.jpg,,,<,Face,,,,,1,,,
202,SingleRunTest,Presentation,4,00548940519fa_sunacerqowiaeoqkmsq.jpg,00133931230fa_sunaanlwnpqndclffxt.jpg,00548940519fa.jpg,sunacerqowiaeoqkmsq.jpg,00133931230fa.jpg,sunaanlwnpqndclffxt.jpg,,,<,Face,,,,,0,,,
203,SingleRunTest,Presentation,4,00961960627fa_sunawotxrevnqvamsfp.jpg,00969960627fa_sunbaoizrfijvhpnnjn.jpg,00961960627fa.jpg,sunawotxrevnqvamsfp.jpg,00969960627fa.jpg,sunbaoizrfijvhpnnjn.jpg,,,<,Face,,,,,1,,,
204,SingleRunTest,Presentation,4,00529940519fa_sunacbeefkxpymwevpk.jpg,00598941031fa_sunacxtcahkymosigud.jpg,00529940519fa.jpg,sunacbeefkxpymwevpk.jpg,00598941031fa.jpg,sunacxtcahkymosigud.jpg,,,<,Face,,,,,1,,,
205,SingleRunTest,Presentation,4,00933960627fa_sunapwjkcxdaeqehfql.jpg,00807941205fa_sunahawfngukizslzsd.jpg,00933960627fa.jpg,sunapwjkcxdaeqehfql.jpg,00807941205fa.jpg,sunahawfngukizslzsd.jpg,,,<,Face,,,,,1,,,
206,SingleRunTest,Presentation,4,00848940307fa_sunaivdylrawbmhryfp.jpg,00146960620fb_sunaatpeezlljqaxlhj.jpg,00848940307fa.jpg,sunaivdylrawbmhryfp.jpg,00146960620fb.jpg,sunaatpeezlljqaxlhj.jpg,,,<,Face,,,,,0,,,
207,SingleRunTest,Presentation,4,00902960530fa_sunanaacmmosxrfwmvl.jpg,00132931230fb_sunaanjcbzdvtvblsdy.jpg,00902960530fa.jpg,sunanaacmmosxrfwmvl.jpg,00132931230fb.jpg,sunaanjcbzdvtvblsdy.jpg,,,<,Face,,,,,1,,,
208,SingleRunTest,Presentation,4,00719941201fa_sunadvithllcgmfxsrn.jpg,00972960627fa_sunbbfqwjpdxniyhies.jpg,00719941201fa.jpg,sunadvithllcgmfxsrn.jpg,00972960627fa.jpg,sunbbfqwjpdxniyhies.jpg,,,<,Face,,,,,1,,,
209,SingleRunTest,Presentation,4,00086931230fa_sunaafynehyrzpsoaml.jpg,00866940307fa_sunajbwkywmsqkldfml.jpg,00086931230fa.jpg,sunaafynehyrzpsoaml.jpg,00866940307fa.jpg,sunajbwkywmsqkldfml.jpg,,,<,Face,,,,,1,,,
210,SingleRunTest,Memory,4,,,,,,,00797960620fa.jpg,,,,,,,,,,,
211,SingleRunTest,Memory,4,,,,,,,sunawotxrevnqvamsfp.jpg,,,,,,,,,,,
212,SingleRunTest,Memory,4,,,,,,,sunaafynehyrzpsoaml.jpg,,,,,,,,,,,
213,SingleRunTest,Memory,4,,,,,,,00589940928fa.jpg,,,,,,,,,,,
214,SingleRunTest,Memory,4,,,,,,,00889960530fa.jpg,,,,,,,,,,,
215,SingleRunTest,Memory,4,,,,,,,sunbpvgllfdejxcpjqp.jpg,,,,,,,,,,,
216,SingleRunTest,Memory,4,,,,,,,00132931230fb.jpg,,,,,,,,,,,
217,SingleRunTest,Memory,4,,,,,,,sunaffgsyyvoqdlkmnk.jpg,,,,,,,,,,,
218,SingleRunTest,Memory,4,,,,,,,sunaeuvjbmdpknaqqaj.jpg,,,,,,,,,,,
219,SingleRunTest,Memory,4,,,,,,,sunbaoizrfijvhpnnjn.jpg,,,,,,,,,,,
220,SingleRunTest,Memory,4,,,,,,,sunaalltyvjhbzhkmvg.jpg,,,,,,,,,,,
221,SingleRunTest,Memory,4,,,,,,,00235940128fb.jpg,,,,,,,,,,,
222,SingleRunTest,Memory,4,,,,,,,sunacerqowiaeoqkmsq.jpg,,,,,,,,,,,
223,SingleRunTest,Memory,4,,,,,,,sunahawfngukizslzsd.jpg,,,,,,,,,,,
224,SingleRunTest,Memory,4,,,,,,,00969960627fa.jpg,,,,,,,,,,,
225,SingleRunTest,Memory,4,,,,,,,00723941201fa.jpg,,,,,,,,,,,
226,SingleRunTest,Memory,4,,,,,,,00993960627fa.jpg,,,,,,,,,,,
227,SingleRunTest,Memory,4,,,,,,,00902960530fa.jpg,,,,,,,,,,,
228,SingleRunTest,Memory,4,,,,,,,sunaletopenvvozhpxc.jpg,,,,,,,,,,,
229,SingleRunTest,Memory,4,,,,,,,00961960627fa.jpg,,,,,,,,,,,
230,SingleRunTest,Memory,4,,,,,,,sunaedtgwjvvziytspa.jpg,,,,,,,,,,,
231,SingleRunTest,Memory,4,,,,,,,00754941201fa.jpg,,,,,,,,,,,
232,SingleRunTest,Memory,4,,,,,,,sunacwggadqsfpovdjv.jpg,,,,,,,,,,,
233,SingleRunTest,Memory,4,,,,,,,00996960627fa.jpg,,,,,,,,,,,
234,SingleRunTest,Memory,4,,,,,,,sunanaacmmosxrfwmvl.jpg,,,,,,,,,,,
235,SingleRunTest,Memory,4,,,,,,,00866940307fa.jpg,,,,,,,,,,,
236,SingleRunTest,Memory,4,,,,,,,00146960620fb.jpg,,,,,,,,,,,
237,SingleRunTest,Memory,4,,,,,,,00125931230fa.jpg,,,,,,,,,,,
238,SingleRunTest,Memory,4,,,,,,,sunabclssnoeuigtawp.jpg,,,,,,,,,,,
239,SingleRunTest,Memory,4,,,,,,,sunaanjcbzdvtvblsdy.jpg,,,,,,,,,,,
240,SingleRunTest,Memory,4,,,,,,,00193940928fa.jpg,,,,,,,,,,,
241,SingleRunTest,Memory,4,,,,,,,sunajbwkywmsqkldfml.jpg,,,,,,,,,,,
242,SingleRunTest,Memory,4,,,,,,,00749941201fa.jpg,,,,,,,,,,,
243,SingleRunTest,Memory,4,,,,,,,sunaatpeezlljqaxlhj.jpg,,,,,,,,,,,
244,SingleRunTest,Memory,4,,,,,,,00807941205fa.jpg,,,,,,,,,,,
245,SingleRunTest,Memory,4,,,,,,,00548940519fa.jpg,,,,,,,,,,,
246,SingleRunTest,Memory,4,,,,,,,sunagufzbeteqdjxais.jpg,,,,,,,,,,,
247,SingleRunTest,Memory,4,,,,,,,sunbprywzqxjcezkbch.jpg,,,,,,,,,,,
248,SingleRunTest,Memory,4,,,,,,,00086931230fa.jpg,,,,,,,,,,,
249,SingleRunTest,Memory,4,,,,,,,sunaaxjpzcnxligjtjq.jpg,,,,,,,,,,,
250,SingleRunTest,Presentation,5,00294940422fb_sunabrlndkruqokhury.jpg,00880960530fa_sunakmnfgklupjijsgf.jpg,00294940422fb.jpg,sunabrlndkruqokhury.jpg,00880960530fa.jpg,sunakmnfgklupjijsgf.jpg,,,>,Place,,,,,1,,,
251,SingleRunTest,Presentation,5,00101931230fb_sunaajqmsaavkmgbsth.jpg,00102931230fa_sunaajspcoepticvplv.jpg,00101931230fb.jpg,sunaajqmsaavkmgbsth.jpg,00102931230fa.jpg,sunaajspcoepticvplv.jpg,,,>,Place,,,,,1,,,
252,SingleRunTest,Presentation,5,00809960620fa_sunahbvlpavurqoxdeq.jpg,00777941205fa_sunagcinxkccdtrjmlv.jpg,00809960620fa.jpg,sunahbvlpavurqoxdeq.jpg,00777941205fa.jpg,sunagcinxkccdtrjmlv.jpg,,,>,Place,,,,,1,,,
253,SingleRunTest,Presentation,5,00725941201fa_sunaefgzwiramypjvtd.jpg,00803941205fa_sunagvxkjokqimstxpe.jpg,00725941201fa.jpg,sunaefgzwiramypjvtd.jpg,00803941205fa.jpg,sunagvxkjokqimstxpe.jpg,,,>,Place,,,,,1,,,
254,SingleRunTest,Presentation,5,00885960530fa_sunakwlvxjpddialozd.jpg,00984960627fa_sunbfzchmomnvzhbxdg.jpg,00885960530fa.jpg,sunakwlvxjpddialozd.jpg,00984960627fa.jpg,sunbfzchmomnvzhbxdg.jpg,,,>,Place,,,,,1,,,
255,SingleRunTest,Presentation,5,01010960627fa_suncnkvbhypnivcohyx.jpg,00574940928fa_sunacvbrcejzwmcgnoq.jpg,01010960627fa.jpg,suncnkvbhypnivcohyx.jpg,00574940928fa.jpg,sunacvbrcejzwmcgnoq.jpg,,,>,Place,,,,,1,,,
256,SingleRunTest,Presentation,5,00267940128fb_sunablfqiwfqomjarht.jpg,00314940422fa_sunabwmcbaxwioksdgw.jpg,00267940128fb.jpg,sunablfqiwfqomjarht.jpg,00314940422fa.jpg,sunabwmcbaxwioksdgw.jpg,,,>,Place,,,,,1,,,
257,SingleRunTest,Presentation,5,00543940519fa_sunacepzfrmtkiqonpy.jpg,00841940307fa_sunaisiwfgppimtnmxl.jpg,00543940519fa.jpg,sunacepzfrmtkiqonpy.jpg,00841940307fa.jpg,sunaisiwfgppimtnmxl.jpg,,,>,Place,,,,,1,,,
258,SingleRunTest,Presentation,5,00208940128fa_sunaazzyhbvqjpmazjq.jpg,00810941205fa_sunahctntqrunhdxhtb.jpg,00208940128fa.jpg,sunaazzyhbvqjpmazjq.jpg,00810941205fa.jpg,sunahctntqrunhdxhtb.jpg,,,>,Place,,,,,1,,,
259,SingleRunTest,Presentation,5,00783941205fa_sunagjeesomrwjsfqie.jpg,00789960620fa_sunagpancjmxqfazssf.jpg,00783941205fa.jpg,sunagjeesomrwjsfqie.jpg,00789960620fa.jpg,sunagpancjmxqfazssf.jpg,,,>,Place,,,,,1,,,
260,SingleRunTest,Memory,5,,,,,,,00631940928fa.jpg,,,,,,,,,,,
261,SingleRunTest,Memory,5,,,,,,,00294940422fb.jpg,,,,,,,,,,,
262,SingleRunTest,Memory,5,,,,,,,00966960627fa.jpg,,,,,,,,,,,
263,SingleRunTest,Memory,5,,,,,,,00101931230fb.jpg,,,,,,,,,,,
264,SingleRunTest,Memory,5,,,,,,,sunacvbrcejzwmcgnoq.jpg,,,,,,,,,,,
265,SingleRunTest,Memory,5,,,,,,,00885960530fa.jpg,,,,,,,,,,,
266,SingleRunTest,Memory,5,,,,,,,sunaajqmsaavkmgbsth.jpg,,,,,,,,,,,
267,SingleRunTest,Memory,5,,,,,,,suncnkvbhypnivcohyx.jpg,,,,,,,,,,,
268,SingleRunTest,Memory,5,,,,,,,sunaisiwfgppimtnmxl.jpg,,,,,,,,,,,
269,SingleRunTest,Memory,5,,,,,,,00892960530fa.jpg,,,,,,,,,,,
270,SingleRunTest,Memory,5,,,,,,,00574940928fa.jpg,,,,,,,,,,,
271,SingleRunTest,Memory,5,,,,,,,sunaiozxhxgtfrmoagh.jpg,,,,,,,,,,,
272,SingleRunTest,Memory,5,,,,,,,sunakwlvxjpddialozd.jpg,,,,,,,,,,,
273,SingleRunTest,Memory,5,,,,,,,sunacvzhvcksnwqcqbw.jpg,,,,,,,,,,,
274,SingleRunTest,Memory,5,,,,,,,00815941205fa.jpg,,,,,,,,,,,
275,SingleRunTest,Memory,5,,,,,,,sunagvxkjokqimstxpe.jpg,,,,,,,,,,,
276,SingleRunTest,Memory,5,,,,,,,00803941205fa.jpg,,,,,,,,,,,
277,SingleRunTest,Memory,5,,,,,,,sunagpancjmxqfazssf.jpg,,,,,,,,,,,
278,SingleRunTest,Memory,5,,,,,,,00841940307fa.jpg,,,,,,,,,,,
279,SingleRunTest,Memory,5,,,,,,,sunadsgmtznewzyasnk.jpg,,,,,,,,,,,
280,SingleRunTest,Memory,5,,,,,,,sunapqwoeotxshkukbh.jpg,,,,,,,,,,,
281,SingleRunTest,Memory,5,,,,,,,00926960627Fa.jpg,,,,,,,,,,,
282,SingleRunTest,Memory,5,,,,,,,sunahiphsekjihkafsl.jpg,,,,,,,,,,,
283,SingleRunTest,Memory,5,,,,,,,sunabjuovqvyfuzvqwt.jpg,,,,,,,,,,,
284,SingleRunTest,Memory,5,,,,,,,00725941201fa.jpg,,,,,,,,,,,
285,SingleRunTest,Memory,5,,,,,,,01010960627fa.jpg,,,,,,,,,,,
286,SingleRunTest,Memory,5,,,,,,,00789960620fa.jpg,,,,,,,,,,,
287,SingleRunTest,Memory,5,,,,,,,sunabrlndkruqokhury.jpg,,,,,,,,,,,
288,SingleRunTest,Memory,5,,,,,,,00581940928fa.jpg,,,,,,,,,,,
289,SingleRunTest,Memory,5,,,,,,,sunaakxjfbrrequcjmx.jpg,,,,,,,,,,,
290,SingleRunTest,Memory,5,,,,,,,sunakmnfgklupjijsgf.jpg,,,,,,,,,,,
291,SingleRunTest,Memory,5,,,,,,,00263940128fb.jpg,,,,,,,,,,,
292,SingleRunTest,Memory,5,,,,,,,00838940307fa.jpg,,,,,,,,,,,
293,SingleRunTest,Memory,5,,,,,,,00700941121fa.jpg,,,,,,,,,,,
294,SingleRunTest,Memory,5,,,,,,,00122931230fa.jpg,,,,,,,,,,,
295,SingleRunTest,Memory,5,,,,,,,sunaefgzwiramypjvtd.jpg,,,,,,,,,,,
296,SingleRunTest,Memory,5,,,,,,,sunaygrtwrwfezqjizr.jpg,,,,,,,,,,,
297,SingleRunTest,Memory,5,,,,,,,00880960530fa.jpg,,,,,,,,,,,
298,SingleRunTest,Memory,5,,,,,,,sunalntxqqadigcletd.jpg,,,,,,,,,,,
299,SingleRunTest,Memory,5,,,,,,,sunadbdqzigzwipuipr.jpg,,,,,,,,,,,
300,SingleRunTest,Presentation,6,00909960530_sunaobtizabegtwfwul.jpg,00782941205fa_sunagfvluwixdsozaql.jpg,00909960530.jpg,sunaobtizabegtwfwul.jpg,00782941205fa.jpg,sunagfvluwixdsozaql.jpg,,,>,Face,,,,,1,,,
301,SingleRunTest,Presentation,6,00868960307fa_sunajjxttslobudoqbv.jpg,00801941205fa_sunagvprlbprarvgdvj.jpg,00868960307fa.jpg,sunajjxttslobudoqbv.jpg,00801941205fa.jpg,sunagvprlbprarvgdvj.jpg,,,>,Face,,,,,1,,,
302,SingleRunTest,Presentation,6,00630941031fa_sunadakkdovnuzlycvp.jpg,00771941205fa_sunafowswglhxcsufpo.jpg,00630941031fa.jpg,sunadakkdovnuzlycvp.jpg,00771941205fa.jpg,sunafowswglhxcsufpo.jpg,,,>,Face,,,,,1,,,
303,SingleRunTest,Presentation,6,00874940307fa_sunajtrfunvzdfticna.jpg,00112931230fa_sunaakjaacuzulqckgl.jpg,00874940307fa.jpg,sunajtrfunvzdfticna.jpg,00112931230fa.jpg,sunaakjaacuzulqckgl.jpg,,,>,Face,,,,,1,,,
304,SingleRunTest,Presentation,6,00073931230fa_sunaafbmtoniaasysgu.jpg,01007960627fa_sunbxarcshsnqsefemx.jpg,00073931230fa.jpg,sunaafbmtoniaasysgu.jpg,01007960627fa.jpg,sunbxarcshsnqsefemx.jpg,,,>,Face,,,,,1,,,
305,SingleRunTest,Presentation,6,00895960530fa_sunamczizlzavhzhpay.jpg,00481940519fa_sunabxsuqbleluwczoy.jpg,00895960530fa.jpg,sunamczizlzavhzhpay.jpg,00481940519fa.jpg,sunabxsuqbleluwczoy.jpg,,,>,Face,,,,,1,,,
306,SingleRunTest,Presentation,6,00903960620fa_sunanainkqdvktzoxyl.jpg,00313940422fa_sunabwjvmoaddlyxfjr.jpg,00903960620fa.jpg,sunanainkqdvktzoxyl.jpg,00313940422fa.jpg,sunabwjvmoaddlyxfjr.jpg,,,>,Face,,,,,1,,,
307,SingleRunTest,Presentation,6,00836940307fa_sunainqelldeebvxtcz.jpg,00505960627fa_sunabzuqsrgcsonqlkz.jpg,00836940307fa.jpg,sunainqelldeebvxtcz.jpg,00505960627fa.jpg,sunabzuqsrgcsonqlkz.jpg,,,>,Face,,,,,1,,,
308,SingleRunTest,Presentation,6,00080931230fb_sunaafjszryxyavjzln.jpg,00131931230fb_sunaangbuylfvckqqoo.jpg,00080931230fb.jpg,sunaafjszryxyavjzln.jpg,00131931230fb.jpg,sunaangbuylfvckqqoo.jpg,,,>,Face,,,,,1,,,
309,SingleRunTest,Presentation,6,00922960627fa_sunapqkyghktgtosuuk.jpg,00943960627fa_sunarpsxqkduedrrzyi.jpg,00922960627fa.jpg,sunapqkyghktgtosuuk.jpg,00943960627fa.jpg,sunarpsxqkduedrrzyi.jpg,,,>,Face,,,,,1,,,
310,SingleRunTest,Memory,6,,,,,,,sunaqyylsngywqzwfmx.jpg,,,,,,,,,,,
311,SingleRunTest,Memory,6,,,,,,,sunagwswhkvnsmuszlz.jpg,,,,,,,,,,,
312,SingleRunTest,Memory,6,,,,,,,sunadfktsqjthoglcsm.jpg,,,,,,,,,,,
313,SingleRunTest,Memory,6,,,,,,,00771941205fa.jpg,,,,,,,,,,,
314,SingleRunTest,Memory,6,,,,,,,00751960620fa.jpg,,,,,,,,,,,
315,SingleRunTest,Memory,6,,,,,,,00804960530fa.jpg,,,,,,,,,,,
316,SingleRunTest,Memory,6,,,,,,,sunaezuszgtxnmsxdbk.jpg,,,,,,,,,,,
317,SingleRunTest,Memory,6,,,,,,,sunarpsxqkduedrrzyi.jpg,,,,,,,,,,,
318,SingleRunTest,Memory,6,,,,,,,sunabxsuqbleluwczoy.jpg,,,,,,,,,,,
319,SingleRunTest,Memory,6,,,,,,,00938960627fa.jpg,,,,,,,,,,,
320,SingleRunTest,Memory,6,,,,,,,sunaobtizabegtwfwul.jpg,,,,,,,,,,,
321,SingleRunTest,Memory,6,,,,,,,00869940307fa.jpg,,,,,,,,,,,
322,SingleRunTest,Memory,6,,,,,,,sunagfvluwixdsozaql.jpg,,,,,,,,,,,
323,SingleRunTest,Memory,6,,,,,,,00943960627fa.jpg,,,,,,,,,,,
324,SingleRunTest,Memory,6,,,,,,,00763941205fa.jpg,,,,,,,,,,,
325,SingleRunTest,Memory,6,,,,,,,00638941031fa.jpg,,,,,,,,,,,
326,SingleRunTest,Memory,6,,,,,,,sunafowswglhxcsufpo.jpg,,,,,,,,,,,
327,SingleRunTest,Memory,6,,,,,,,sunapqkyghktgtosuuk.jpg,,,,,,,,,,,
328,SingleRunTest,Memory,6,,,,,,,00481940519fa.jpg,,,,,,,,,,,
329,SingleRunTest,Memory,6,,,,,,,sunbxarcshsnqsefemx.jpg,,,,,,,,,,,
330,SingleRunTest,Memory,6,,,,,,,sunafhmnhsdurlvddpw.jpg,,,,,,,,,,,
331,SingleRunTest,Memory,6,,,,,,,00080931230fb.jpg,,,,,,,,,,,
332,SingleRunTest,Memory,6,,,,,,,00776941205fa.jpg,,,,,,,,,,,
333,SingleRunTest,Memory,6,,,,,,,sunaafbmtoniaasysgu.jpg,,,,,,,,,,,
334,SingleRunTest,Memory,6,,,,,,,sunaqgjuuwvdcyiccjt.jpg,,,,,,,,,,,
335,SingleRunTest,Memory,6,,,,,,,sunaafjszryxyavjzln.jpg,,,,,,,,,,,
336,SingleRunTest,Memory,6,,,,,,,sunamczizlzavhzhpay.jpg,,,,,,,,,,,
337,SingleRunTest,Memory,6,,,,,,,00782941205fa.jpg,,,,,,,,,,,
338,SingleRunTest,Memory,6,,,,,,,00895960530fa.jpg,,,,,,,,,,,
339,SingleRunTest,Memory,6,,,,,,,sunafxokyavhgptyfye.jpg,,,,,,,,,,,
340,SingleRunTest,Memory,6,,,,,,,00906960530fa.jpg,,,,,,,,,,,
341,SingleRunTest,Memory,6,,,,,,,00115931230fa.jpg,,,,,,,,,,,
342,SingleRunTest,Memory,6,,,,,,,01007960627fa.jpg,,,,,,,,,,,
343,SingleRunTest,Memory,6,,,,,,,00922960627fa.jpg,,,,,,,,,,,
344,SingleRunTest,Memory,6,,,,,,,00073931230fa.jpg,,,,,,,,,,,
345,SingleRunTest,Memory,6,,,,,,,sunajoveqhiprwqgoco.jpg,,,,,,,,,,,
346,SingleRunTest,Memory,6,,,,,,,00936960627fa.jpg,,,,,,,,,,,
347,SingleRunTest,Memory,6,,,,,,,00909960530.jpg,,,,,,,,,,,
348,SingleRunTest,Memory,6,,,,,,,sunaakmxzhuceuiryah.jpg,,,,,,,,,,,
349,SingleRunTest,Memory,6,,,,,,,sunantryfbloeaomfta.jpg,,,,,,,,,,,
350,SingleRunTest,Presentation,7,00799941205fa_sunagutjvdvnhxejerz.jpg,00834940307fa_sunaibnpvhkdpdnzcnz.jpg,00799941205fa.jpg,sunagutjvdvnhxejerz.jpg,00834940307fa.jpg,sunaibnpvhkdpdnzcnz.jpg,,,>,Face,,,,,1,,,
351,SingleRunTest,Presentation,7,00971960627fa_sunbbegcweqnetpdlrh.jpg,00162931230fb_sunaavjinpnkappuonm.jpg,00971960627fa.jpg,sunbbegcweqnetpdlrh.jpg,00162931230fb.jpg,sunaavjinpnkappuonm.jpg,,,>,Face,,,,,1,,,
352,SingleRunTest,Presentation,7,00770941201fa_sunaflojskatpeqyzqp.jpg,00854940307fa_sunaiwduelojtwaqeyh.jpg,00770941201fa.jpg,sunaflojskatpeqyzqp.jpg,00854940307fa.jpg,sunaiwduelojtwaqeyh.jpg,,,>,Face,,,,,1,,,
353,SingleRunTest,Presentation,7,00292940422fb_sunabrjdpmoedcdjbpo.jpg,00787960620fa_sunagoufulkpsxrmklt.jpg,00292940422fb.jpg,sunabrjdpmoedcdjbpo.jpg,00787960620fa.jpg,sunagoufulkpsxrmklt.jpg,,,>,Face,,,,,1,,,
354,SingleRunTest,Presentation,7,00089931230fa_sunaagcpoejbuzyvddd.jpg,00221940128fa_sunabcfpwlpolnutyju.jpg,00089931230fa.jpg,sunaagcpoejbuzyvddd.jpg,00221940128fa.jpg,sunabcfpwlpolnutyju.jpg,,,>,Face,,,,,1,,,
355,SingleRunTest,Presentation,7,00557940519fa_sunachtuarilwyqnvjx.jpg,00796941205fa_sunaguchqqnrtodtezq.jpg,00557940519fa.jpg,sunachtuarilwyqnvjx.jpg,00796941205fa.jpg,sunaguchqqnrtodtezq.jpg,,,>,Face,,,,,1,,,
356,SingleRunTest,Presentation,7,01003960627fb_sunbwdrdvsweerwsdrj.jpg,00096931230fa_sunaaiqiqcggrskoqgy.jpg,01003960627fb.jpg,sunbwdrdvsweerwsdrj.jpg,00096931230fa.jpg,sunaaiqiqcggrskoqgy.jpg,,,>,Face,,,,,1,,,
357,SingleRunTest,Presentation,7,00983960627fa_sunbfyvfqiimvdaxlqn.jpg,00270940422fb_sunabllobxadqcyttej.jpg,00983960627fa.jpg,sunbfyvfqiimvdaxlqn.jpg,00270940422fb.jpg,sunabllobxadqcyttej.jpg,,,>,Face,,,,,1,,,
358,SingleRunTest,Presentation,7,00747941201fa_sunaeutbrtswvsozxyk.jpg,00790941205fa_sunagpjzsbltchlwvou.jpg,00747941201fa.jpg,sunaeutbrtswvsozxyk.jpg,00790941205fa.jpg,sunagpjzsbltchlwvou.jpg,,,>,Face,,,,,1,,,
359,SingleRunTest,Presentation,7,00742941201fa_sunaenwuebvlpdmntju.jpg,00124931230fa_sunaalhlvzmjmitybdn.jpg,00742941201fa.jpg,sunaenwuebvlpdmntju.jpg,00124931230fa.jpg,sunaalhlvzmjmitybdn.jpg,,,>,Face,,,,,1,,,
360,SingleRunTest,Memory,7,,,,,,,00752960620fa.jpg,,,,,,,,,,,
361,SingleRunTest,Memory,7,,,,,,,00306940422fa.jpg,,,,,,,,,,,
362,SingleRunTest,Memory,7,,,,,,,00796941205fa.jpg,,,,,,,,,,,
363,SingleRunTest,Memory,7,,,,,,,00787960620fa.jpg,,,,,,,,,,,
364,SingleRunTest,Memory,7,,,,,,,00971960627fa.jpg,,,,,,,,,,,
365,SingleRunTest,Memory,7,,,,,,,00854940307fa.jpg,,,,,,,,,,,
366,SingleRunTest,Memory,7,,,,,,,00744941201fa.jpg,,,,,,,,,,,
367,SingleRunTest,Memory,7,,,,,,,sunaenwuebvlpdmntju.jpg,,,,,,,,,,,
368,SingleRunTest,Memory,7,,,,,,,sunaagcpoejbuzyvddd.jpg,,,,,,,,,,,
369,SingleRunTest,Memory,7,,,,,,,00957960627fa.jpg,,,,,,,,,,,
370,SingleRunTest,Memory,7,,,,,,,00089931230fa.jpg,,,,,,,,,,,
371,SingleRunTest,Memory,7,,,,,,,sunaeomlfaabhpswasy.jpg,,,,,,,,,,,
372,SingleRunTest,Memory,7,,,,,,,sunaguchqqnrtodtezq.jpg,,,,,,,,,,,
373,SingleRunTest,Memory,7,,,,,,,sunaalhlvzmjmitybdn.jpg,,,,,,,,,,,
374,SingleRunTest,Memory,7,,,,,,,sunadtlxenqqxsyjvix.jpg,,,,,,,,,,,
375,SingleRunTest,Memory,7,,,,,,,00221940128fa.jpg,,,,,,,,,,,
376,SingleRunTest,Memory,7,,,,,,,sunachtuarilwyqnvjx.jpg,,,,,,,,,,,
377,SingleRunTest,Memory,7,,,,,,,00694941121fa.jpg,,,,,,,,,,,
378,SingleRunTest,Memory,7,,,,,,,00129931230fb.jpg,,,,,,,,,,,
379,SingleRunTest,Memory,7,,,,,,,sunaamsdyakblkfoydx.jpg,,,,,,,,,,,
380,SingleRunTest,Memory,7,,,,,,,sunalqmfgeadpqsyzpd.jpg,,,,,,,,,,,
381,SingleRunTest,Memory,7,,,,,,,sunahmhrncocyhsjpxk.jpg,,,,,,,,,,,
382,SingleRunTest,Memory,7,,,,,,,00124931230fa.jpg,,,,,,,,,,,
383,SingleRunTest,Memory,7,,,,,,,sunarfdklgdnjgeqfjg.jpg,,,,,,,,,,,
384,SingleRunTest,Memory,7,,,,,,,00742941201fa.jpg,,,,,,,,,,,
385,SingleRunTest,Memory,7,,,,,,,00894960620fa.jpg,,,,,,,,,,,
386,SingleRunTest,Memory,7,,,,,,,sunabrjdpmoedcdjbpo.jpg,,,,,,,,,,,
387,SingleRunTest,Memory,7,,,,,,,sunadrmfzmstgdjdcod.jpg,,,,,,,,,,,
388,SingleRunTest,Memory,7,,,,,,,00942960627fa.jpg,,,,,,,,,,,
389,SingleRunTest,Memory,7,,,,,,,00705941205fa.jpg,,,,,,,,,,,
390,SingleRunTest,Memory,7,,,,,,,sunavhxgmgrqsaptynb.jpg,,,,,,,,,,,
391,SingleRunTest,Memory,7,,,,,,,00292940422fb.jpg,,,,,,,,,,,
392,SingleRunTest,Memory,7,,,,,,,00557940519fa.jpg,,,,,,,,,,,
393,SingleRunTest,Memory,7,,,,,,,sunagoufulkpsxrmklt.jpg,,,,,,,,,,,
394,SingleRunTest,Memory,7,,,,,,,sunbbegcweqnetpdlrh.jpg,,,,,,,,,,,
395,SingleRunTest,Memory,7,,,,,,,sunabcfpwlpolnutyju.jpg,,,,,,,,,,,
396,SingleRunTest,Memory,7,,,,,,,00816941205fa.jpg,,,,,,,,,,,
397,SingleRunTest,Memory,7,,,,,,,sunaiwduelojtwaqeyh.jpg,,,,,,,,,,,
398,SingleRunTest,Memory,7,,,,,,,sunabueyoajufbkraki.jpg,,,,,,,,,,,
399,SingleRunTest,Memory,7,,,,,,,sunafbwnojpqeyzssoe.jpg,,,,,,,,,,,
