,Subject,Trial Type,Run,Cued Composite,Uncued Composite,Cued Face,Cued Place,Uncued Face,Uncued Place,Memory Image,Category,Cued Side,Cued Category,Attention Response Time (s),Familiarity Reaction Time (s),Familiarity Rating,Attention Level,Cue Validity,Post Invalid Cue,Pre Invalid Cue,Attention Button,Rating History,Stimulus Onset,Stimulus End,Attention Probe
0,19,Presentation,0,00505960627fa_sunabzuqsrgcsonqlkz.jpg,00977960627fa_sunbbxkanhzjgbwyxqs.jpg,,,,,,,>,Place,,,,,1,,,,,,,x
1,19,Presentation,0,00835940307fa_sunaijsqpvodplbwxkf.jpg,00120931230fa_sunaakxgygjfqrzpyoz.jpg,,,,,,,<,Face,,,,,1,,,,,,,o
2,19,Presentation,0,00958960627fa_sunavspxmxubqaeidjt.jpg,00109931230fa_sunaajuzribjrizdshh.jpg,,,,,,,<,Place,,,,,1,,,,,,,x
3,19,Presentation,0,00647941031fa_sunadflbrkckmepztql.jpg,00638941031fa_sunadfktsqjthoglcsm.jpg,,,,,,,<,Face,,,,,1,,,,,,,x
4,19,Presentation,0,00773960620fa_sunafvsxtzaizojicxx.jpg,00061931230fb_sunaaekxzjzrfgtkwjf.jpg,,,,,,,>,Face,,,,,1,,,,,,,x
5,19,Presentation,0,00908960530fa_sunanwjjyqqwzqrqagd.jpg,00126931230fb_sunaamdjwemxpmmtypi.jpg,,,,,,,>,Place,,,,,0,,,,,,,o
6,19,Presentation,0,00811960530fa_sunahedfrhtcwpneund.jpg,00316940422fa_sunabxmguapjekttvwm.jpg,,,,,,,>,Face,,,,,1,,,,,,,x
7,19,Presentation,0,00115931230fa_sunaakmxzhuceuiryah.jpg,00925960627fa_sunapqwnqzxlsfvgsjm.jpg,,,,,,,<,Face,,,,,1,,,,,,,x
8,19,Presentation,0,00108960530fa_sunaajtnvzzpsjdzres.jpg,00957960627fa_sunavhxgmgrqsaptynb.jpg,,,,,,,<,Place,,,,,1,,,,,,,o
9,19,Presentation,0,00859940307fa_sunaiycurtqsfkvcaso.jpg,00868960307fa_sunajjxttslobudoqbv.jpg,,,,,,,>,Place,,,,,1,,,,,,,o
10,19,Memory,0,,,,,,,00812941205fa.jpg,,,,,,,,,,,,,,,
11,19,Memory,0,,,,,,,sunaaekxzjzrfgtkwjf.jpg,,,,,,,,,,,,,,,
12,19,Memory,0,,,,,,,sunakwlvxjpddialozd.jpg,,,,,,,,,,,,,,,
13,19,Memory,0,,,,,,,sunahedfrhtcwpneund.jpg,,,,,,,,,,,,,,,
14,19,Memory,0,,,,,,,sunapqwnqzxlsfvgsjm.jpg,,,,,,,,,,,,,,,
15,19,Memory,0,,,,,,,sunaaeowapdkwzqpgqr.jpg,,,,,,,,,,,,,,,
16,19,Memory,0,,,,,,,00835940307fa.jpg,,,,,,,,,,,,,,,
17,19,Memory,0,,,,,,,00126931230fb.jpg,,,,,,,,,,,,,,,
18,19,Memory,0,,,,,,,sunahgtbwgsmtqeodwh.jpg,,,,,,,,,,,,,,,
19,19,Memory,0,,,,,,,sunbbgtoeuzierkkajt.jpg,,,,,,,,,,,,,,,
20,19,Memory,0,,,,,,,00638941031fa.jpg,,,,,,,,,,,,,,,
21,19,Memory,0,,,,,,,sunaajuzribjrizdshh.jpg,,,,,,,,,,,,,,,
22,19,Memory,0,,,,,,,sunagwzdbtlixdhgolm.jpg,,,,,,,,,,,,,,,
23,19,Memory,0,,,,,,,00109931230fa.jpg,,,,,,,,,,,,,,,
24,19,Memory,0,,,,,,,00811960530fa.jpg,,,,,,,,,,,,,,,
25,19,Memory,0,,,,,,,sunaamdjwemxpmmtypi.jpg,,,,,,,,,,,,,,,
26,19,Memory,0,,,,,,,sunaijsqpvodplbwxkf.jpg,,,,,,,,,,,,,,,
27,19,Memory,0,,,,,,,00245940128fa.jpg,,,,,,,,,,,,,,,
28,19,Memory,0,,,,,,,00836940307fa.jpg,,,,,,,,,,,,,,,
29,19,Memory,0,,,,,,,sunainqelldeebvxtcz.jpg,,,,,,,,,,,,,,,
30,19,Memory,0,,,,,,,00971960627fa.jpg,,,,,,,,,,,,,,,
31,19,Memory,0,,,,,,,sunbbegcweqnetpdlrh.jpg,,,,,,,,,,,,,,,
32,19,Memory,0,,,,,,,sunabjuovqvyfuzvqwt.jpg,,,,,,,,,,,,,,,
33,19,Memory,0,,,,,,,00805941205fa.jpg,,,,,,,,,,,,,,,
34,19,Memory,0,,,,,,,00973960627fa.jpg,,,,,,,,,,,,,,,
35,19,Memory,0,,,,,,,00061931230fb.jpg,,,,,,,,,,,,,,,
36,19,Memory,0,,,,,,,00263940128fb.jpg,,,,,,,,,,,,,,,
37,19,Memory,0,,,,,,,sunaduslxfzlbxlllnz.jpg,,,,,,,,,,,,,,,
38,19,Memory,0,,,,,,,sunanwjjyqqwzqrqagd.jpg,,,,,,,,,,,,,,,
39,19,Memory,0,,,,,,,00958960627fa.jpg,,,,,,,,,,,,,,,
40,19,Memory,0,,,,,,,00885960530fa.jpg,,,,,,,,,,,,,,,
41,19,Memory,0,,,,,,,00647941031fa.jpg,,,,,,,,,,,,,,,
42,19,Memory,0,,,,,,,sunadflbrkckmepztql.jpg,,,,,,,,,,,,,,,
43,19,Memory,0,,,,,,,00925960627fa.jpg,,,,,,,,,,,,,,,
44,19,Memory,0,,,,,,,00705960530fa.jpg,,,,,,,,,,,,,,,
45,19,Memory,0,,,,,,,00069931230fb.jpg,,,,,,,,,,,,,,,
46,19,Memory,0,,,,,,,sunabeyhmxodahoieyk.jpg,,,,,,,,,,,,,,,
47,19,Memory,0,,,,,,,00908960530fa.jpg,,,,,,,,,,,,,,,
48,19,Memory,0,,,,,,,sunavspxmxubqaeidjt.jpg,,,,,,,,,,,,,,,
49,19,Memory,0,,,,,,,sunadfktsqjthoglcsm.jpg,,,,,,,,,,,,,,,
50,19,Presentation,1,00816941205fa_sunahmhrncocyhsjpxk.jpg,00648941031fa_sunadfndyrtqqiasoig.jpg,,,,,,,<,Face,,,,,1,,,,,,,x
51,19,Presentation,1,00562941031fa_sunacjnahdmqfnjfwqx.jpg,00598941031fa_sunacxtcahkymosigud.jpg,,,,,,,>,Place,,,,,1,,,,,,,x
52,19,Presentation,1,00851940307fa_sunaivflshbyfrfzhqb.jpg,00847940307fa_sunaivdjruhkrfywfed.jpg,,,,,,,<,Face,,,,,1,,,,,,,o
53,19,Presentation,1,00775941205fa_sunafvwfsmqkjrutjta.jpg,00571940928fa_sunacuatpqpqhyjhjqk.jpg,,,,,,,>,Face,,,,,1,,,,,,,o
54,19,Presentation,1,00193940928fa_sunaaxjpzcnxligjtjq.jpg,00498960627fa_sunabzjxlmkwnwzimua.jpg,,,,,,,<,Face,,,,,1,,,,,,,o
55,19,Presentation,1,00581940928fa_sunacvzhvcksnwqcqbw.jpg,00952960627fa_sunathzzbcwjykldrem.jpg,,,,,,,<,Place,,,,,1,,,,,,,o
56,19,Presentation,1,00794960620fa_sunagtqhhwxjeuxdebe.jpg,00903960620fa_sunanainkqdvktzoxyl.jpg,,,,,,,>,Place,,,,,1,,,,,,,o
57,19,Presentation,1,01009960627fa_sunbxzweleltykebgan.jpg,00532960627fa_sunaccdtpgenvcbcbcf.jpg,,,,,,,<,Place,,,,,1,,,,,,,x
58,19,Presentation,1,00131931230fb_sunaangbuylfvckqqoo.jpg,00065931230fb_sunaaemixhfquhnxxlm.jpg,,,,,,,>,Place,,,,,1,,,,,,,o
59,19,Presentation,1,00681941121fa_sunadqmjrhfjyuzyvdd.jpg,00900960530fa_sunamlotskmmsjeogby.jpg,,,,,,,>,Face,,,,,1,,,,,,,x
60,19,Memory,1,,,,,,,00532960627fa.jpg,,,,,,,,,,,,,,,
61,19,Memory,1,,,,,,,sunanainkqdvktzoxyl.jpg,,,,,,,,,,,,,,,
62,19,Memory,1,,,,,,,00939960627fa.jpg,,,,,,,,,,,,,,,
63,19,Memory,1,,,,,,,sunaccdtpgenvcbcbcf.jpg,,,,,,,,,,,,,,,
64,19,Memory,1,,,,,,,sunadqmjrhfjyuzyvdd.jpg,,,,,,,,,,,,,,,
65,19,Memory,1,,,,,,,sunauburywlkjszngcq.jpg,,,,,,,,,,,,,,,
66,19,Memory,1,,,,,,,00266940128fb.jpg,,,,,,,,,,,,,,,
67,19,Memory,1,,,,,,,sunagetqixeypsysbpn.jpg,,,,,,,,,,,,,,,
68,19,Memory,1,,,,,,,sunabkngeblodihjvbk.jpg,,,,,,,,,,,,,,,
69,19,Memory,1,,,,,,,sunacjnahdmqfnjfwqx.jpg,,,,,,,,,,,,,,,
70,19,Memory,1,,,,,,,00681941121fa.jpg,,,,,,,,,,,,,,,
71,19,Memory,1,,,,,,,00648941031fa.jpg,,,,,,,,,,,,,,,
72,19,Memory,1,,,,,,,sunaeutbrtswvsozxyk.jpg,,,,,,,,,,,,,,,
73,19,Memory,1,,,,,,,sunasmmcxdddtmtazwx.jpg,,,,,,,,,,,,,,,
74,19,Memory,1,,,,,,,00780960530fa.jpg,,,,,,,,,,,,,,,
75,19,Memory,1,,,,,,,00747941201fa.jpg,,,,,,,,,,,,,,,
76,19,Memory,1,,,,,,,00955960627fb.jpg,,,,,,,,,,,,,,,
77,19,Memory,1,,,,,,,sunacuatpqpqhyjhjqk.jpg,,,,,,,,,,,,,,,
78,19,Memory,1,,,,,,,00562941031fa.jpg,,,,,,,,,,,,,,,
79,19,Memory,1,,,,,,,sunaivflshbyfrfzhqb.jpg,,,,,,,,,,,,,,,
80,19,Memory,1,,,,,,,sunacxtcahkymosigud.jpg,,,,,,,,,,,,,,,
81,19,Memory,1,,,,,,,sunaaxjpzcnxligjtjq.jpg,,,,,,,,,,,,,,,
82,19,Memory,1,,,,,,,sunarceibpcyacbmfga.jpg,,,,,,,,,,,,,,,
83,19,Memory,1,,,,,,,sunadfndyrtqqiasoig.jpg,,,,,,,,,,,,,,,
84,19,Memory,1,,,,,,,00479940519fa.jpg,,,,,,,,,,,,,,,
85,19,Memory,1,,,,,,,00598941031fa.jpg,,,,,,,,,,,,,,,
86,19,Memory,1,,,,,,,00071940128fa.jpg,,,,,,,,,,,,,,,
87,19,Memory,1,,,,,,,00947960627fa.jpg,,,,,,,,,,,,,,,
88,19,Memory,1,,,,,,,sunajxpkuhbizeveguy.jpg,,,,,,,,,,,,,,,
89,19,Memory,1,,,,,,,00571940928fa.jpg,,,,,,,,,,,,,,,
90,19,Memory,1,,,,,,,sunaaexpnawiehinlpy.jpg,,,,,,,,,,,,,,,
91,19,Memory,1,,,,,,,00903960620fa.jpg,,,,,,,,,,,,,,,
92,19,Memory,1,,,,,,,sunagtqhhwxjeuxdebe.jpg,,,,,,,,,,,,,,,
93,19,Memory,1,,,,,,,00828940307fa.jpg,,,,,,,,,,,,,,,
94,19,Memory,1,,,,,,,00851940307fa.jpg,,,,,,,,,,,,,,,
95,19,Memory,1,,,,,,,00877960530fa.jpg,,,,,,,,,,,,,,,
96,19,Memory,1,,,,,,,sunahuynahneraqftyz.jpg,,,,,,,,,,,,,,,
97,19,Memory,1,,,,,,,00794960620fa.jpg,,,,,,,,,,,,,,,
98,19,Memory,1,,,,,,,00193940928fa.jpg,,,,,,,,,,,,,,,
99,19,Memory,1,,,,,,,sunabxsbfwjccqxxzxq.jpg,,,,,,,,,,,,,,,
100,19,Presentation,2,00741941201fa_sunaemcowdozyphwknd.jpg,00742941201fa_sunaenwuebvlpdmntju.jpg,,,,,,,<,Place,,,,,1,,,,,,,o
101,19,Presentation,2,00866940307fa_sunajbwkywmsqkldfml.jpg,00800941205fb_sunagvjurcwdbixvnyi.jpg,,,,,,,>,Face,,,,,1,,,,,,,x
102,19,Presentation,2,01003960627fb_sunbwdrdvsweerwsdrj.jpg,00133931230fa_sunaanlwnpqndclffxt.jpg,,,,,,,<,Place,,,,,1,,,,,,,o
103,19,Presentation,2,00557940519fa_sunachtuarilwyqnvjx.jpg,01010960627fa_suncnkvbhypnivcohyx.jpg,,,,,,,>,Place,,,,,1,,,,,,,x
104,19,Presentation,2,00218940128fa_sunabbwggenhfbftyvi.jpg,00127931230fa_sunaampvucecsfbdafn.jpg,,,,,,,>,Face,,,,,1,,,,,,,o
105,19,Presentation,2,00787941205fa_sunagmwxxwymwojbvgi.jpg,00720960620fa_sunaecpkgfewqqreqwe.jpg,,,,,,,<,Face,,,,,0,,,,,,,o
106,19,Presentation,2,00314940422fa_sunabwmcbaxwioksdgw.jpg,00906960530fa_sunantryfbloeaomfta.jpg,,,,,,,<,Place,,,,,1,,,,,,,x
107,19,Presentation,2,00080931230fb_sunaafjszryxyavjzln.jpg,00559940519fa_sunacjkmnpawfzbyvae.jpg,,,,,,,<,Face,,,,,1,,,,,,,o
108,19,Presentation,2,00953960627fa_sunatstrpjxhvtbaczf.jpg,00130931230fa_sunaamvxnvouicstkjb.jpg,,,,,,,>,Face,,,,,0,,,,,,,o
109,19,Presentation,2,00761960627fa_sunafgdqbclkwfocdhg.jpg,00784941205fb_sunagjzcrjvmxzqzljx.jpg,,,,,,,>,Place,,,,,1,,,,,,,x
110,19,Memory,2,,,,,,,00662941121fa.jpg,,,,,,,,,,,,,,,
111,19,Memory,2,,,,,,,sunadsgmtznewzyasnk.jpg,,,,,,,,,,,,,,,
112,19,Memory,2,,,,,,,00754941201fa.jpg,,,,,,,,,,,,,,,
113,19,Memory,2,,,,,,,sunaecpkgfewqqreqwe.jpg,,,,,,,,,,,,,,,
114,19,Memory,2,,,,,,,sunaanlwnpqndclffxt.jpg,,,,,,,,,,,,,,,
115,19,Memory,2,,,,,,,00314940422fa.jpg,,,,,,,,,,,,,,,
116,19,Memory,2,,,,,,,01011960627fa.jpg,,,,,,,,,,,,,,,
117,19,Memory,2,,,,,,,sunaampvucecsfbdafn.jpg,,,,,,,,,,,,,,,
118,19,Memory,2,,,,,,,00700941121fa.jpg,,,,,,,,,,,,,,,
119,19,Memory,2,,,,,,,sunabwmcbaxwioksdgw.jpg,,,,,,,,,,,,,,,
120,19,Memory,2,,,,,,,00133931230fa.jpg,,,,,,,,,,,,,,,
121,19,Memory,2,,,,,,,01003960627fb.jpg,,,,,,,,,,,,,,,
122,19,Memory,2,,,,,,,sunbwdrdvsweerwsdrj.jpg,,,,,,,,,,,,,,,
123,19,Memory,2,,,,,,,00720960620fa.jpg,,,,,,,,,,,,,,,
124,19,Memory,2,,,,,,,00127931230fa.jpg,,,,,,,,,,,,,,,
125,19,Memory,2,,,,,,,sunachtuarilwyqnvjx.jpg,,,,,,,,,,,,,,,
126,19,Memory,2,,,,,,,00080931230fb.jpg,,,,,,,,,,,,,,,
127,19,Memory,2,,,,,,,00557940519fa.jpg,,,,,,,,,,,,,,,
128,19,Memory,2,,,,,,,sunbasypfgzjtomktmu.jpg,,,,,,,,,,,,,,,
129,19,Memory,2,,,,,,,00953960627fa.jpg,,,,,,,,,,,,,,,
130,19,Memory,2,,,,,,,sunaazzyhbvqjpmazjq.jpg,,,,,,,,,,,,,,,
131,19,Memory,2,,,,,,,sundahdxwmcdluscvot.jpg,,,,,,,,,,,,,,,
132,19,Memory,2,,,,,,,suncnkvbhypnivcohyx.jpg,,,,,,,,,,,,,,,
133,19,Memory,2,,,,,,,sunatstrpjxhvtbaczf.jpg,,,,,,,,,,,,,,,
134,19,Memory,2,,,,,,,00705941205fa.jpg,,,,,,,,,,,,,,,
135,19,Memory,2,,,,,,,01010960627fa.jpg,,,,,,,,,,,,,,,
136,19,Memory,2,,,,,,,00818940307fa.jpg,,,,,,,,,,,,,,,
137,19,Memory,2,,,,,,,sunahpblecxtmuzkmxb.jpg,,,,,,,,,,,,,,,
138,19,Memory,2,,,,,,,00800941205fb.jpg,,,,,,,,,,,,,,,
139,19,Memory,2,,,,,,,sunaffgsyyvoqdlkmnk.jpg,,,,,,,,,,,,,,,
140,19,Memory,2,,,,,,,00288940422fa.jpg,,,,,,,,,,,,,,,
141,19,Memory,2,,,,,,,sunbddbivbptlrlauhy.jpg,,,,,,,,,,,,,,,
142,19,Memory,2,,,,,,,sunagvjurcwdbixvnyi.jpg,,,,,,,,,,,,,,,
143,19,Memory,2,,,,,,,sunadkazmlajmohnwfl.jpg,,,,,,,,,,,,,,,
144,19,Memory,2,,,,,,,sunaafjszryxyavjzln.jpg,,,,,,,,,,,,,,,
145,19,Memory,2,,,,,,,sunabppokiyglaxpcha.jpg,,,,,,,,,,,,,,,
146,19,Memory,2,,,,,,,sunadtlxenqqxsyjvix.jpg,,,,,,,,,,,,,,,
147,19,Memory,2,,,,,,,00208940128fa.jpg,,,,,,,,,,,,,,,
148,19,Memory,2,,,,,,,00970960627fa.jpg,,,,,,,,,,,,,,,
149,19,Memory,2,,,,,,,00978960627fa.jpg,,,,,,,,,,,,,,,
150,19,Presentation,3,00878960530fa_sunakgbnzxmfohgehnu.jpg,00144931230fb_sunaathajvxrgptwhoj.jpg,,,,,,,<,Place,,,,,1,,,,,,,x
151,19,Presentation,3,00988960627fa_sunbmaiocftdtvnzgap.jpg,00792941205fa_sunagsiwrmuixqgdimb.jpg,,,,,,,<,Face,,,,,1,,,,,,,x
152,19,Presentation,3,01007960627fa_sunbxarcshsnqsefemx.jpg,00663941121fa_sunadnjjzohjhbohlwq.jpg,,,,,,,<,Place,,,,,1,,,,,,,o
153,19,Presentation,3,00770941201fa_sunaflojskatpeqyzqp.jpg,00060931230fa_sunaaehaikpckyjsety.jpg,,,,,,,<,Face,,,,,1,,,,,,,o
154,19,Presentation,3,00194940128fb_sunaayehfdqcyxggsej.jpg,00848940307fa_sunaivdylrawbmhryfp.jpg,,,,,,,>,Place,,,,,1,,,,,,,x
155,19,Presentation,3,00214940128fa_sunabbafjowbzcvbucc.jpg,00568940928fa_sunacsdhbbsybcyxnel.jpg,,,,,,,>,Face,,,,,0,,,,,,,x
156,19,Presentation,3,00862940307fa_sunaizgnnplsvajzhkc.jpg,00746941201fa_sunaetydippjxikifsb.jpg,,,,,,,<,Place,,,,,1,,,,,,,o
157,19,Presentation,3,00082931230fa_sunaafvitpexrpvumsa.jpg,00985960627fa_sunbgklxeqjhdbyfhhy.jpg,,,,,,,>,Face,,,,,1,,,,,,,o
158,19,Presentation,3,00911960530fa_sunaooaqzputrowwbsw.jpg,00598940928fa_sunacxeheuiigkcgquf.jpg,,,,,,,>,Place,,,,,1,,,,,,,x
159,19,Presentation,3,00783941205fa_sunagjeesomrwjsfqie.jpg,00905960530fa_sunanmoqeyprjjjfxjt.jpg,,,,,,,>,Face,,,,,1,,,,,,,o
160,19,Memory,3,,,,,,,sunbxarcshsnqsefemx.jpg,,,,,,,,,,,,,,,
161,19,Memory,3,,,,,,,00914960620fa.jpg,,,,,,,,,,,,,,,
162,19,Memory,3,,,,,,,00848940307fa.jpg,,,,,,,,,,,,,,,
163,19,Memory,3,,,,,,,sunaafvitpexrpvumsa.jpg,,,,,,,,,,,,,,,
164,19,Memory,3,,,,,,,sunaayehfdqcyxggsej.jpg,,,,,,,,,,,,,,,
165,19,Memory,3,,,,,,,01007960627fa.jpg,,,,,,,,,,,,,,,
166,19,Memory,3,,,,,,,sunaefgzwiramypjvtd.jpg,,,,,,,,,,,,,,,
167,19,Memory,3,,,,,,,sunaiwduelojtwaqeyh.jpg,,,,,,,,,,,,,,,
168,19,Memory,3,,,,,,,00795941205fa.jpg,,,,,,,,,,,,,,,
169,19,Memory,3,,,,,,,00887960530.jpg,,,,,,,,,,,,,,,
170,19,Memory,3,,,,,,,00144931230fb.jpg,,,,,,,,,,,,,,,
171,19,Memory,3,,,,,,,sunaathajvxrgptwhoj.jpg,,,,,,,,,,,,,,,
172,19,Memory,3,,,,,,,sunaaelyvurpntclgau.jpg,,,,,,,,,,,,,,,
173,19,Memory,3,,,,,,,sunagtumacdlmciqamz.jpg,,,,,,,,,,,,,,,
174,19,Memory,3,,,,,,,sunbdycacjfaujxitbw.jpg,,,,,,,,,,,,,,,
175,19,Memory,3,,,,,,,sunalcrtwiycqobgelp.jpg,,,,,,,,,,,,,,,
176,19,Memory,3,,,,,,,00214940128fa.jpg,,,,,,,,,,,,,,,
177,19,Memory,3,,,,,,,sunaglqunwuycxydmyu.jpg,,,,,,,,,,,,,,,
178,19,Memory,3,,,,,,,sunabasphceswhwwqvv.jpg,,,,,,,,,,,,,,,
179,19,Memory,3,,,,,,,sunabbafjowbzcvbucc.jpg,,,,,,,,,,,,,,,
180,19,Memory,3,,,,,,,00772941201fa.jpg,,,,,,,,,,,,,,,
181,19,Memory,3,,,,,,,00063931230fa.jpg,,,,,,,,,,,,,,,
182,19,Memory,3,,,,,,,00060931230fa.jpg,,,,,,,,,,,,,,,
183,19,Memory,3,,,,,,,00985960627fa.jpg,,,,,,,,,,,,,,,
184,19,Memory,3,,,,,,,00211940128fa.jpg,,,,,,,,,,,,,,,
185,19,Memory,3,,,,,,,sunaaehaikpckyjsety.jpg,,,,,,,,,,,,,,,
186,19,Memory,3,,,,,,,sunaivdylrawbmhryfp.jpg,,,,,,,,,,,,,,,
187,19,Memory,3,,,,,,,sunbgklxeqjhdbyfhhy.jpg,,,,,,,,,,,,,,,
188,19,Memory,3,,,,,,,sunacxeheuiigkcgquf.jpg,,,,,,,,,,,,,,,
189,19,Memory,3,,,,,,,00854940307fa.jpg,,,,,,,,,,,,,,,
190,19,Memory,3,,,,,,,sunaozisvwfbmlkfhzv.jpg,,,,,,,,,,,,,,,
191,19,Memory,3,,,,,,,00785941205fa.jpg,,,,,,,,,,,,,,,
192,19,Memory,3,,,,,,,00770941201fa.jpg,,,,,,,,,,,,,,,
193,19,Memory,3,,,,,,,00082931230fa.jpg,,,,,,,,,,,,,,,
194,19,Memory,3,,,,,,,sunafpfpiiujzoesnqg.jpg,,,,,,,,,,,,,,,
195,19,Memory,3,,,,,,,00725941201fa.jpg,,,,,,,,,,,,,,,
196,19,Memory,3,,,,,,,00598940928fa.jpg,,,,,,,,,,,,,,,
197,19,Memory,3,,,,,,,00979960627fa.jpg,,,,,,,,,,,,,,,
198,19,Memory,3,,,,,,,sunaflojskatpeqyzqp.jpg,,,,,,,,,,,,,,,
199,19,Memory,3,,,,,,,00194940128fb.jpg,,,,,,,,,,,,,,,
200,19,Presentation,4,01004960627fa_sunbwtlihsuptkrckid.jpg,00096931230fa_sunaaiqiqcggrskoqgy.jpg,,,,,,,>,Place,,,,,1,,,,,,,x
201,19,Presentation,4,00635941031fa_sunaddsaeicthrfbkhe.jpg,00097931230fa_sunaajayojuslbbnneg.jpg,,,,,,,<,Face,,,,,1,,,,,,,o
202,19,Presentation,4,00768941205fa_sunafkmnlytenlsywia.jpg,00140931230fb_sunaapllqyqlykszopd.jpg,,,,,,,>,Place,,,,,1,,,,,,,x
203,19,Presentation,4,00574940928fa_sunacvbrcejzwmcgnoq.jpg,01005960627fa_sunbwyuesflwdpqtgoy.jpg,,,,,,,<,Place,,,,,1,,,,,,,x
204,19,Presentation,4,00101931230fb_sunaajqmsaavkmgbsth.jpg,00799941205fa_sunagutjvdvnhxejerz.jpg,,,,,,,>,Face,,,,,1,,,,,,,x
205,19,Presentation,4,00902960530fa_sunanaacmmosxrfwmvl.jpg,00631940928fa_sunadbdqzigzwipuipr.jpg,,,,,,,<,Face,,,,,1,,,,,,,x
206,19,Presentation,4,00620940928fa_sunacypmnujalygkunp.jpg,00993960627fa_sunbprywzqxjcezkbch.jpg,,,,,,,>,Face,,,,,1,,,,,,,o
207,19,Presentation,4,00086931230fa_sunaafynehyrzpsoaml.jpg,00766960620fa_sunafijbgncijwykrnl.jpg,,,,,,,<,Face,,,,,1,,,,,,,x
208,19,Presentation,4,00609940928fa_sunacycdoztxoluxjyk.jpg,00306940422fa_sunabueyoajufbkraki.jpg,,,,,,,<,Place,,,,,1,,,,,,,x
209,19,Presentation,4,00960960627fa_sunawksfbacycuhbrsc.jpg,00744941201fa_sunaeomlfaabhpswasy.jpg,,,,,,,>,Place,,,,,1,,,,,,,o
210,19,Memory,4,,,,,,,sunadbdqzigzwipuipr.jpg,,,,,,,,,,,,,,,
211,19,Memory,4,,,,,,,00993960627fa.jpg,,,,,,,,,,,,,,,
212,19,Memory,4,,,,,,,00620940928fa.jpg,,,,,,,,,,,,,,,
213,19,Memory,4,,,,,,,00086931230fa.jpg,,,,,,,,,,,,,,,
214,19,Memory,4,,,,,,,00965960627fa.jpg,,,,,,,,,,,,,,,
215,19,Memory,4,,,,,,,sunbprywzqxjcezkbch.jpg,,,,,,,,,,,,,,,
216,19,Memory,4,,,,,,,00909960530.jpg,,,,,,,,,,,,,,,
217,19,Memory,4,,,,,,,00163931230fb.jpg,,,,,,,,,,,,,,,
218,19,Memory,4,,,,,,,00744941201fa.jpg,,,,,,,,,,,,,,,
219,19,Memory,4,,,,,,,sunaydywdmvlfddbxbk.jpg,,,,,,,,,,,,,,,
220,19,Memory,4,,,,,,,sunaddsaeicthrfbkhe.jpg,,,,,,,,,,,,,,,
221,19,Memory,4,,,,,,,sunafkmnlytenlsywia.jpg,,,,,,,,,,,,,,,
222,19,Memory,4,,,,,,,sunacypmnujalygkunp.jpg,,,,,,,,,,,,,,,
223,19,Memory,4,,,,,,,sunaafynehyrzpsoaml.jpg,,,,,,,,,,,,,,,
224,19,Memory,4,,,,,,,00209940128fb.jpg,,,,,,,,,,,,,,,
225,19,Memory,4,,,,,,,sunacvbrcejzwmcgnoq.jpg,,,,,,,,,,,,,,,
226,19,Memory,4,,,,,,,sunacvjlsylseoghjup.jpg,,,,,,,,,,,,,,,
227,19,Memory,4,,,,,,,sunagmhildamktmqjss.jpg,,,,,,,,,,,,,,,
228,19,Memory,4,,,,,,,00799941205fa.jpg,,,,,,,,,,,,,,,
229,19,Memory,4,,,,,,,sunagutjvdvnhxejerz.jpg,,,,,,,,,,,,,,,
230,19,Memory,4,,,,,,,sunabaergayifsgacxt.jpg,,,,,,,,,,,,,,,
231,19,Memory,4,,,,,,,00097931230fa.jpg,,,,,,,,,,,,,,,
232,19,Memory,4,,,,,,,00576941031fa.jpg,,,,,,,,,,,,,,,
233,19,Memory,4,,,,,,,sunaajayojuslbbnneg.jpg,,,,,,,,,,,,,,,
234,19,Memory,4,,,,,,,00142931230fb.jpg,,,,,,,,,,,,,,,
235,19,Memory,4,,,,,,,00893960530Fa.jpg,,,,,,,,,,,,,,,
236,19,Memory,4,,,,,,,00768941205fa.jpg,,,,,,,,,,,,,,,
237,19,Memory,4,,,,,,,00786941205fa.jpg,,,,,,,,,,,,,,,
238,19,Memory,4,,,,,,,sunaloffvbvysigxent.jpg,,,,,,,,,,,,,,,
239,19,Memory,4,,,,,,,00630940928fa.jpg,,,,,,,,,,,,,,,
240,19,Memory,4,,,,,,,sunagcinxkccdtrjmlv.jpg,,,,,,,,,,,,,,,
241,19,Memory,4,,,,,,,00635941031fa.jpg,,,,,,,,,,,,,,,
242,19,Memory,4,,,,,,,sunaczwgyukesaajxnx.jpg,,,,,,,,,,,,,,,
243,19,Memory,4,,,,,,,00574940928fa.jpg,,,,,,,,,,,,,,,
244,19,Memory,4,,,,,,,sunaobtizabegtwfwul.jpg,,,,,,,,,,,,,,,
245,19,Memory,4,,,,,,,sunaeomlfaabhpswasy.jpg,,,,,,,,,,,,,,,
246,19,Memory,4,,,,,,,sunaapxkpvrhpjplsok.jpg,,,,,,,,,,,,,,,
247,19,Memory,4,,,,,,,00631940928fa.jpg,,,,,,,,,,,,,,,
248,19,Memory,4,,,,,,,sunaavodbcpygkggnfp.jpg,,,,,,,,,,,,,,,
249,19,Memory,4,,,,,,,00777941205fa.jpg,,,,,,,,,,,,,,,
250,19,Presentation,5,00540940519fa_sunacdnquypmsshhsbk.jpg,00760960620fa_sunaffstbkappprzxnv.jpg,,,,,,,<,Place,,,,,1,,,,,,,o
251,19,Presentation,5,00796941205fa_sunaguchqqnrtodtezq.jpg,00675941121fa_sunadoxcchtmsxewsau.jpg,,,,,,,>,Face,,,,,1,,,,,,,o
252,19,Presentation,5,00860940307fa_sunaizeyhvjzknwjudw.jpg,00950960627fa_sunasrjlmglmjzbmqxb.jpg,,,,,,,<,Face,,,,,1,,,,,,,o
253,19,Presentation,5,00146960620fb_sunaatpeezlljqaxlhj.jpg,00294940422fb_sunabrlndkruqokhury.jpg,,,,,,,<,Place,,,,,1,,,,,,,x
254,19,Presentation,5,00827940307fa_sunahtfxgsrmkiulnwk.jpg,00989960627fa_sunbondbduabvijnmch.jpg,,,,,,,<,Face,,,,,0,,,,,,,x
255,19,Presentation,5,00198940128fb_sunaazezcsunmhttzxz.jpg,00102931230fa_sunaajspcoepticvplv.jpg,,,,,,,>,Place,,,,,1,,,,,,,o
256,19,Presentation,5,00276940422fa_sunabmytpyhsgigllxu.jpg,00197940128fa_sunaaylzyqlqrsmfwif.jpg,,,,,,,>,Face,,,,,1,,,,,,,o
257,19,Presentation,5,00730960620fa_sunaekgzpfilgjxpeyq.jpg,00554940519fa_sunacfdkbsrughwqwtt.jpg,,,,,,,>,Place,,,,,1,,,,,,,o
258,19,Presentation,5,00976960627fa_sunbbhqyyzmsxhsbjmp.jpg,00963960627fa_sunayaepykrqvenaqqy.jpg,,,,,,,<,Place,,,,,0,,,,,,,o
259,19,Presentation,5,00901960530fa_sunammbnoambmhdxdwd.jpg,00933960627fa_sunapwjkcxdaeqehfql.jpg,,,,,,,>,Face,,,,,1,,,,,,,o
260,19,Memory,5,,,,,,,sunaekgzpfilgjxpeyq.jpg,,,,,,,,,,,,,,,
261,19,Memory,5,,,,,,,sunayaepykrqvenaqqy.jpg,,,,,,,,,,,,,,,
262,19,Memory,5,,,,,,,sunadakkdovnuzlycvp.jpg,,,,,,,,,,,,,,,
263,19,Memory,5,,,,,,,sunbbhqyyzmsxhsbjmp.jpg,,,,,,,,,,,,,,,
264,19,Memory,5,,,,,,,00942960627fa.jpg,,,,,,,,,,,,,,,
265,19,Memory,5,,,,,,,00825940307fa.jpg,,,,,,,,,,,,,,,
266,19,Memory,5,,,,,,,00773941201fa.jpg,,,,,,,,,,,,,,,
267,19,Memory,5,,,,,,,sunahrltmuwbiehihpe.jpg,,,,,,,,,,,,,,,
268,19,Memory,5,,,,,,,sunasrjlmglmjzbmqxb.jpg,,,,,,,,,,,,,,,
269,19,Memory,5,,,,,,,00630941031fa.jpg,,,,,,,,,,,,,,,
270,19,Memory,5,,,,,,,sunajwqkfsykceonyig.jpg,,,,,,,,,,,,,,,
271,19,Memory,5,,,,,,,00102931230fa.jpg,,,,,,,,,,,,,,,
272,19,Memory,5,,,,,,,00876960620fa.jpg,,,,,,,,,,,,,,,
273,19,Memory,5,,,,,,,00111931230fb.jpg,,,,,,,,,,,,,,,
274,19,Memory,5,,,,,,,00276940422fa.jpg,,,,,,,,,,,,,,,
275,19,Memory,5,,,,,,,00950960627fa.jpg,,,,,,,,,,,,,,,
276,19,Memory,5,,,,,,,00841940307fa.jpg,,,,,,,,,,,,,,,
277,19,Memory,5,,,,,,,00976960627fa.jpg,,,,,,,,,,,,,,,
278,19,Memory,5,,,,,,,sunaguchqqnrtodtezq.jpg,,,,,,,,,,,,,,,
279,19,Memory,5,,,,,,,00963960627fa.jpg,,,,,,,,,,,,,,,
280,19,Memory,5,,,,,,,sunaakjaacuzulqckgl.jpg,,,,,,,,,,,,,,,
281,19,Memory,5,,,,,,,sunarfdklgdnjgeqfjg.jpg,,,,,,,,,,,,,,,
282,19,Memory,5,,,,,,,00989960627fa.jpg,,,,,,,,,,,,,,,
283,19,Memory,5,,,,,,,sunaizeyhvjzknwjudw.jpg,,,,,,,,,,,,,,,
284,19,Memory,5,,,,,,,sunakodkcslgqhqlgwl.jpg,,,,,,,,,,,,,,,
285,19,Memory,5,,,,,,,00796941205fa.jpg,,,,,,,,,,,,,,,
286,19,Memory,5,,,,,,,sunaisiwfgppimtnmxl.jpg,,,,,,,,,,,,,,,
287,19,Memory,5,,,,,,,00884960530fa.jpg,,,,,,,,,,,,,,,
288,19,Memory,5,,,,,,,sunaajspcoepticvplv.jpg,,,,,,,,,,,,,,,
289,19,Memory,5,,,,,,,sunaakgekhjklxmvulj.jpg,,,,,,,,,,,,,,,
290,19,Memory,5,,,,,,,sunafvcflzhlqloapyo.jpg,,,,,,,,,,,,,,,
291,19,Memory,5,,,,,,,00730960620fa.jpg,,,,,,,,,,,,,,,
292,19,Memory,5,,,,,,,sunabmytpyhsgigllxu.jpg,,,,,,,,,,,,,,,
293,19,Memory,5,,,,,,,00132931230fb.jpg,,,,,,,,,,,,,,,
294,19,Memory,5,,,,,,,00860940307fa.jpg,,,,,,,,,,,,,,,
295,19,Memory,5,,,,,,,sunaaylzyqlqrsmfwif.jpg,,,,,,,,,,,,,,,
296,19,Memory,5,,,,,,,00197940128fa.jpg,,,,,,,,,,,,,,,
297,19,Memory,5,,,,,,,00112931230fa.jpg,,,,,,,,,,,,,,,
298,19,Memory,5,,,,,,,sunaanjcbzdvtvblsdy.jpg,,,,,,,,,,,,,,,
299,19,Memory,5,,,,,,,sunbondbduabvijnmch.jpg,,,,,,,,,,,,,,,
300,19,Presentation,6,00750941201fa_sunaeuzwggvibufclwf.jpg,00929960627fa_sunaprnrbmgkomdbchr.jpg,,,,,,,<,Place,,,,,1,,,,,,,x
301,19,Presentation,6,00634940928fa_sunadcphrizvfpljiqt.jpg,00926960627Fa_sunapqwoeotxshkukbh.jpg,,,,,,,>,Face,,,,,1,,,,,,,o
302,19,Presentation,6,00751960620fa_sunaezuszgtxnmsxdbk.jpg,00116931230fa_sunaakqepfoeqomfgxf.jpg,,,,,,,<,Place,,,,,1,,,,,,,x
303,19,Presentation,6,00922960627fa_sunapqkyghktgtosuuk.jpg,00822940307fa_sunahqrxievfeusiqlt.jpg,,,,,,,<,Face,,,,,1,,,,,,,x
304,19,Presentation,6,00803941205fa_sunagvxkjokqimstxpe.jpg,00880960530fa_sunakmnfgklupjijsgf.jpg,,,,,,,>,Place,,,,,1,,,,,,,o
305,19,Presentation,6,00990960627fa_sunbpflsdaxnddnwcqi.jpg,00935960627fa_sunaqbmgkgqucajzrkp.jpg,,,,,,,>,Face,,,,,1,,,,,,,o
306,19,Presentation,6,01002960627fb_sunbwaafjdebjzttuvq.jpg,00745941205fa_sunaeouogqolxvggaoq.jpg,,,,,,,<,Place,,,,,1,,,,,,,o
307,19,Presentation,6,00564941031fa_sunacsaovnjezqwbykf.jpg,00944960627fa_sunasbbntuiheekqyaq.jpg,,,,,,,<,Face,,,,,1,,,,,,,x
308,19,Presentation,6,00870940307fa_sunajrgtewnualfcerj.jpg,00235940128fb_sunabclssnoeuigtawp.jpg,,,,,,,>,Face,,,,,1,,,,,,,x
309,19,Presentation,6,00227940128fa_sunabckqabszusgcykj.jpg,00869940307fa_sunajoveqhiprwqgoco.jpg,,,,,,,>,Place,,,,,1,,,,,,,x
310,19,Memory,6,,,,,,,00929960627fa.jpg,,,,,,,,,,,,,,,
311,19,Memory,6,,,,,,,00745941205fa.jpg,,,,,,,,,,,,,,,
312,19,Memory,6,,,,,,,00774941201fa.jpg,,,,,,,,,,,,,,,
313,19,Memory,6,,,,,,,00822940307fa.jpg,,,,,,,,,,,,,,,
314,19,Memory,6,,,,,,,00750941201fa.jpg,,,,,,,,,,,,,,,
315,19,Memory,6,,,,,,,sunbfyvfqiimvdaxlqn.jpg,,,,,,,,,,,,,,,
316,19,Memory,6,,,,,,,sunabckqabszusgcykj.jpg,,,,,,,,,,,,,,,
317,19,Memory,6,,,,,,,sunagoufulkpsxrmklt.jpg,,,,,,,,,,,,,,,
318,19,Memory,6,,,,,,,00210940128fb.jpg,,,,,,,,,,,,,,,
319,19,Memory,6,,,,,,,sunahqrxievfeusiqlt.jpg,,,,,,,,,,,,,,,
320,19,Memory,6,,,,,,,00548940519fa.jpg,,,,,,,,,,,,,,,
321,19,Memory,6,,,,,,,sunapqkyghktgtosuuk.jpg,,,,,,,,,,,,,,,
322,19,Memory,6,,,,,,,sunaaelotvjgibjtjhs.jpg,,,,,,,,,,,,,,,
323,19,Memory,6,,,,,,,00292940422fb.jpg,,,,,,,,,,,,,,,
324,19,Memory,6,,,,,,,00787960620fa.jpg,,,,,,,,,,,,,,,
325,19,Memory,6,,,,,,,sunapqwoeotxshkukbh.jpg,,,,,,,,,,,,,,,
326,19,Memory,6,,,,,,,sunaeuzwggvibufclwf.jpg,,,,,,,,,,,,,,,
327,19,Memory,6,,,,,,,00227940128fa.jpg,,,,,,,,,,,,,,,
328,19,Memory,6,,,,,,,00062931230fb.jpg,,,,,,,,,,,,,,,
329,19,Memory,6,,,,,,,sunbwaafjdebjzttuvq.jpg,,,,,,,,,,,,,,,
330,19,Memory,6,,,,,,,00926960627Fa.jpg,,,,,,,,,,,,,,,
331,19,Memory,6,,,,,,,01002960627fb.jpg,,,,,,,,,,,,,,,
332,19,Memory,6,,,,,,,sunabanoxjtqxamkucc.jpg,,,,,,,,,,,,,,,
333,19,Memory,6,,,,,,,sunaprnrbmgkomdbchr.jpg,,,,,,,,,,,,,,,
334,19,Memory,6,,,,,,,sunacerqowiaeoqkmsq.jpg,,,,,,,,,,,,,,,
335,19,Memory,6,,,,,,,00869940307fa.jpg,,,,,,,,,,,,,,,
336,19,Memory,6,,,,,,,sunafvtpfczkzopbgue.jpg,,,,,,,,,,,,,,,
337,19,Memory,6,,,,,,,sunadcphrizvfpljiqt.jpg,,,,,,,,,,,,,,,
338,19,Memory,6,,,,,,,00793941205fa.jpg,,,,,,,,,,,,,,,
339,19,Memory,6,,,,,,,sunajoveqhiprwqgoco.jpg,,,,,,,,,,,,,,,
340,19,Memory,6,,,,,,,sunagtjwilqjvxohypn.jpg,,,,,,,,,,,,,,,
341,19,Memory,6,,,,,,,00634940928fa.jpg,,,,,,,,,,,,,,,
342,19,Memory,6,,,,,,,sunafowswglhxcsufpo.jpg,,,,,,,,,,,,,,,
343,19,Memory,6,,,,,,,00771941205fa.jpg,,,,,,,,,,,,,,,
344,19,Memory,6,,,,,,,00922960627fa.jpg,,,,,,,,,,,,,,,
345,19,Memory,6,,,,,,,sunaptrqvaooxfvktvw.jpg,,,,,,,,,,,,,,,
346,19,Memory,6,,,,,,,sunabrjdpmoedcdjbpo.jpg,,,,,,,,,,,,,,,
347,19,Memory,6,,,,,,,sunaeouogqolxvggaoq.jpg,,,,,,,,,,,,,,,
348,19,Memory,6,,,,,,,00931960627fa.jpg,,,,,,,,,,,,,,,
349,19,Memory,6,,,,,,,00983960627fa.jpg,,,,,,,,,,,,,,,
350,19,Presentation,7,00090931230fa_sunaahedjlmtqekgyvj.jpg,00262940128fa_sunabizydfotqddlnjp.jpg,,,,,,,<,Face,,,,,1,,,,,,,x
351,19,Presentation,7,00804960530fa_sunagwswhkvnsmuszlz.jpg,00676941121fa_sunadpnqovzckyikrjo.jpg,,,,,,,>,Place,,,,,1,,,,,,,x
352,19,Presentation,7,00589940928fa_sunacwggadqsfpovdjv.jpg,00267940128fb_sunablfqiwfqomjarht.jpg,,,,,,,>,Face,,,,,0,,,,,,,o
353,19,Presentation,7,00302940422fa_sunabtlfmiwtljmoues.jpg,00789960620fa_sunagpancjmxqfazssf.jpg,,,,,,,<,Place,,,,,1,,,,,,,x
354,19,Presentation,7,00763941205fa_sunafhmnhsdurlvddpw.jpg,00891960530fa_sunalkiibhqpxfamlll.jpg,,,,,,,>,Place,,,,,1,,,,,,,x
355,19,Presentation,7,00810941205fa_sunahctntqrunhdxhtb.jpg,00727941205fa_sunaeisnjeetzmkbuad.jpg,,,,,,,<,Face,,,,,1,,,,,,,x
356,19,Presentation,7,00895960530fa_sunamczizlzavhzhpay.jpg,00260940128fa_sunabgfhvifeijihhjw.jpg,,,,,,,<,Place,,,,,1,,,,,,,o
357,19,Presentation,7,00776941205fa_sunafxokyavhgptyfye.jpg,00913960530fa_sunaooffzffbhcpirmm.jpg,,,,,,,>,Place,,,,,0,,,,,,,o
358,19,Presentation,7,00313940422fa_sunabwjvmoaddlyxfjr.jpg,00125931230fa_sunaalltyvjhbzhkmvg.jpg,,,,,,,<,Face,,,,,1,,,,,,,o
359,19,Presentation,7,00564940928fa_sunacmpqqfbsvlzinzl.jpg,00839940307fa_sunaipyohrqlwngaqif.jpg,,,,,,,>,Face,,,,,1,,,,,,,x
360,19,Memory,7,,,,,,,00936960627fa.jpg,,,,,,,,,,,,,,,
361,19,Memory,7,,,,,,,sunadpnqovzckyikrjo.jpg,,,,,,,,,,,,,,,
362,19,Memory,7,,,,,,,00090931230fa.jpg,,,,,,,,,,,,,,,
363,19,Memory,7,,,,,,,00122931230fa.jpg,,,,,,,,,,,,,,,
364,19,Memory,7,,,,,,,sunahctntqrunhdxhtb.jpg,,,,,,,,,,,,,,,
365,19,Memory,7,,,,,,,sunagpancjmxqfazssf.jpg,,,,,,,,,,,,,,,
366,19,Memory,7,,,,,,,00789960620fa.jpg,,,,,,,,,,,,,,,
367,19,Memory,7,,,,,,,sunbagfpovqwbuexqdn.jpg,,,,,,,,,,,,,,,
368,19,Memory,7,,,,,,,00968960627fa.jpg,,,,,,,,,,,,,,,
369,19,Memory,7,,,,,,,sunabwjvmoaddlyxfjr.jpg,,,,,,,,,,,,,,,
370,19,Memory,7,,,,,,,sunaakxjfbrrequcjmx.jpg,,,,,,,,,,,,,,,
371,19,Memory,7,,,,,,,sunaeoghzrjarigmwua.jpg,,,,,,,,,,,,,,,
372,19,Memory,7,,,,,,,00743941201fa.jpg,,,,,,,,,,,,,,,
373,19,Memory,7,,,,,,,sunajawzbrlrwafowen.jpg,,,,,,,,,,,,,,,
374,19,Memory,7,,,,,,,sunaahedjlmtqekgyvj.jpg,,,,,,,,,,,,,,,
375,19,Memory,7,,,,,,,sunablfqiwfqomjarht.jpg,,,,,,,,,,,,,,,
376,19,Memory,7,,,,,,,00564940928fa.jpg,,,,,,,,,,,,,,,
377,19,Memory,7,,,,,,,sunabjzyxcjnmztdonj.jpg,,,,,,,,,,,,,,,
378,19,Memory,7,,,,,,,sunaibnpvhkdpdnzcnz.jpg,,,,,,,,,,,,,,,
379,19,Memory,7,,,,,,,sunaalhlvzmjmitybdn.jpg,,,,,,,,,,,,,,,
380,19,Memory,7,,,,,,,00650941031fa.jpg,,,,,,,,,,,,,,,
381,19,Memory,7,,,,,,,00313940422fa.jpg,,,,,,,,,,,,,,,
382,19,Memory,7,,,,,,,00804960530fa.jpg,,,,,,,,,,,,,,,
383,19,Memory,7,,,,,,,00138931230fa.jpg,,,,,,,,,,,,,,,
384,19,Memory,7,,,,,,,00124931230fa.jpg,,,,,,,,,,,,,,,
385,19,Memory,7,,,,,,,sunagwswhkvnsmuszlz.jpg,,,,,,,,,,,,,,,
386,19,Memory,7,,,,,,,sunaapfaivxqoynnwwp.jpg,,,,,,,,,,,,,,,
387,19,Memory,7,,,,,,,00839940307fa.jpg,,,,,,,,,,,,,,,
388,19,Memory,7,,,,,,,00267940128fb.jpg,,,,,,,,,,,,,,,
389,19,Memory,7,,,,,,,00264940128fb.jpg,,,,,,,,,,,,,,,
390,19,Memory,7,,,,,,,00676941121fa.jpg,,,,,,,,,,,,,,,
391,19,Memory,7,,,,,,,sunaqgjuuwvdcyiccjt.jpg,,,,,,,,,,,,,,,
392,19,Memory,7,,,,,,,sunadikxpvqeabxrvvc.jpg,,,,,,,,,,,,,,,
393,19,Memory,7,,,,,,,00834940307fa.jpg,,,,,,,,,,,,,,,
394,19,Memory,7,,,,,,,sunacmpqqfbsvlzinzl.jpg,,,,,,,,,,,,,,,
395,19,Memory,7,,,,,,,00864940307fa.jpg,,,,,,,,,,,,,,,
396,19,Memory,7,,,,,,,sunaalltyvjhbzhkmvg.jpg,,,,,,,,,,,,,,,
397,19,Memory,7,,,,,,,00125931230fa.jpg,,,,,,,,,,,,,,,
398,19,Memory,7,,,,,,,00810941205fa.jpg,,,,,,,,,,,,,,,
399,19,Memory,7,,,,,,,sunaipyohrqlwngaqif.jpg,,,,,,,,,,,,,,,
