,Subject,Trial Type,Run,Cued Composite,Uncued Composite,Cued Face,Cued Place,Uncued Face,Uncued Place,Memory Image,Category,Cued Side,Cued Category,Attention Reaction Time (s),Familiarity Reaction Time (s),Familiarity Rating,Attention Level,Cue Validity,Post Invalid Cue,Pre Invalid Cue,Attention Button,Rating History,Stimulus Onset,Stimulus End,Attention Probe
160,3,Memory,3,,,,,,,sundahdxwmcdluscvot.jpg,,,,,1.559,2.0,,,,,,,1550783960.757759,1550783962.970368,
161,3,Memory,3,,,,,,,00854940307fa.jpg,,,,,0.942,1.0,,,,,,,1550783964.375205,1550783966.472057,
162,3,Memory,3,,,,,,,00102931230fa.jpg,,,,,0.888,1.0,,,,,,,1550783967.826362,1550783969.826376,
163,3,Memory,3,,,,,,,sunbddbivbptlrlauhy.jpg,,,,,0.0,,,,,,,,1550783971.143455,1550783973.223007,
164,3,Memory,3,,,,,,,sunadbdqzigzwipuipr.jpg,,,,,1.086,1.0,,,,,,,1550783974.562468,1550783976.707983,
165,3,Memory,3,,,,,,,sundbixjudsgeuuehrn.jpg,,,,,1.424,2.0,,,,,,,1550783978.011877,1550783980.09245,
166,3,Memory,3,,,,,,,00071940128fa.jpg,,,,,1.791,2.0,,,,,,,1550783981.414036,1550783983.526957,
167,3,Memory,3,,,,,,,00609940928fa.jpg,,,,,1.056,1.0,,,,,,,1550783984.849058,1550783986.943909,
168,3,Memory,3,,,,,,,sunaaekxzjzrfgtkwjf.jpg,,,,,0.925,2.0,,,,,,,1550783988.265831,1550783990.312863,
169,3,Memory,3,,,,,,,00978960627fa.jpg,,,,,0.983,1.0,,,,,,,1550783991.599723,1550783993.69667,
170,3,Memory,3,,,,,,,sunaiwduelojtwaqeyh.jpg,,,,,0.941,1.0,,,,,,,1550783995.035863,1550783997.234897,
171,3,Memory,3,,,,,,,sunbasypfgzjtomktmu.jpg,,,,,0.943,1.0,,,,,,,1550783998.552769,1550784000.683099,
172,3,Memory,3,,,,,,,sunaathajvxrgptwhoj.jpg,,,,,1.855,3.0,,,,,,,1550784002.037445,1550784004.30151,
173,3,Memory,3,,,,,,,00870940307fa.jpg,,,,,0.925,1.0,,,,,,,1550784005.622576,1550784007.701579,
174,3,Memory,3,,,,,,,sunacsdhbbsybcyxnel.jpg,,,,,1.725,4.0,,,,,,,1550784009.056985,1550784011.26101,
175,3,Memory,3,,,,,,,sunadochqcucscehsgk.jpg,,,,,1.002,2.0,,,,,,,1550784012.540367,1550784014.653999,
176,3,Memory,3,,,,,,,00670941121fa.jpg,,,,,0.674,1.0,,,,,,,1550784015.975094,1550784017.974313,
177,3,Memory,3,,,,,,,sunaejnvnpltdmhbcsi.jpg,,,,,1.067,2.0,,,,,,,1550784019.277955,1550784021.35597,
178,3,Memory,3,,,,,,,00294940422fb.jpg,,,,,1.336,2.0,,,,,,,1550784022.660473,1550784024.756909,
179,3,Memory,3,,,,,,,sunajrgtewnualfcerj.jpg,,,,,1.79,1.0,,,,,,,1550784026.045483,1550784028.024554,
180,3,Memory,3,,,,,,,00568940928fa.jpg,,,,,1.025,1.0,,,,,,,1550784029.279395,1550784031.280392,
181,3,Memory,3,,,,,,,sunaayehfdqcyxggsej.jpg,,,,,1.392,2.0,,,,,,,1550784032.596915,1550784034.919523,
182,3,Memory,3,,,,,,,00970960627fa.jpg,,,,,0.776,1.0,,,,,,,1550784036.244208,1550784038.343855,
183,3,Memory,3,,,,,,,00631940928fa.jpg,,,,,1.31,1.0,,,,,,,1550784039.649415,1550784041.862655,
184,3,Memory,3,,,,,,,00630941031fa.jpg,,,,,1.068,1.0,,,,,,,1550784043.166868,1550784045.197778,
185,3,Memory,3,,,,,,,sunaanptmsknhirrzed.jpg,,,,,1.243,2.0,,,,,,,1550784046.536471,1550784048.651618,
186,3,Memory,3,,,,,,,sunabrlndkruqokhury.jpg,,,,,1.309,3.0,,,,,,,1550784049.937455,1550784052.117887,
187,3,Memory,3,,,,,,,sunadakkdovnuzlycvp.jpg,,,,,2.127,3.0,,,,,,,1550784053.519911,1550784055.617247,
188,3,Memory,3,,,,,,,00136931230fb.jpg,,,,,0.841,2.0,,,,,,,1550784056.954621,1550784059.09469,
189,3,Memory,3,,,,,,,sunaajspcoepticvplv.jpg,,,,,1.059,1.0,,,,,,,1550784060.423499,1550784062.457805,
190,3,Memory,3,,,,,,,sunaaexpnawiehinlpy.jpg,,,,,0.761,2.0,,,,,,,1550784063.768737,1550784065.870349,
191,3,Memory,3,,,,,,,00144931230fb.jpg,,,,,0.843,1.0,,,,,,,1550784067.175545,1550784069.408537,
192,3,Memory,3,,,,,,,01207940128fa.jpg,,,,,2.026,1.0,,,,,,,1550784070.727785,1550784073.126637,
193,3,Memory,3,,,,,,,00728941205fa.jpg,,,,,0.786,1.0,,,,,,,1550784074.443847,1550784076.428576,
194,3,Memory,3,,,,,,,sunacycdoztxoluxjyk.jpg,,,,,1.403,3.0,,,,,,,1550784077.728857,1550784079.748459,
195,3,Memory,3,,,,,,,01011960627fa.jpg,,,,,0.625,2.0,,,,,,,1550784081.046902,1550784083.109509,
196,3,Memory,3,,,,,,,sunaafbmtoniaasysgu.jpg,,,,,0.825,1.0,,,,,,,1550784084.426539,1550784086.494255,
197,3,Memory,3,,,,,,,00194940128fb.jpg,,,,,1.593,3.0,,,,,,,1550784087.814202,1550784090.053842,
198,3,Memory,3,,,,,,,00061931230fb.jpg,,,,,1.325,2.0,,,,,,,1550784091.450914,1550784093.528802,
199,3,Memory,3,,,,,,,00073931230fa.jpg,,,,,1.859,1.0,,,,,,,1550784094.852385,1550784097.064265,
