,Subject,Trial Type,Run,Cued Composite,Uncued Composite,Cued Face,Cued Place,Uncued Face,Uncued Place,Memory Image,Category,Cued Side,Cued Category,Attention Reaction Time (s),Familiarity Reaction Time (s),Familiarity Rating,Attention Level,Cue Validity,Post Invalid Cue,Pre Invalid Cue,Attention Button,Rating History,Stimulus Onset,Stimulus End,Attention Probe
0,24,Presentation,0,00800941205fb_sunagvjurcwdbixvnyi.jpg,00834940307fa_sunaibnpvhkdpdnzcnz.jpg,00800941205fb.jpg,sunagvjurcwdbixvnyi.jpg,00834940307fa.jpg,sunaibnpvhkdpdnzcnz.jpg,,,>,Place,,,,,1,,,,,,,o
1,24,Presentation,0,00574940928fa_sunacvbrcejzwmcgnoq.jpg,00720960620fa_sunaecpkgfewqqreqwe.jpg,00574940928fa.jpg,sunacvbrcejzwmcgnoq.jpg,00720960620fa.jpg,sunaecpkgfewqqreqwe.jpg,,,<,Face,,,,,1,,,,,,,o
2,24,Presentation,0,00568940928fa_sunacsdhbbsybcyxnel.jpg,00903960620fa_sunanainkqdvktzoxyl.jpg,00568940928fa.jpg,sunacsdhbbsybcyxnel.jpg,00903960620fa.jpg,sunanainkqdvktzoxyl.jpg,,,<,Place,,,,,1,,,,,,,o
3,24,Presentation,0,00760960620fa_sunaffstbkappprzxnv.jpg,00063931230fa_sunaaelyvurpntclgau.jpg,00760960620fa.jpg,sunaffstbkappprzxnv.jpg,00063931230fa.jpg,sunaaelyvurpntclgau.jpg,,,>,Face,,,,,1,,,,,,,o
4,24,Presentation,0,01002960627fb_sunbwaafjdebjzttuvq.jpg,00153931230fa_sunaauhozyxzeeqstxi.jpg,01002960627fb.jpg,sunbwaafjdebjzttuvq.jpg,00153931230fa.jpg,sunaauhozyxzeeqstxi.jpg,,,>,Face,,,,,1,,,,,,,o
5,24,Presentation,0,00754941201fa_sunaffgsyyvoqdlkmnk.jpg,00598940928fa_sunacxeheuiigkcgquf.jpg,00754941201fa.jpg,sunaffgsyyvoqdlkmnk.jpg,00598940928fa.jpg,sunacxeheuiigkcgquf.jpg,,,<,Place,,,,,1,,,,,,,x
6,24,Presentation,0,00909960530_sunaobtizabegtwfwul.jpg,00915960620fa_sunapileznnbbmrwoei.jpg,00909960530.jpg,sunaobtizabegtwfwul.jpg,00915960620fa.jpg,sunapileznnbbmrwoei.jpg,,,>,Place,,,,,1,,,,,,,o
7,24,Presentation,0,00779941205fa_sunagdzlvkqtpnfxfcg.jpg,00130931230fa_sunaamvxnvouicstkjb.jpg,00779941205fa.jpg,sunagdzlvkqtpnfxfcg.jpg,00130931230fa.jpg,sunaamvxnvouicstkjb.jpg,,,<,Face,,,,,1,,,,,,,x
8,24,Presentation,0,00149931230fa_sunaauglwmctnkxyird.jpg,00973960627fa_sunbbgtoeuzierkkajt.jpg,00149931230fa.jpg,sunaauglwmctnkxyird.jpg,00973960627fa.jpg,sunbbgtoeuzierkkajt.jpg,,,>,Face,,,,,1,,,,,,,x
9,24,Presentation,0,00829940307fa_sunahwgbqkqcrwprgvh.jpg,00262940128fa_sunabizydfotqddlnjp.jpg,00829940307fa.jpg,sunahwgbqkqcrwprgvh.jpg,00262940128fa.jpg,sunabizydfotqddlnjp.jpg,,,<,Place,,,,,1,,,,,,,x
10,24,Memory,0,,,,,,,00294940422fb.jpg,,,,,,,,,,,,,,,
11,24,Memory,0,,,,,,,00829940307fa.jpg,,,,,,,,,,,,,,,
12,24,Memory,0,,,,,,,00296940422fa.jpg,,,,,,,,,,,,,,,
13,24,Memory,0,,,,,,,sunagmwxxwymwojbvgi.jpg,,,,,,,,,,,,,,,
14,24,Memory,0,,,,,,,00787941205fa.jpg,,,,,,,,,,,,,,,
15,24,Memory,0,,,,,,,sunaozisvwfbmlkfhzv.jpg,,,,,,,,,,,,,,,
16,24,Memory,0,,,,,,,sunaffgsyyvoqdlkmnk.jpg,,,,,,,,,,,,,,,
17,24,Memory,0,,,,,,,00720960620fa.jpg,,,,,,,,,,,,,,,
18,24,Memory,0,,,,,,,00063931230fa.jpg,,,,,,,,,,,,,,,
19,24,Memory,0,,,,,,,sunapileznnbbmrwoei.jpg,,,,,,,,,,,,,,,
20,24,Memory,0,,,,,,,sunacxeheuiigkcgquf.jpg,,,,,,,,,,,,,,,
21,24,Memory,0,,,,,,,00267940128fb.jpg,,,,,,,,,,,,,,,
22,24,Memory,0,,,,,,,00753941201fa.jpg,,,,,,,,,,,,,,,
23,24,Memory,0,,,,,,,sunaaelyvurpntclgau.jpg,,,,,,,,,,,,,,,
24,24,Memory,0,,,,,,,00973960627fa.jpg,,,,,,,,,,,,,,,
25,24,Memory,0,,,,,,,sunablfqiwfqomjarht.jpg,,,,,,,,,,,,,,,
26,24,Memory,0,,,,,,,00914960620fa.jpg,,,,,,,,,,,,,,,
27,24,Memory,0,,,,,,,00271940422fa.jpg,,,,,,,,,,,,,,,
28,24,Memory,0,,,,,,,sunbdycacjfaujxitbw.jpg,,,,,,,,,,,,,,,
29,24,Memory,0,,,,,,,00915960620fa.jpg,,,,,,,,,,,,,,,
30,24,Memory,0,,,,,,,01002960627fb.jpg,,,,,,,,,,,,,,,
31,24,Memory,0,,,,,,,00598940928fa.jpg,,,,,,,,,,,,,,,
32,24,Memory,0,,,,,,,sunaecpkgfewqqreqwe.jpg,,,,,,,,,,,,,,,
33,24,Memory,0,,,,,,,00754941201fa.jpg,,,,,,,,,,,,,,,
34,24,Memory,0,,,,,,,00979960627fa.jpg,,,,,,,,,,,,,,,
35,24,Memory,0,,,,,,,sunbwaafjdebjzttuvq.jpg,,,,,,,,,,,,,,,
36,24,Memory,0,,,,,,,sunbbgtoeuzierkkajt.jpg,,,,,,,,,,,,,,,
37,24,Memory,0,,,,,,,00919960620fa.jpg,,,,,,,,,,,,,,,
38,24,Memory,0,,,,,,,sunabmbnddafmywtjjj.jpg,,,,,,,,,,,,,,,
39,24,Memory,0,,,,,,,00972960627fa.jpg,,,,,,,,,,,,,,,
40,24,Memory,0,,,,,,,sunahwgbqkqcrwprgvh.jpg,,,,,,,,,,,,,,,
41,24,Memory,0,,,,,,,sunafcofuuzebuadceo.jpg,,,,,,,,,,,,,,,
42,24,Memory,0,,,,,,,00149931230fa.jpg,,,,,,,,,,,,,,,
43,24,Memory,0,,,,,,,sunabrwnslxalcohfre.jpg,,,,,,,,,,,,,,,
44,24,Memory,0,,,,,,,00760960620fa.jpg,,,,,,,,,,,,,,,
45,24,Memory,0,,,,,,,sunabrlndkruqokhury.jpg,,,,,,,,,,,,,,,
46,24,Memory,0,,,,,,,sunaauglwmctnkxyird.jpg,,,,,,,,,,,,,,,
47,24,Memory,0,,,,,,,sunbbfqwjpdxniyhies.jpg,,,,,,,,,,,,,,,
48,24,Memory,0,,,,,,,sunaffstbkappprzxnv.jpg,,,,,,,,,,,,,,,
49,24,Memory,0,,,,,,,sunapmfmzadmosuogaz.jpg,,,,,,,,,,,,,,,
50,24,Presentation,1,00761960627fa_sunafgdqbclkwfocdhg.jpg,00154931230fa_sunaauueuhhvklldjik.jpg,00761960627fa.jpg,sunafgdqbclkwfocdhg.jpg,00154931230fa.jpg,sunaauueuhhvklldjik.jpg,,,<,Place,,,,,1,,,,,,,o
51,24,Presentation,1,00265940128fb_sunabkmdplkdbvxriff.jpg,00786941205fa_sunagmhildamktmqjss.jpg,00265940128fb.jpg,sunabkmdplkdbvxriff.jpg,00786941205fa.jpg,sunagmhildamktmqjss.jpg,,,>,Place,,,,,1,,,,,,,x
52,24,Presentation,1,00955960627fb_sunauburywlkjszngcq.jpg,00598941031fa_sunacxtcahkymosigud.jpg,00955960627fb.jpg,sunauburywlkjszngcq.jpg,00598941031fa.jpg,sunacxtcahkymosigud.jpg,,,<,Face,,,,,1,,,,,,,o
53,24,Presentation,1,00858940307fa_sunaixpqndlwhwjtjek.jpg,00313940422fa_sunabwjvmoaddlyxfjr.jpg,00858940307fa.jpg,sunaixpqndlwhwjtjek.jpg,00313940422fa.jpg,sunabwjvmoaddlyxfjr.jpg,,,<,Face,,,,,1,,,,,,,x
54,24,Presentation,1,00772941201fa_sunafpfpiiujzoesnqg.jpg,00138931230fa_sunaapfaivxqoynnwwp.jpg,00772941201fa.jpg,sunafpfpiiujzoesnqg.jpg,00138931230fa.jpg,sunaapfaivxqoynnwwp.jpg,,,>,Face,,,,,1,,,,,,,x
55,24,Presentation,1,00993960627fa_sunbprywzqxjcezkbch.jpg,00126931230fb_sunaamdjwemxpmmtypi.jpg,00993960627fa.jpg,sunbprywzqxjcezkbch.jpg,00126931230fb.jpg,sunaamdjwemxpmmtypi.jpg,,,>,Face,,,,,1,,,,,,,o
56,24,Presentation,1,00124931230fa_sunaalhlvzmjmitybdn.jpg,00847940307fa_sunaivdjruhkrfywfed.jpg,00124931230fa.jpg,sunaalhlvzmjmitybdn.jpg,00847940307fa.jpg,sunaivdjruhkrfywfed.jpg,,,>,Place,,,,,1,,,,,,,x
57,24,Presentation,1,00986960627fa_sunbgzjryivyczuvkvm.jpg,00147931230fb_sunaatpkocdkocwxpkb.jpg,00986960627fa.jpg,sunbgzjryivyczuvkvm.jpg,00147931230fb.jpg,sunaatpkocdkocwxpkb.jpg,,,<,Place,,,,,1,,,,,,,o
58,24,Presentation,1,00983960627fa_sunbfyvfqiimvdaxlqn.jpg,00864940307fa_sunajawzbrlrwafowen.jpg,00983960627fa.jpg,sunbfyvfqiimvdaxlqn.jpg,00864940307fa.jpg,sunajawzbrlrwafowen.jpg,,,>,Place,,,,,1,,,,,,,x
59,24,Presentation,1,00746941201fa_sunaetydippjxikifsb.jpg,00787960620fa_sunagoufulkpsxrmklt.jpg,00746941201fa.jpg,sunaetydippjxikifsb.jpg,00787960620fa.jpg,sunagoufulkpsxrmklt.jpg,,,<,Face,,,,,1,,,,,,,o
60,24,Memory,1,,,,,,,00705960530fa.jpg,,,,,,,,,,,,,,,
61,24,Memory,1,,,,,,,sunaixpqndlwhwjtjek.jpg,,,,,,,,,,,,,,,
62,24,Memory,1,,,,,,,sunabxsuqbleluwczoy.jpg,,,,,,,,,,,,,,,
63,24,Memory,1,,,,,,,00854940307fa.jpg,,,,,,,,,,,,,,,
64,24,Memory,1,,,,,,,sunaatpkocdkocwxpkb.jpg,,,,,,,,,,,,,,,
65,24,Memory,1,,,,,,,00955960627fb.jpg,,,,,,,,,,,,,,,
66,24,Memory,1,,,,,,,00598941031fa.jpg,,,,,,,,,,,,,,,
67,24,Memory,1,,,,,,,sunaaheqzstzxuadglu.jpg,,,,,,,,,,,,,,,
68,24,Memory,1,,,,,,,01010960627fa.jpg,,,,,,,,,,,,,,,
69,24,Memory,1,,,,,,,sunaduslxfzlbxlllnz.jpg,,,,,,,,,,,,,,,
70,24,Memory,1,,,,,,,00864940307fa.jpg,,,,,,,,,,,,,,,
71,24,Memory,1,,,,,,,sunaalhlvzmjmitybdn.jpg,,,,,,,,,,,,,,,
72,24,Memory,1,,,,,,,00761960627fa.jpg,,,,,,,,,,,,,,,
73,24,Memory,1,,,,,,,00858940307fa.jpg,,,,,,,,,,,,,,,
74,24,Memory,1,,,,,,,sunaeutbrtswvsozxyk.jpg,,,,,,,,,,,,,,,
75,24,Memory,1,,,,,,,00841940307fa.jpg,,,,,,,,,,,,,,,
76,24,Memory,1,,,,,,,suncnkvbhypnivcohyx.jpg,,,,,,,,,,,,,,,
77,24,Memory,1,,,,,,,sunbaoizrfijvhpnnjn.jpg,,,,,,,,,,,,,,,
78,24,Memory,1,,,,,,,00124931230fa.jpg,,,,,,,,,,,,,,,
79,24,Memory,1,,,,,,,sunaglqunwuycxydmyu.jpg,,,,,,,,,,,,,,,
80,24,Memory,1,,,,,,,00313940422fa.jpg,,,,,,,,,,,,,,,
81,24,Memory,1,,,,,,,00785941205fa.jpg,,,,,,,,,,,,,,,
82,24,Memory,1,,,,,,,00969960627fa.jpg,,,,,,,,,,,,,,,
83,24,Memory,1,,,,,,,sunajawzbrlrwafowen.jpg,,,,,,,,,,,,,,,
84,24,Memory,1,,,,,,,sunaivdjruhkrfywfed.jpg,,,,,,,,,,,,,,,
85,24,Memory,1,,,,,,,00967960627fa.jpg,,,,,,,,,,,,,,,
86,24,Memory,1,,,,,,,00847940307fa.jpg,,,,,,,,,,,,,,,
87,24,Memory,1,,,,,,,00092931230fa.jpg,,,,,,,,,,,,,,,
88,24,Memory,1,,,,,,,sunafgdqbclkwfocdhg.jpg,,,,,,,,,,,,,,,
89,24,Memory,1,,,,,,,sunaiwduelojtwaqeyh.jpg,,,,,,,,,,,,,,,
90,24,Memory,1,,,,,,,00147931230fb.jpg,,,,,,,,,,,,,,,
91,24,Memory,1,,,,,,,00747941201fa.jpg,,,,,,,,,,,,,,,
92,24,Memory,1,,,,,,,sunbaejotfklekvpxcz.jpg,,,,,,,,,,,,,,,
93,24,Memory,1,,,,,,,00481940519fa.jpg,,,,,,,,,,,,,,,
94,24,Memory,1,,,,,,,sunabwjvmoaddlyxfjr.jpg,,,,,,,,,,,,,,,
95,24,Memory,1,,,,,,,sunbprywzqxjcezkbch.jpg,,,,,,,,,,,,,,,
96,24,Memory,1,,,,,,,sunaisiwfgppimtnmxl.jpg,,,,,,,,,,,,,,,
97,24,Memory,1,,,,,,,sunacxtcahkymosigud.jpg,,,,,,,,,,,,,,,
98,24,Memory,1,,,,,,,sunauburywlkjszngcq.jpg,,,,,,,,,,,,,,,
99,24,Memory,1,,,,,,,00993960627fa.jpg,,,,,,,,,,,,,,,
100,24,Presentation,2,00893960530Fa_sunaloffvbvysigxent.jpg,00877960530fa_sunajxpkuhbizeveguy.jpg,00893960530Fa.jpg,sunaloffvbvysigxent.jpg,00877960530fa.jpg,sunajxpkuhbizeveguy.jpg,,,<,Face,,,,,1,,,,,,,o
101,24,Presentation,2,00082931230fa_sunaafvitpexrpvumsa.jpg,00816941205fa_sunahmhrncocyhsjpxk.jpg,00082931230fa.jpg,sunaafvitpexrpvumsa.jpg,00816941205fa.jpg,sunahmhrncocyhsjpxk.jpg,,,>,Place,,,,,1,,,,,,,x
102,24,Presentation,2,00762941201fa_sunafgzgbisbopcyslr.jpg,00935960627fa_sunaqbmgkgqucajzrkp.jpg,00762941201fa.jpg,sunafgzgbisbopcyslr.jpg,00935960627fa.jpg,sunaqbmgkgqucajzrkp.jpg,,,>,Place,,,,,1,,,,,,,x
103,24,Presentation,2,00638941031fa_sunadfktsqjthoglcsm.jpg,00885960530fa_sunakwlvxjpddialozd.jpg,00638941031fa.jpg,sunadfktsqjthoglcsm.jpg,00885960530fa.jpg,sunakwlvxjpddialozd.jpg,,,>,Face,,,,,1,,,,,,,x
104,24,Presentation,2,00868960307fa_sunajjxttslobudoqbv.jpg,00797960620fa_sunagufzbeteqdjxais.jpg,00868960307fa.jpg,sunajjxttslobudoqbv.jpg,00797960620fa.jpg,sunagufzbeteqdjxais.jpg,,,>,Place,,,,,1,,,,,,,o
105,24,Presentation,2,01011960627fa_sundahdxwmcdluscvot.jpg,00631940928fa_sunadbdqzigzwipuipr.jpg,01011960627fa.jpg,sundahdxwmcdluscvot.jpg,00631940928fa.jpg,sunadbdqzigzwipuipr.jpg,,,<,Place,,,,,1,,,,,,,x
106,24,Presentation,2,00089931230fa_sunaagcpoejbuzyvddd.jpg,00887960530_sunalcrtwiycqobgelp.jpg,00089931230fa.jpg,sunaagcpoejbuzyvddd.jpg,00887960530.jpg,sunalcrtwiycqobgelp.jpg,,,<,Place,,,,,1,,,,,,,o
107,24,Presentation,2,00479940519fa_sunabxsbfwjccqxxzxq.jpg,00609940928fa_sunacycdoztxoluxjyk.jpg,00479940519fa.jpg,sunabxsbfwjccqxxzxq.jpg,00609940928fa.jpg,sunacycdoztxoluxjyk.jpg,,,<,Face,,,,,1,,,,,,,x
108,24,Presentation,2,00725941201fa_sunaefgzwiramypjvtd.jpg,00801941205fa_sunagvprlbprarvgdvj.jpg,00725941201fa.jpg,sunaefgzwiramypjvtd.jpg,00801941205fa.jpg,sunagvprlbprarvgdvj.jpg,,,>,Face,,,,,1,,,,,,,o
109,24,Presentation,2,00136931230fb_sunaanptmsknhirrzed.jpg,00184940128fa_sunaavtbadenwnzeutj.jpg,00136931230fb.jpg,sunaanptmsknhirrzed.jpg,00184940128fa.jpg,sunaavtbadenwnzeutj.jpg,,,<,Face,,,,,1,,,,,,,x
110,24,Memory,2,,,,,,,sunahgtbwgsmtqeodwh.jpg,,,,,,,,,,,,,,,
111,24,Memory,2,,,,,,,sunajjxttslobudoqbv.jpg,,,,,,,,,,,,,,,
112,24,Memory,2,,,,,,,00089931230fa.jpg,,,,,,,,,,,,,,,
113,24,Memory,2,,,,,,,sunaaeowapdkwzqpgqr.jpg,,,,,,,,,,,,,,,
114,24,Memory,2,,,,,,,00239940128fa.jpg,,,,,,,,,,,,,,,
115,24,Memory,2,,,,,,,00949960627fb.jpg,,,,,,,,,,,,,,,
116,24,Memory,2,,,,,,,sunacycdoztxoluxjyk.jpg,,,,,,,,,,,,,,,
117,24,Memory,2,,,,,,,00793941205fa.jpg,,,,,,,,,,,,,,,
118,24,Memory,2,,,,,,,00877960530fa.jpg,,,,,,,,,,,,,,,
119,24,Memory,2,,,,,,,00958960627fa.jpg,,,,,,,,,,,,,,,
120,24,Memory,2,,,,,,,00810941205fa.jpg,,,,,,,,,,,,,,,
121,24,Memory,2,,,,,,,00797960620fa.jpg,,,,,,,,,,,,,,,
122,24,Memory,2,,,,,,,sunahctntqrunhdxhtb.jpg,,,,,,,,,,,,,,,
123,24,Memory,2,,,,,,,sunagufzbeteqdjxais.jpg,,,,,,,,,,,,,,,
124,24,Memory,2,,,,,,,00870940307fa.jpg,,,,,,,,,,,,,,,
125,24,Memory,2,,,,,,,00812941205fa.jpg,,,,,,,,,,,,,,,
126,24,Memory,2,,,,,,,sunajrgtewnualfcerj.jpg,,,,,,,,,,,,,,,
127,24,Memory,2,,,,,,,sunaefgzwiramypjvtd.jpg,,,,,,,,,,,,,,,
128,24,Memory,2,,,,,,,sunasnqkkyhilqkxiqm.jpg,,,,,,,,,,,,,,,
129,24,Memory,2,,,,,,,sunadfktsqjthoglcsm.jpg,,,,,,,,,,,,,,,
130,24,Memory,2,,,,,,,00211940128fa.jpg,,,,,,,,,,,,,,,
131,24,Memory,2,,,,,,,00638941031fa.jpg,,,,,,,,,,,,,,,
132,24,Memory,2,,,,,,,sunajxpkuhbizeveguy.jpg,,,,,,,,,,,,,,,
133,24,Memory,2,,,,,,,sunagtjwilqjvxohypn.jpg,,,,,,,,,,,,,,,
134,24,Memory,2,,,,,,,sunaqbmgkgqucajzrkp.jpg,,,,,,,,,,,,,,,
135,24,Memory,2,,,,,,,sunabasphceswhwwqvv.jpg,,,,,,,,,,,,,,,
136,24,Memory,2,,,,,,,sunabctlikybqabezjv.jpg,,,,,,,,,,,,,,,
137,24,Memory,2,,,,,,,sunavspxmxubqaeidjt.jpg,,,,,,,,,,,,,,,
138,24,Memory,2,,,,,,,00479940519fa.jpg,,,,,,,,,,,,,,,
139,24,Memory,2,,,,,,,00901960530fa.jpg,,,,,,,,,,,,,,,
140,24,Memory,2,,,,,,,00184940128fa.jpg,,,,,,,,,,,,,,,
141,24,Memory,2,,,,,,,00725941201fa.jpg,,,,,,,,,,,,,,,
142,24,Memory,2,,,,,,,00069931230fb.jpg,,,,,,,,,,,,,,,
143,24,Memory,2,,,,,,,sunaavtbadenwnzeutj.jpg,,,,,,,,,,,,,,,
144,24,Memory,2,,,,,,,sunaagcpoejbuzyvddd.jpg,,,,,,,,,,,,,,,
145,24,Memory,2,,,,,,,sunabxsbfwjccqxxzxq.jpg,,,,,,,,,,,,,,,
146,24,Memory,2,,,,,,,00609940928fa.jpg,,,,,,,,,,,,,,,
147,24,Memory,2,,,,,,,00935960627fa.jpg,,,,,,,,,,,,,,,
148,24,Memory,2,,,,,,,sunammbnoambmhdxdwd.jpg,,,,,,,,,,,,,,,
149,24,Memory,2,,,,,,,00868960307fa.jpg,,,,,,,,,,,,,,,
150,24,Presentation,3,00799941205fa_sunagutjvdvnhxejerz.jpg,00906960530fa_sunantryfbloeaomfta.jpg,00799941205fa.jpg,sunagutjvdvnhxejerz.jpg,00906960530fa.jpg,sunantryfbloeaomfta.jpg,,,>,Place,,,,,1,,,,,,,o
151,24,Presentation,3,00811960530fa_sunahedfrhtcwpneund.jpg,00803941205fa_sunagvxkjokqimstxpe.jpg,00811960530fa.jpg,sunahedfrhtcwpneund.jpg,00803941205fa.jpg,sunagvxkjokqimstxpe.jpg,,,<,Place,,,,,1,,,,,,,x
152,24,Presentation,3,00719941201fa_sunadvithllcgmfxsrn.jpg,00827940307fa_sunahtfxgsrmkiulnwk.jpg,00719941201fa.jpg,sunadvithllcgmfxsrn.jpg,00827940307fa.jpg,sunahtfxgsrmkiulnwk.jpg,,,<,Face,,,,,1,,,,,,,o
153,24,Presentation,3,00784941205fb_sunagjzcrjvmxzqzljx.jpg,00990960627fa_sunbpflsdaxnddnwcqi.jpg,00784941205fb.jpg,sunagjzcrjvmxzqzljx.jpg,00990960627fa.jpg,sunbpflsdaxnddnwcqi.jpg,,,>,Face,,,,,0,,,,,,,x
154,24,Presentation,3,00838940307fa_sunaiozxhxgtfrmoagh.jpg,00276940422fa_sunabmytpyhsgigllxu.jpg,00838940307fa.jpg,sunaiozxhxgtfrmoagh.jpg,00276940422fa.jpg,sunabmytpyhsgigllxu.jpg,,,<,Face,,,,,1,,,,,,,o
155,24,Presentation,3,00776941205fa_sunafxokyavhgptyfye.jpg,00925960627fa_sunapqwnqzxlsfvgsjm.jpg,00776941205fa.jpg,sunafxokyavhgptyfye.jpg,00925960627fa.jpg,sunapqwnqzxlsfvgsjm.jpg,,,<,Place,,,,,1,,,,,,,o
156,24,Presentation,3,00783941205fa_sunagjeesomrwjsfqie.jpg,00947960627fa_sunasmmcxdddtmtazwx.jpg,00783941205fa.jpg,sunagjeesomrwjsfqie.jpg,00947960627fa.jpg,sunasmmcxdddtmtazwx.jpg,,,>,Place,,,,,1,,,,,,,o
157,24,Presentation,3,00968960627fa_sunbagfpovqwbuexqdn.jpg,00825940307fa_sunahrltmuwbiehihpe.jpg,00968960627fa.jpg,sunbagfpovqwbuexqdn.jpg,00825940307fa.jpg,sunahrltmuwbiehihpe.jpg,,,>,Face,,,,,1,,,,,,,x
158,24,Presentation,3,00938960627fa_sunaqyylsngywqzwfmx.jpg,00081941031fa_sunaaftlyfudyzuhqzf.jpg,00938960627fa.jpg,sunaqyylsngywqzwfmx.jpg,00081941031fa.jpg,sunaaftlyfudyzuhqzf.jpg,,,<,Place,,,,,0,,,,,,,x
159,24,Presentation,3,00097931230fa_sunaajayojuslbbnneg.jpg,00859940307fa_sunaiycurtqsfkvcaso.jpg,00097931230fa.jpg,sunaajayojuslbbnneg.jpg,00859940307fa.jpg,sunaiycurtqsfkvcaso.jpg,,,>,Face,,,,,1,,,,,,,x
160,24,Memory,3,,,,,,,00670941121fa.jpg,,,,,,,,,,,,,,,
161,24,Memory,3,,,,,,,sunabanoxjtqxamkucc.jpg,,,,,,,,,,,,,,,
162,24,Memory,3,,,,,,,sunasmmcxdddtmtazwx.jpg,,,,,,,,,,,,,,,
163,24,Memory,3,,,,,,,sunarceibpcyacbmfga.jpg,,,,,,,,,,,,,,,
164,24,Memory,3,,,,,,,sunawksfbacycuhbrsc.jpg,,,,,,,,,,,,,,,
165,24,Memory,3,,,,,,,00081941031fa.jpg,,,,,,,,,,,,,,,
166,24,Memory,3,,,,,,,00210940128fb.jpg,,,,,,,,,,,,,,,
167,24,Memory,3,,,,,,,00825940307fa.jpg,,,,,,,,,,,,,,,
168,24,Memory,3,,,,,,,sunafxokyavhgptyfye.jpg,,,,,,,,,,,,,,,
169,24,Memory,3,,,,,,,00185940422fb.jpg,,,,,,,,,,,,,,,
170,24,Memory,3,,,,,,,00947960627fa.jpg,,,,,,,,,,,,,,,
171,24,Memory,3,,,,,,,sunaaftlyfudyzuhqzf.jpg,,,,,,,,,,,,,,,
172,24,Memory,3,,,,,,,sunahedfrhtcwpneund.jpg,,,,,,,,,,,,,,,
173,24,Memory,3,,,,,,,00125931230fa.jpg,,,,,,,,,,,,,,,
174,24,Memory,3,,,,,,,00827940307fa.jpg,,,,,,,,,,,,,,,
175,24,Memory,3,,,,,,,sunavhxgmgrqsaptynb.jpg,,,,,,,,,,,,,,,
176,24,Memory,3,,,,,,,sunadochqcucscehsgk.jpg,,,,,,,,,,,,,,,
177,24,Memory,3,,,,,,,sunahrltmuwbiehihpe.jpg,,,,,,,,,,,,,,,
178,24,Memory,3,,,,,,,sunaalltyvjhbzhkmvg.jpg,,,,,,,,,,,,,,,
179,24,Memory,3,,,,,,,00783941205fa.jpg,,,,,,,,,,,,,,,
180,24,Memory,3,,,,,,,00796941205fa.jpg,,,,,,,,,,,,,,,
181,24,Memory,3,,,,,,,sunaivflshbyfrfzhqb.jpg,,,,,,,,,,,,,,,
182,24,Memory,3,,,,,,,00119931230fb.jpg,,,,,,,,,,,,,,,
183,24,Memory,3,,,,,,,00939960627fa.jpg,,,,,,,,,,,,,,,
184,24,Memory,3,,,,,,,00776941205fa.jpg,,,,,,,,,,,,,,,
185,24,Memory,3,,,,,,,sunaguchqqnrtodtezq.jpg,,,,,,,,,,,,,,,
186,24,Memory,3,,,,,,,sunaawqdbpihmlbwyyn.jpg,,,,,,,,,,,,,,,
187,24,Memory,3,,,,,,,00851940307fa.jpg,,,,,,,,,,,,,,,
188,24,Memory,3,,,,,,,sunagjeesomrwjsfqie.jpg,,,,,,,,,,,,,,,
189,24,Memory,3,,,,,,,00957960627fa.jpg,,,,,,,,,,,,,,,
190,24,Memory,3,,,,,,,00719941201fa.jpg,,,,,,,,,,,,,,,
191,24,Memory,3,,,,,,,sunapqwnqzxlsfvgsjm.jpg,,,,,,,,,,,,,,,
192,24,Memory,3,,,,,,,sunaakvmbftkrgqhjun.jpg,,,,,,,,,,,,,,,
193,24,Memory,3,,,,,,,00925960627fa.jpg,,,,,,,,,,,,,,,
194,24,Memory,3,,,,,,,00960960627fa.jpg,,,,,,,,,,,,,,,
195,24,Memory,3,,,,,,,00811960530fa.jpg,,,,,,,,,,,,,,,
196,24,Memory,3,,,,,,,00968960627fa.jpg,,,,,,,,,,,,,,,
197,24,Memory,3,,,,,,,sunahtfxgsrmkiulnwk.jpg,,,,,,,,,,,,,,,
198,24,Memory,3,,,,,,,sunbagfpovqwbuexqdn.jpg,,,,,,,,,,,,,,,
199,24,Memory,3,,,,,,,sunadvithllcgmfxsrn.jpg,,,,,,,,,,,,,,,
200,24,Presentation,4,00970960627fa_sunbasypfgzjtomktmu.jpg,00943960627fa_sunarpsxqkduedrrzyi.jpg,00970960627fa.jpg,sunbasypfgzjtomktmu.jpg,00943960627fa.jpg,sunarpsxqkduedrrzyi.jpg,,,>,Face,,,,,1,,,,,,,o
201,24,Presentation,4,00116931230fa_sunaakqepfoeqomfgxf.jpg,00194940128fb_sunaayehfdqcyxggsej.jpg,00116931230fa.jpg,sunaakqepfoeqomfgxf.jpg,00194940128fb.jpg,sunaayehfdqcyxggsej.jpg,,,<,Face,,,,,1,,,,,,,o
202,24,Presentation,4,00942960627fa_sunarfdklgdnjgeqfjg.jpg,00062931230fb_sunaaelotvjgibjtjhs.jpg,00942960627fa.jpg,sunarfdklgdnjgeqfjg.jpg,00062931230fb.jpg,sunaaelotvjgibjtjhs.jpg,,,<,Face,,,,,1,,,,,,,x
203,24,Presentation,4,00910960530fa_sunaofikylqtxphvdem.jpg,00789960620fa_sunagpancjmxqfazssf.jpg,00910960530fa.jpg,sunaofikylqtxphvdem.jpg,00789960620fa.jpg,sunagpancjmxqfazssf.jpg,,,<,Place,,,,,1,,,,,,,o
204,24,Presentation,4,00065931230fb_sunaaemixhfquhnxxlm.jpg,00922960627fa_sunapqkyghktgtosuuk.jpg,00065931230fb.jpg,sunaaemixhfquhnxxlm.jpg,00922960627fa.jpg,sunapqkyghktgtosuuk.jpg,,,>,Place,,,,,1,,,,,,,x
205,24,Presentation,4,00498960627fa_sunabzjxlmkwnwzimua.jpg,00780960530fa_sunagetqixeypsysbpn.jpg,00498960627fa.jpg,sunabzjxlmkwnwzimua.jpg,00780960530fa.jpg,sunagetqixeypsysbpn.jpg,,,>,Place,,,,,1,,,,,,,o
206,24,Presentation,4,00101931230fb_sunaajqmsaavkmgbsth.jpg,00290940422fa_sunabqowuarvqqcnipn.jpg,00101931230fb.jpg,sunaajqmsaavkmgbsth.jpg,00290940422fa.jpg,sunabqowuarvqqcnipn.jpg,,,<,Place,,,,,1,,,,,,,x
207,24,Presentation,4,00571940928fa_sunacuatpqpqhyjhjqk.jpg,00884960530fa_sunakodkcslgqhqlgwl.jpg,00571940928fa.jpg,sunacuatpqpqhyjhjqk.jpg,00884960530fa.jpg,sunakodkcslgqhqlgwl.jpg,,,<,Place,,,,,1,,,,,,,x
208,24,Presentation,4,00123931230fb_sunaalcrrdbjgdztbiz.jpg,00882960530fa_sunaknlirqjqiwbbeeg.jpg,00123931230fb.jpg,sunaalcrrdbjgdztbiz.jpg,00882960530fa.jpg,sunaknlirqjqiwbbeeg.jpg,,,>,Face,,,,,0,,,,,,,x
209,24,Presentation,4,00633940928fa_sunadbhmrgrrpyzglxs.jpg,00077931230fb_sunaafgqutfaishsxyu.jpg,00633940928fa.jpg,sunadbhmrgrrpyzglxs.jpg,00077931230fb.jpg,sunaafgqutfaishsxyu.jpg,,,>,Face,,,,,1,,,,,,,o
210,24,Memory,4,,,,,,,sunabzjxlmkwnwzimua.jpg,,,,,,,,,,,,,,,
211,24,Memory,4,,,,,,,00498960627fa.jpg,,,,,,,,,,,,,,,
212,24,Memory,4,,,,,,,00290940422fa.jpg,,,,,,,,,,,,,,,
213,24,Memory,4,,,,,,,sunadcphrizvfpljiqt.jpg,,,,,,,,,,,,,,,
214,24,Memory,4,,,,,,,00942960627fa.jpg,,,,,,,,,,,,,,,
215,24,Memory,4,,,,,,,00971960627fa.jpg,,,,,,,,,,,,,,,
216,24,Memory,4,,,,,,,00634940928fa.jpg,,,,,,,,,,,,,,,
217,24,Memory,4,,,,,,,sunagetqixeypsysbpn.jpg,,,,,,,,,,,,,,,
218,24,Memory,4,,,,,,,00943960627fa.jpg,,,,,,,,,,,,,,,
219,24,Memory,4,,,,,,,sunbbegcweqnetpdlrh.jpg,,,,,,,,,,,,,,,
220,24,Memory,4,,,,,,,sunacuatpqpqhyjhjqk.jpg,,,,,,,,,,,,,,,
221,24,Memory,4,,,,,,,00910960530fa.jpg,,,,,,,,,,,,,,,
222,24,Memory,4,,,,,,,00780960530fa.jpg,,,,,,,,,,,,,,,
223,24,Memory,4,,,,,,,sunaofikylqtxphvdem.jpg,,,,,,,,,,,,,,,
224,24,Memory,4,,,,,,,00970960627fa.jpg,,,,,,,,,,,,,,,
225,24,Memory,4,,,,,,,sunadsgmtznewzyasnk.jpg,,,,,,,,,,,,,,,
226,24,Memory,4,,,,,,,sunaccdtpgenvcbcbcf.jpg,,,,,,,,,,,,,,,
227,24,Memory,4,,,,,,,sunaazezcsunmhttzxz.jpg,,,,,,,,,,,,,,,
228,24,Memory,4,,,,,,,00882960530fa.jpg,,,,,,,,,,,,,,,
229,24,Memory,4,,,,,,,sunabppokiyglaxpcha.jpg,,,,,,,,,,,,,,,
230,24,Memory,4,,,,,,,00700941121fa.jpg,,,,,,,,,,,,,,,
231,24,Memory,4,,,,,,,00571940928fa.jpg,,,,,,,,,,,,,,,
232,24,Memory,4,,,,,,,00071940128fa.jpg,,,,,,,,,,,,,,,
233,24,Memory,4,,,,,,,00288940422fa.jpg,,,,,,,,,,,,,,,
234,24,Memory,4,,,,,,,00194940128fb.jpg,,,,,,,,,,,,,,,
235,24,Memory,4,,,,,,,00198940128fb.jpg,,,,,,,,,,,,,,,
236,24,Memory,4,,,,,,,sunabqowuarvqqcnipn.jpg,,,,,,,,,,,,,,,
237,24,Memory,4,,,,,,,sunarpsxqkduedrrzyi.jpg,,,,,,,,,,,,,,,
238,24,Memory,4,,,,,,,sunaknlirqjqiwbbeeg.jpg,,,,,,,,,,,,,,,
239,24,Memory,4,,,,,,,sunarfdklgdnjgeqfjg.jpg,,,,,,,,,,,,,,,
240,24,Memory,4,,,,,,,sunbasypfgzjtomktmu.jpg,,,,,,,,,,,,,,,
241,24,Memory,4,,,,,,,00218940128fa.jpg,,,,,,,,,,,,,,,
242,24,Memory,4,,,,,,,00308940422fb.jpg,,,,,,,,,,,,,,,
243,24,Memory,4,,,,,,,sunaaexpnawiehinlpy.jpg,,,,,,,,,,,,,,,
244,24,Memory,4,,,,,,,00532960627fa.jpg,,,,,,,,,,,,,,,
245,24,Memory,4,,,,,,,sunaayehfdqcyxggsej.jpg,,,,,,,,,,,,,,,
246,24,Memory,4,,,,,,,sunbloeoiozwjjsiamp.jpg,,,,,,,,,,,,,,,
247,24,Memory,4,,,,,,,sunabbwggenhfbftyvi.jpg,,,,,,,,,,,,,,,
248,24,Memory,4,,,,,,,00987960627fa.jpg,,,,,,,,,,,,,,,
249,24,Memory,4,,,,,,,sunabwfvcqqidycwypa.jpg,,,,,,,,,,,,,,,
250,24,Presentation,5,00260940128fa_sunabgfhvifeijihhjw.jpg,00620940928fa_sunacypmnujalygkunp.jpg,00260940128fa.jpg,sunabgfhvifeijihhjw.jpg,00620940928fa.jpg,sunacypmnujalygkunp.jpg,,,>,Place,,,,,1,,,,,,,x
251,24,Presentation,5,00675941121fa_sunadoxcchtmsxewsau.jpg,00985960627fa_sunbgklxeqjhdbyfhhy.jpg,00675941121fa.jpg,sunadoxcchtmsxewsau.jpg,00985960627fa.jpg,sunbgklxeqjhdbyfhhy.jpg,,,>,Face,,,,,1,,,,,,,o
252,24,Presentation,5,00984960627fa_sunbfzchmomnvzhbxdg.jpg,00959960627fa_sunavxokzybtomhbmvm.jpg,00984960627fa.jpg,sunbfzchmomnvzhbxdg.jpg,00959960627fa.jpg,sunavxokzybtomhbmvm.jpg,,,>,Place,,,,,1,,,,,,,o
253,24,Presentation,5,00794960620fa_sunagtqhhwxjeuxdebe.jpg,00266940128fb_sunabkngeblodihjvbk.jpg,00794960620fa.jpg,sunagtqhhwxjeuxdebe.jpg,00266940128fb.jpg,sunabkngeblodihjvbk.jpg,,,<,Face,,,,,1,,,,,,,o
254,24,Presentation,5,00070940307fa_sunaaeplwsfslcbtojr.jpg,00540940519fa_sunacdnquypmsshhsbk.jpg,00070940307fa.jpg,sunaaeplwsfslcbtojr.jpg,00540940519fa.jpg,sunacdnquypmsshhsbk.jpg,,,<,Face,,,,,0,,,,,,,o
255,24,Presentation,5,00921960627fa_sunapqkpqdfvxlbqwyo.jpg,00878960530fa_sunakgbnzxmfohgehnu.jpg,00921960627fa.jpg,sunapqkpqdfvxlbqwyo.jpg,00878960530fa.jpg,sunakgbnzxmfohgehnu.jpg,,,>,Place,,,,,1,,,,,,,x
256,24,Presentation,5,00775941205fa_sunafvwfsmqkjrutjta.jpg,00880960530fa_sunakmnfgklupjijsgf.jpg,00775941205fa.jpg,sunafvwfsmqkjrutjta.jpg,00880960530fa.jpg,sunakmnfgklupjijsgf.jpg,,,<,Place,,,,,1,,,,,,,o
257,24,Presentation,5,00804960530fa_sunagwswhkvnsmuszlz.jpg,00862940307fa_sunaizgnnplsvajzhkc.jpg,00804960530fa.jpg,sunagwswhkvnsmuszlz.jpg,00862940307fa.jpg,sunaizgnnplsvajzhkc.jpg,,,<,Place,,,,,0,,,,,,,x
258,24,Presentation,5,00782941205fa_sunagfvluwixdsozaql.jpg,00961960627fa_sunawotxrevnqvamsfp.jpg,00782941205fa.jpg,sunagfvluwixdsozaql.jpg,00961960627fa.jpg,sunawotxrevnqvamsfp.jpg,,,>,Face,,,,,1,,,,,,,o
259,24,Presentation,5,00263940128fb_sunabjuovqvyfuzvqwt.jpg,00280940422fb_sunabohxbskznglnrhv.jpg,00263940128fb.jpg,sunabjuovqvyfuzvqwt.jpg,00280940422fb.jpg,sunabohxbskznglnrhv.jpg,,,<,Face,,,,,0,,,,,,,o
260,24,Memory,5,,,,,,,00675941121fa.jpg,,,,,,,,,,,,,,,
261,24,Memory,5,,,,,,,00880960530fa.jpg,,,,,,,,,,,,,,,
262,24,Memory,5,,,,,,,00280940422fb.jpg,,,,,,,,,,,,,,,
263,24,Memory,5,,,,,,,sunagtqhhwxjeuxdebe.jpg,,,,,,,,,,,,,,,
264,24,Memory,5,,,,,,,sunapqwoeotxshkukbh.jpg,,,,,,,,,,,,,,,
265,24,Memory,5,,,,,,,00620940928fa.jpg,,,,,,,,,,,,,,,
266,24,Memory,5,,,,,,,sunabgfhvifeijihhjw.jpg,,,,,,,,,,,,,,,
267,24,Memory,5,,,,,,,sunakmnfgklupjijsgf.jpg,,,,,,,,,,,,,,,
268,24,Memory,5,,,,,,,sunachtuarilwyqnvjx.jpg,,,,,,,,,,,,,,,
269,24,Memory,5,,,,,,,sunapqkpqdfvxlbqwyo.jpg,,,,,,,,,,,,,,,
270,24,Memory,5,,,,,,,00581940928fa.jpg,,,,,,,,,,,,,,,
271,24,Memory,5,,,,,,,00966960627fa.jpg,,,,,,,,,,,,,,,
272,24,Memory,5,,,,,,,00208940128fa.jpg,,,,,,,,,,,,,,,
273,24,Memory,5,,,,,,,00794960620fa.jpg,,,,,,,,,,,,,,,
274,24,Memory,5,,,,,,,sunaawsdjisukbbginm.jpg,,,,,,,,,,,,,,,
275,24,Memory,5,,,,,,,00926960627Fa.jpg,,,,,,,,,,,,,,,
276,24,Memory,5,,,,,,,00191940128fb.jpg,,,,,,,,,,,,,,,
277,24,Memory,5,,,,,,,00260940128fa.jpg,,,,,,,,,,,,,,,
278,24,Memory,5,,,,,,,sunadoxcchtmsxewsau.jpg,,,,,,,,,,,,,,,
279,24,Memory,5,,,,,,,sunafkmnlytenlsywia.jpg,,,,,,,,,,,,,,,
280,24,Memory,5,,,,,,,00857940307fa.jpg,,,,,,,,,,,,,,,
281,24,Memory,5,,,,,,,sunaazzyhbvqjpmazjq.jpg,,,,,,,,,,,,,,,
282,24,Memory,5,,,,,,,00959960627fa.jpg,,,,,,,,,,,,,,,
283,24,Memory,5,,,,,,,sunabohxbskznglnrhv.jpg,,,,,,,,,,,,,,,
284,24,Memory,5,,,,,,,sunacypmnujalygkunp.jpg,,,,,,,,,,,,,,,
285,24,Memory,5,,,,,,,00266940128fb.jpg,,,,,,,,,,,,,,,
286,24,Memory,5,,,,,,,sunagfvluwixdsozaql.jpg,,,,,,,,,,,,,,,
287,24,Memory,5,,,,,,,sunaiwfobocrruqznsv.jpg,,,,,,,,,,,,,,,
288,24,Memory,5,,,,,,,sunahqrxievfeusiqlt.jpg,,,,,,,,,,,,,,,
289,24,Memory,5,,,,,,,sunaygrtwrwfezqjizr.jpg,,,,,,,,,,,,,,,
290,24,Memory,5,,,,,,,00768941205fa.jpg,,,,,,,,,,,,,,,
291,24,Memory,5,,,,,,,00921960627fa.jpg,,,,,,,,,,,,,,,
292,24,Memory,5,,,,,,,sunacvzhvcksnwqcqbw.jpg,,,,,,,,,,,,,,,
293,24,Memory,5,,,,,,,00822940307fa.jpg,,,,,,,,,,,,,,,
294,24,Memory,5,,,,,,,sunajbwkywmsqkldfml.jpg,,,,,,,,,,,,,,,
295,24,Memory,5,,,,,,,00866940307fa.jpg,,,,,,,,,,,,,,,
296,24,Memory,5,,,,,,,sunabkngeblodihjvbk.jpg,,,,,,,,,,,,,,,
297,24,Memory,5,,,,,,,sunavxokzybtomhbmvm.jpg,,,,,,,,,,,,,,,
298,24,Memory,5,,,,,,,00557940519fa.jpg,,,,,,,,,,,,,,,
299,24,Memory,5,,,,,,,00782941205fa.jpg,,,,,,,,,,,,,,,
300,24,Presentation,6,01004960627fa_sunbwtlihsuptkrckid.jpg,00663941121fa_sunadnjjzohjhbohlwq.jpg,01004960627fa.jpg,sunbwtlihsuptkrckid.jpg,00663941121fa.jpg,sunadnjjzohjhbohlwq.jpg,,,<,Face,,,,,0,,,,,,,o
301,24,Presentation,6,00977960627fa_sunbbxkanhzjgbwyxqs.jpg,00061931230fb_sunaaekxzjzrfgtkwjf.jpg,00977960627fa.jpg,sunbbxkanhzjgbwyxqs.jpg,00061931230fb.jpg,sunaaekxzjzrfgtkwjf.jpg,,,>,Face,,,,,1,,,,,,,o
302,24,Presentation,6,00306940422fa_sunabueyoajufbkraki.jpg,00647941031fa_sunadflbrkckmepztql.jpg,00306940422fa.jpg,sunabueyoajufbkraki.jpg,00647941031fa.jpg,sunadflbrkckmepztql.jpg,,,<,Face,,,,,1,,,,,,,o
303,24,Presentation,6,00989960627fa_sunbondbduabvijnmch.jpg,00108960530fa_sunaajtnvzzpsjdzres.jpg,00989960627fa.jpg,sunbondbduabvijnmch.jpg,00108960530fa.jpg,sunaajtnvzzpsjdzres.jpg,,,<,Place,,,,,1,,,,,,,x
304,24,Presentation,6,00630941031fa_sunadakkdovnuzlycvp.jpg,00197940128fa_sunaaylzyqlqrsmfwif.jpg,00630941031fa.jpg,sunadakkdovnuzlycvp.jpg,00197940128fa.jpg,sunaaylzyqlqrsmfwif.jpg,,,>,Place,,,,,1,,,,,,,x
305,24,Presentation,6,00978960627fa_sunbddbivbptlrlauhy.jpg,00839940307fa_sunaipyohrqlwngaqif.jpg,00978960627fa.jpg,sunbddbivbptlrlauhy.jpg,00839940307fa.jpg,sunaipyohrqlwngaqif.jpg,,,<,Face,,,,,1,,,,,,,x
306,24,Presentation,6,00913960530fa_sunaooffzffbhcpirmm.jpg,00950960627fa_sunasrjlmglmjzbmqxb.jpg,00913960530fa.jpg,sunaooffzffbhcpirmm.jpg,00950960627fa.jpg,sunasrjlmglmjzbmqxb.jpg,,,<,Place,,,,,1,,,,,,,x
307,24,Presentation,6,00777941205fa_sunagcinxkccdtrjmlv.jpg,00129931230fb_sunaamsdyakblkfoydx.jpg,00777941205fa.jpg,sunagcinxkccdtrjmlv.jpg,00129931230fb.jpg,sunaamsdyakblkfoydx.jpg,,,>,Place,,,,,1,,,,,,,x
308,24,Presentation,6,01005960627fa_sunbwyuesflwdpqtgoy.jpg,00819940307fa_sunahqldjibofgsfdgb.jpg,01005960627fa.jpg,sunbwyuesflwdpqtgoy.jpg,00819940307fa.jpg,sunahqldjibofgsfdgb.jpg,,,>,Place,,,,,1,,,,,,,o
309,24,Presentation,6,00559940519fa_sunacjkmnpawfzbyvae.jpg,00146960620fb_sunaatpeezlljqaxlhj.jpg,00559940519fa.jpg,sunacjkmnpawfzbyvae.jpg,00146960620fb.jpg,sunaatpeezlljqaxlhj.jpg,,,>,Face,,,,,1,,,,,,,o
310,24,Memory,6,,,,,,,00963960627fa.jpg,,,,,,,,,,,,,,,
311,24,Memory,6,,,,,,,sunaakjaacuzulqckgl.jpg,,,,,,,,,,,,,,,
312,24,Memory,6,,,,,,,00989960627fa.jpg,,,,,,,,,,,,,,,
313,24,Memory,6,,,,,,,00913960530fa.jpg,,,,,,,,,,,,,,,
314,24,Memory,6,,,,,,,00108960530fa.jpg,,,,,,,,,,,,,,,
315,24,Memory,6,,,,,,,00061931230fb.jpg,,,,,,,,,,,,,,,
316,24,Memory,6,,,,,,,sunbvbrvgbpanfrawft.jpg,,,,,,,,,,,,,,,
317,24,Memory,6,,,,,,,sunaooffzffbhcpirmm.jpg,,,,,,,,,,,,,,,
318,24,Memory,6,,,,,,,sunagcinxkccdtrjmlv.jpg,,,,,,,,,,,,,,,
319,24,Memory,6,,,,,,,00742941201fa.jpg,,,,,,,,,,,,,,,
320,24,Memory,6,,,,,,,00564941031fa.jpg,,,,,,,,,,,,,,,
321,24,Memory,6,,,,,,,sunagrmyoovzukhxmlo.jpg,,,,,,,,,,,,,,,
322,24,Memory,6,,,,,,,00791941205fa.jpg,,,,,,,,,,,,,,,
323,24,Memory,6,,,,,,,00647941031fa.jpg,,,,,,,,,,,,,,,
324,24,Memory,6,,,,,,,sunadakkdovnuzlycvp.jpg,,,,,,,,,,,,,,,
325,24,Memory,6,,,,,,,00227940128fa.jpg,,,,,,,,,,,,,,,
326,24,Memory,6,,,,,,,sunaenwuebvlpdmntju.jpg,,,,,,,,,,,,,,,
327,24,Memory,6,,,,,,,00096931230fa.jpg,,,,,,,,,,,,,,,
328,24,Memory,6,,,,,,,sunaaekxzjzrfgtkwjf.jpg,,,,,,,,,,,,,,,
329,24,Memory,6,,,,,,,00131931230fb.jpg,,,,,,,,,,,,,,,
330,24,Memory,6,,,,,,,00112931230fa.jpg,,,,,,,,,,,,,,,
331,24,Memory,6,,,,,,,sunabyfxcxhdebvdyfd.jpg,,,,,,,,,,,,,,,
332,24,Memory,6,,,,,,,sunbondbduabvijnmch.jpg,,,,,,,,,,,,,,,
333,24,Memory,6,,,,,,,00482940519fa.jpg,,,,,,,,,,,,,,,
334,24,Memory,6,,,,,,,sunadflbrkckmepztql.jpg,,,,,,,,,,,,,,,
335,24,Memory,6,,,,,,,sunaajtnvzzpsjdzres.jpg,,,,,,,,,,,,,,,
336,24,Memory,6,,,,,,,00819940307fa.jpg,,,,,,,,,,,,,,,
337,24,Memory,6,,,,,,,sunayaepykrqvenaqqy.jpg,,,,,,,,,,,,,,,
338,24,Memory,6,,,,,,,sunabckqabszusgcykj.jpg,,,,,,,,,,,,,,,
339,24,Memory,6,,,,,,,00999960627fa.jpg,,,,,,,,,,,,,,,
340,24,Memory,6,,,,,,,00978960627fa.jpg,,,,,,,,,,,,,,,
341,24,Memory,6,,,,,,,sunacsaovnjezqwbykf.jpg,,,,,,,,,,,,,,,
342,24,Memory,6,,,,,,,sunaaiqiqcggrskoqgy.jpg,,,,,,,,,,,,,,,
343,24,Memory,6,,,,,,,sunaangbuylfvckqqoo.jpg,,,,,,,,,,,,,,,
344,24,Memory,6,,,,,,,sunbddbivbptlrlauhy.jpg,,,,,,,,,,,,,,,
345,24,Memory,6,,,,,,,00663941121fa.jpg,,,,,,,,,,,,,,,
346,24,Memory,6,,,,,,,00630941031fa.jpg,,,,,,,,,,,,,,,
347,24,Memory,6,,,,,,,sunadnjjzohjhbohlwq.jpg,,,,,,,,,,,,,,,
348,24,Memory,6,,,,,,,00777941205fa.jpg,,,,,,,,,,,,,,,
349,24,Memory,6,,,,,,,sunahqldjibofgsfdgb.jpg,,,,,,,,,,,,,,,
350,24,Presentation,7,00529940519fa_sunacbeefkxpymwevpk.jpg,00900960530fa_sunamlotskmmsjeogby.jpg,00529940519fa.jpg,sunacbeefkxpymwevpk.jpg,00900960530fa.jpg,sunamlotskmmsjeogby.jpg,,,<,Face,,,,,1,,,,,,,x
351,24,Presentation,7,00109931230fa_sunaajuzribjrizdshh.jpg,00952960627fa_sunathzzbcwjykldrem.jpg,00109931230fa.jpg,sunaajuzribjrizdshh.jpg,00952960627fa.jpg,sunathzzbcwjykldrem.jpg,,,<,Face,,,,,0,,,,,,,o
352,24,Presentation,7,00162931230fb_sunaavjinpnkappuonm.jpg,00095931230fa_sunaahzooisqkwlxwoz.jpg,00162931230fb.jpg,sunaavjinpnkappuonm.jpg,00095931230fa.jpg,sunaahzooisqkwlxwoz.jpg,,,<,Face,,,,,1,,,,,,,x
353,24,Presentation,7,00730960620fa_sunaekgzpfilgjxpeyq.jpg,00763941205fa_sunafhmnhsdurlvddpw.jpg,00730960620fa.jpg,sunaekgzpfilgjxpeyq.jpg,00763941205fa.jpg,sunafhmnhsdurlvddpw.jpg,,,>,Place,,,,,1,,,,,,,x
354,24,Presentation,7,00235940128fb_sunabclssnoeuigtawp.jpg,00302940422fa_sunabtlfmiwtljmoues.jpg,00235940128fb.jpg,sunabclssnoeuigtawp.jpg,00302940422fa.jpg,sunabtlfmiwtljmoues.jpg,,,<,Place,,,,,1,,,,,,,o
355,24,Presentation,7,00564940928fa_sunacmpqqfbsvlzinzl.jpg,00774941201fa_sunafvtpfczkzopbgue.jpg,00564940928fa.jpg,sunacmpqqfbsvlzinzl.jpg,00774941201fa.jpg,sunafvtpfczkzopbgue.jpg,,,>,Face,,,,,1,,,,,,,o
356,24,Presentation,7,00871940307_sunajrujcsdxmfbssmc.jpg,00193940928fa_sunaaxjpzcnxligjtjq.jpg,00871940307.jpg,sunajrujcsdxmfbssmc.jpg,00193940928fa.jpg,sunaaxjpzcnxligjtjq.jpg,,,>,Place,,,,,1,,,,,,,x
357,24,Presentation,7,00911960530fa_sunaooaqzputrowwbsw.jpg,00133931230fa_sunaanlwnpqndclffxt.jpg,00911960530fa.jpg,sunaooaqzputrowwbsw.jpg,00133931230fa.jpg,sunaanlwnpqndclffxt.jpg,,,>,Place,,,,,1,,,,,,,x
358,24,Presentation,7,00809960620fa_sunahbvlpavurqoxdeq.jpg,00093931230fa_sunaahwnmtqsrhocysw.jpg,00809960620fa.jpg,sunahbvlpavurqoxdeq.jpg,00093931230fa.jpg,sunaahwnmtqsrhocysw.jpg,,,>,Face,,,,,1,,,,,,,x
359,24,Presentation,7,00773960620fa_sunafvsxtzaizojicxx.jpg,00111931230fb_sunaakgekhjklxmvulj.jpg,00773960620fa.jpg,sunafvsxtzaizojicxx.jpg,00111931230fb.jpg,sunaakgekhjklxmvulj.jpg,,,<,Place,,,,,1,,,,,,,x
360,24,Memory,7,,,,,,,sunacbeefkxpymwevpk.jpg,,,,,,,,,,,,,,,
361,24,Memory,7,,,,,,,00093931230fa.jpg,,,,,,,,,,,,,,,
362,24,Memory,7,,,,,,,sunathzzbcwjykldrem.jpg,,,,,,,,,,,,,,,
363,24,Memory,7,,,,,,,00902960530fa.jpg,,,,,,,,,,,,,,,
364,24,Memory,7,,,,,,,sunamlotskmmsjeogby.jpg,,,,,,,,,,,,,,,
365,24,Memory,7,,,,,,,sunabyvpwkgsjtijdwj.jpg,,,,,,,,,,,,,,,
366,24,Memory,7,,,,,,,sunaqsolmfydodnakub.jpg,,,,,,,,,,,,,,,
367,24,Memory,7,,,,,,,01007960627fa.jpg,,,,,,,,,,,,,,,
368,24,Memory,7,,,,,,,sunabclssnoeuigtawp.jpg,,,,,,,,,,,,,,,
369,24,Memory,7,,,,,,,sunahbvlpavurqoxdeq.jpg,,,,,,,,,,,,,,,
370,24,Memory,7,,,,,,,00235940128fb.jpg,,,,,,,,,,,,,,,
371,24,Memory,7,,,,,,,00836940307fa.jpg,,,,,,,,,,,,,,,
372,24,Memory,7,,,,,,,sunaapxkpvrhpjplsok.jpg,,,,,,,,,,,,,,,
373,24,Memory,7,,,,,,,00109931230fa.jpg,,,,,,,,,,,,,,,
374,24,Memory,7,,,,,,,00483940519fa.jpg,,,,,,,,,,,,,,,
375,24,Memory,7,,,,,,,00730960620fa.jpg,,,,,,,,,,,,,,,
376,24,Memory,7,,,,,,,sunamczizlzavhzhpay.jpg,,,,,,,,,,,,,,,
377,24,Memory,7,,,,,,,00098931230fa.jpg,,,,,,,,,,,,,,,
378,24,Memory,7,,,,,,,00952960627fa.jpg,,,,,,,,,,,,,,,
379,24,Memory,7,,,,,,,00095931230fa.jpg,,,,,,,,,,,,,,,
380,24,Memory,7,,,,,,,00900960530fa.jpg,,,,,,,,,,,,,,,
381,24,Memory,7,,,,,,,sunaekgzpfilgjxpeyq.jpg,,,,,,,,,,,,,,,
382,24,Memory,7,,,,,,,00895960530fa.jpg,,,,,,,,,,,,,,,
383,24,Memory,7,,,,,,,sunaahwnmtqsrhocysw.jpg,,,,,,,,,,,,,,,
384,24,Memory,7,,,,,,,sunaajuzribjrizdshh.jpg,,,,,,,,,,,,,,,
385,24,Memory,7,,,,,,,sunanaacmmosxrfwmvl.jpg,,,,,,,,,,,,,,,
386,24,Memory,7,,,,,,,sunainqelldeebvxtcz.jpg,,,,,,,,,,,,,,,
387,24,Memory,7,,,,,,,00809960620fa.jpg,,,,,,,,,,,,,,,
388,24,Memory,7,,,,,,,sunabeyhmxodahoieyk.jpg,,,,,,,,,,,,,,,
389,24,Memory,7,,,,,,,sunaaxjpzcnxligjtjq.jpg,,,,,,,,,,,,,,,
390,24,Memory,7,,,,,,,00529940519fa.jpg,,,,,,,,,,,,,,,
391,24,Memory,7,,,,,,,sunbxarcshsnqsefemx.jpg,,,,,,,,,,,,,,,
392,24,Memory,7,,,,,,,00245940128fa.jpg,,,,,,,,,,,,,,,
393,24,Memory,7,,,,,,,00142931230fb.jpg,,,,,,,,,,,,,,,
394,24,Memory,7,,,,,,,00193940928fa.jpg,,,,,,,,,,,,,,,
395,24,Memory,7,,,,,,,sunbvzmgrdvaakxusbu.jpg,,,,,,,,,,,,,,,
396,24,Memory,7,,,,,,,sunaahzooisqkwlxwoz.jpg,,,,,,,,,,,,,,,
397,24,Memory,7,,,,,,,00937960627fa.jpg,,,,,,,,,,,,,,,
398,24,Memory,7,,,,,,,01000960627fa.jpg,,,,,,,,,,,,,,,
399,24,Memory,7,,,,,,,sunaajpqmulidejvjsr.jpg,,,,,,,,,,,,,,,
