,Subject,Trial Type,Run,Cued Composite,Uncued Composite,Cued Face,Cued Place,Uncued Face,Uncued Place,Memory Image,Category,Cued Side,Cued Category,Attention Reaction Time (s),Familiarity Reaction Time (s),Familiarity Rating,Attention Level,Cue Validity,Post Invalid Cue,Pre Invalid Cue,Attention Button,Rating History,Stimulus Onset,Stimulus End,Attention Probe
0,36,Presentation,0,00073931230fa_sunaafbmtoniaasysgu.jpg,00185940422fb_sunaawqdbpihmlbwyyn.jpg,00073931230fa.jpg,sunaafbmtoniaasysgu.jpg,00185940422fb.jpg,sunaawqdbpihmlbwyyn.jpg,,,>,Place,,,,,1,,,,,,,o
1,36,Presentation,0,00746941201fa_sunaetydippjxikifsb.jpg,00198940128fb_sunaazezcsunmhttzxz.jpg,00746941201fa.jpg,sunaetydippjxikifsb.jpg,00198940128fb.jpg,sunaazezcsunmhttzxz.jpg,,,>,Place,,,,,1,,,,,,,x
2,36,Presentation,0,00262940128fa_sunabizydfotqddlnjp.jpg,00089931230fa_sunaagcpoejbuzyvddd.jpg,00262940128fa.jpg,sunabizydfotqddlnjp.jpg,00089931230fa.jpg,sunaagcpoejbuzyvddd.jpg,,,>,Place,,,,,1,,,,,,,x
3,36,Presentation,0,00985960627fa_sunbgklxeqjhdbyfhhy.jpg,00795941205fa_sunagtumacdlmciqamz.jpg,00985960627fa.jpg,sunbgklxeqjhdbyfhhy.jpg,00795941205fa.jpg,sunagtumacdlmciqamz.jpg,,,>,Place,,,,,1,,,,,,,x
4,36,Presentation,0,00116931230fa_sunaakqepfoeqomfgxf.jpg,00983960627fa_sunbfyvfqiimvdaxlqn.jpg,00116931230fa.jpg,sunaakqepfoeqomfgxf.jpg,00983960627fa.jpg,sunbfyvfqiimvdaxlqn.jpg,,,>,Place,,,,,0,,,,,,,x
5,36,Presentation,0,00120931230fa_sunaakxgygjfqrzpyoz.jpg,00848940307fa_sunaivdylrawbmhryfp.jpg,00120931230fa.jpg,sunaakxgygjfqrzpyoz.jpg,00848940307fa.jpg,sunaivdylrawbmhryfp.jpg,,,>,Place,,,,,1,,,,,,,x
6,36,Presentation,0,00149931230fa_sunaauglwmctnkxyird.jpg,00313940422fa_sunabwjvmoaddlyxfjr.jpg,00149931230fa.jpg,sunaauglwmctnkxyird.jpg,00313940422fa.jpg,sunabwjvmoaddlyxfjr.jpg,,,>,Place,,,,,1,,,,,,,o
7,36,Presentation,0,00609940928fa_sunacycdoztxoluxjyk.jpg,00227940128fa_sunabckqabszusgcykj.jpg,00609940928fa.jpg,sunacycdoztxoluxjyk.jpg,00227940128fa.jpg,sunabckqabszusgcykj.jpg,,,>,Place,,,,,1,,,,,,,x
8,36,Presentation,0,00922960627fa_sunapqkyghktgtosuuk.jpg,00092931230fa_sunaaheqzstzxuadglu.jpg,00922960627fa.jpg,sunapqkyghktgtosuuk.jpg,00092931230fa.jpg,sunaaheqzstzxuadglu.jpg,,,>,Place,,,,,1,,,,,,,x
9,36,Presentation,0,00869940307fa_sunajoveqhiprwqgoco.jpg,00564941031fa_sunacsaovnjezqwbykf.jpg,00869940307fa.jpg,sunajoveqhiprwqgoco.jpg,00564941031fa.jpg,sunacsaovnjezqwbykf.jpg,,,>,Place,,,,,1,,,,,,,x
10,36,Memory,0,,,,,,,sunaetydippjxikifsb.jpg,,,,,,,,,,,,,,,
11,36,Memory,0,,,,,,,sunaivdylrawbmhryfp.jpg,,,,,,,,,,,,,,,
12,36,Memory,0,,,,,,,sunabrjdpmoedcdjbpo.jpg,,,,,,,,,,,,,,,
13,36,Memory,0,,,,,,,00292940422fb.jpg,,,,,,,,,,,,,,,
14,36,Memory,0,,,,,,,sunagcthdfirrcawoic.jpg,,,,,,,,,,,,,,,
15,36,Memory,0,,,,,,,00943960627fa.jpg,,,,,,,,,,,,,,,
16,36,Memory,0,,,,,,,00746941201fa.jpg,,,,,,,,,,,,,,,
17,36,Memory,0,,,,,,,sunaakqepfoeqomfgxf.jpg,,,,,,,,,,,,,,,
18,36,Memory,0,,,,,,,00848940307fa.jpg,,,,,,,,,,,,,,,
19,36,Memory,0,,,,,,,00778941205fa.jpg,,,,,,,,,,,,,,,
20,36,Memory,0,,,,,,,sunaaheqzstzxuadglu.jpg,,,,,,,,,,,,,,,
21,36,Memory,0,,,,,,,00869940307fa.jpg,,,,,,,,,,,,,,,
22,36,Memory,0,,,,,,,00960960627fa.jpg,,,,,,,,,,,,,,,
23,36,Memory,0,,,,,,,sunakgbnzxmfohgehnu.jpg,,,,,,,,,,,,,,,
24,36,Memory,0,,,,,,,00807941205fa.jpg,,,,,,,,,,,,,,,
25,36,Memory,0,,,,,,,00878960530fa.jpg,,,,,,,,,,,,,,,
26,36,Memory,0,,,,,,,00120931230fa.jpg,,,,,,,,,,,,,,,
27,36,Memory,0,,,,,,,01007960627fa.jpg,,,,,,,,,,,,,,,
28,36,Memory,0,,,,,,,sunabkmdplkdbvxriff.jpg,,,,,,,,,,,,,,,
29,36,Memory,0,,,,,,,sunarpsxqkduedrrzyi.jpg,,,,,,,,,,,,,,,
30,36,Memory,0,,,,,,,00149931230fa.jpg,,,,,,,,,,,,,,,
31,36,Memory,0,,,,,,,00313940422fa.jpg,,,,,,,,,,,,,,,
32,36,Memory,0,,,,,,,sunaakxgygjfqrzpyoz.jpg,,,,,,,,,,,,,,,
33,36,Memory,0,,,,,,,00198940128fb.jpg,,,,,,,,,,,,,,,
34,36,Memory,0,,,,,,,00116931230fa.jpg,,,,,,,,,,,,,,,
35,36,Memory,0,,,,,,,00630941031fa.jpg,,,,,,,,,,,,,,,
36,36,Memory,0,,,,,,,sunaazezcsunmhttzxz.jpg,,,,,,,,,,,,,,,
37,36,Memory,0,,,,,,,sunahawfngukizslzsd.jpg,,,,,,,,,,,,,,,
38,36,Memory,0,,,,,,,sunaauglwmctnkxyird.jpg,,,,,,,,,,,,,,,
39,36,Memory,0,,,,,,,sunabckqabszusgcykj.jpg,,,,,,,,,,,,,,,
40,36,Memory,0,,,,,,,00092931230fa.jpg,,,,,,,,,,,,,,,
41,36,Memory,0,,,,,,,sunadpnqovzckyikrjo.jpg,,,,,,,,,,,,,,,
42,36,Memory,0,,,,,,,sunawksfbacycuhbrsc.jpg,,,,,,,,,,,,,,,
43,36,Memory,0,,,,,,,sunbxarcshsnqsefemx.jpg,,,,,,,,,,,,,,,
44,36,Memory,0,,,,,,,sunadakkdovnuzlycvp.jpg,,,,,,,,,,,,,,,
45,36,Memory,0,,,,,,,00227940128fa.jpg,,,,,,,,,,,,,,,
46,36,Memory,0,,,,,,,sunajoveqhiprwqgoco.jpg,,,,,,,,,,,,,,,
47,36,Memory,0,,,,,,,00265940128fb.jpg,,,,,,,,,,,,,,,
48,36,Memory,0,,,,,,,sunabwjvmoaddlyxfjr.jpg,,,,,,,,,,,,,,,
49,36,Memory,0,,,,,,,00676941121fa.jpg,,,,,,,,,,,,,,,
50,36,Presentation,1,00982960627fa_sunbesrwkdsffeogeqq.jpg,00788941205fa_sunagountlxpzkytsmp.jpg,00982960627fa.jpg,sunbesrwkdsffeogeqq.jpg,00788941205fa.jpg,sunagountlxpzkytsmp.jpg,,,<,Place,,,,,1,,,,,,,x
51,36,Presentation,1,00288940422fa_sunabppokiyglaxpcha.jpg,00931960627fa_sunaptrqvaooxfvktvw.jpg,00288940422fa.jpg,sunabppokiyglaxpcha.jpg,00931960627fa.jpg,sunaptrqvaooxfvktvw.jpg,,,<,Place,,,,,1,,,,,,,x
52,36,Presentation,1,00990960627fa_sunbpflsdaxnddnwcqi.jpg,00874940307fa_sunajtrfunvzdfticna.jpg,00990960627fa.jpg,sunbpflsdaxnddnwcqi.jpg,00874940307fa.jpg,sunajtrfunvzdfticna.jpg,,,<,Place,,,,,1,,,,,,,x
53,36,Presentation,1,00847940307fa_sunaivdjruhkrfywfed.jpg,00811960530fa_sunahedfrhtcwpneund.jpg,00847940307fa.jpg,sunaivdjruhkrfywfed.jpg,00811960530fa.jpg,sunahedfrhtcwpneund.jpg,,,<,Place,,,,,1,,,,,,,o
54,36,Presentation,1,00786941205fa_sunagmhildamktmqjss.jpg,00787960620fa_sunagoufulkpsxrmklt.jpg,00786941205fa.jpg,sunagmhildamktmqjss.jpg,00787960620fa.jpg,sunagoufulkpsxrmklt.jpg,,,<,Place,,,,,1,,,,,,,x
55,36,Presentation,1,00071940128fa_sunaaexpnawiehinlpy.jpg,00835940307fa_sunaijsqpvodplbwxkf.jpg,00071940128fa.jpg,sunaaexpnawiehinlpy.jpg,00835940307fa.jpg,sunaijsqpvodplbwxkf.jpg,,,<,Place,,,,,1,,,,,,,x
56,36,Presentation,1,00944960627fa_sunasbbntuiheekqyaq.jpg,00209940128fb_sunabaergayifsgacxt.jpg,00944960627fa.jpg,sunasbbntuiheekqyaq.jpg,00209940128fb.jpg,sunabaergayifsgacxt.jpg,,,<,Place,,,,,1,,,,,,,o
57,36,Presentation,1,00705941205fa_sunadtlxenqqxsyjvix.jpg,00719960620fa_sunadzuvtmtmgupotmf.jpg,00705941205fa.jpg,sunadtlxenqqxsyjvix.jpg,00719960620fa.jpg,sunadzuvtmtmgupotmf.jpg,,,<,Place,,,,,1,,,,,,,x
58,36,Presentation,1,00919960620fa_sunapmfmzadmosuogaz.jpg,00648941031fa_sunadfndyrtqqiasoig.jpg,00919960620fa.jpg,sunapmfmzadmosuogaz.jpg,00648941031fa.jpg,sunadfndyrtqqiasoig.jpg,,,<,Place,,,,,1,,,,,,,x
59,36,Presentation,1,00796941205fa_sunaguchqqnrtodtezq.jpg,00989960627fa_sunbondbduabvijnmch.jpg,00796941205fa.jpg,sunaguchqqnrtodtezq.jpg,00989960627fa.jpg,sunbondbduabvijnmch.jpg,,,<,Place,,,,,1,,,,,,,x
60,36,Memory,1,,,,,,,sunaijsqpvodplbwxkf.jpg,,,,,,,,,,,,,,,
61,36,Memory,1,,,,,,,00796941205fa.jpg,,,,,,,,,,,,,,,
62,36,Memory,1,,,,,,,00847940307fa.jpg,,,,,,,,,,,,,,,
63,36,Memory,1,,,,,,,sunaahedjlmtqekgyvj.jpg,,,,,,,,,,,,,,,
64,36,Memory,1,,,,,,,sunaivdjruhkrfywfed.jpg,,,,,,,,,,,,,,,
65,36,Memory,1,,,,,,,sunadfktsqjthoglcsm.jpg,,,,,,,,,,,,,,,
66,36,Memory,1,,,,,,,sunabaergayifsgacxt.jpg,,,,,,,,,,,,,,,
67,36,Memory,1,,,,,,,00931960627fa.jpg,,,,,,,,,,,,,,,
68,36,Memory,1,,,,,,,sunaauhozyxzeeqstxi.jpg,,,,,,,,,,,,,,,
69,36,Memory,1,,,,,,,sunabyfxcxhdebvdyfd.jpg,,,,,,,,,,,,,,,
70,36,Memory,1,,,,,,,sunagvjurcwdbixvnyi.jpg,,,,,,,,,,,,,,,
71,36,Memory,1,,,,,,,sunacjnahdmqfnjfwqx.jpg,,,,,,,,,,,,,,,
72,36,Memory,1,,,,,,,00794960620fa.jpg,,,,,,,,,,,,,,,
73,36,Memory,1,,,,,,,00090931230fa.jpg,,,,,,,,,,,,,,,
74,36,Memory,1,,,,,,,00638941031fa.jpg,,,,,,,,,,,,,,,
75,36,Memory,1,,,,,,,sunasbbntuiheekqyaq.jpg,,,,,,,,,,,,,,,
76,36,Memory,1,,,,,,,sunadzuvtmtmgupotmf.jpg,,,,,,,,,,,,,,,
77,36,Memory,1,,,,,,,sunammbnoambmhdxdwd.jpg,,,,,,,,,,,,,,,
78,36,Memory,1,,,,,,,00828940307fa.jpg,,,,,,,,,,,,,,,
79,36,Memory,1,,,,,,,00071940128fa.jpg,,,,,,,,,,,,,,,
80,36,Memory,1,,,,,,,00719960620fa.jpg,,,,,,,,,,,,,,,
81,36,Memory,1,,,,,,,00901960530fa.jpg,,,,,,,,,,,,,,,
82,36,Memory,1,,,,,,,00562941031fa.jpg,,,,,,,,,,,,,,,
83,36,Memory,1,,,,,,,00835940307fa.jpg,,,,,,,,,,,,,,,
84,36,Memory,1,,,,,,,sunbpflsdaxnddnwcqi.jpg,,,,,,,,,,,,,,,
85,36,Memory,1,,,,,,,sunagtqhhwxjeuxdebe.jpg,,,,,,,,,,,,,,,
86,36,Memory,1,,,,,,,00944960627fa.jpg,,,,,,,,,,,,,,,
87,36,Memory,1,,,,,,,00787960620fa.jpg,,,,,,,,,,,,,,,
88,36,Memory,1,,,,,,,sunagoufulkpsxrmklt.jpg,,,,,,,,,,,,,,,
89,36,Memory,1,,,,,,,00098931230fa.jpg,,,,,,,,,,,,,,,
90,36,Memory,1,,,,,,,sunahuynahneraqftyz.jpg,,,,,,,,,,,,,,,
91,36,Memory,1,,,,,,,sunaaexpnawiehinlpy.jpg,,,,,,,,,,,,,,,
92,36,Memory,1,,,,,,,00800941205fb.jpg,,,,,,,,,,,,,,,
93,36,Memory,1,,,,,,,00990960627fa.jpg,,,,,,,,,,,,,,,
94,36,Memory,1,,,,,,,00209940128fb.jpg,,,,,,,,,,,,,,,
95,36,Memory,1,,,,,,,sunaajpqmulidejvjsr.jpg,,,,,,,,,,,,,,,
96,36,Memory,1,,,,,,,00482940519fa.jpg,,,,,,,,,,,,,,,
97,36,Memory,1,,,,,,,00153931230fa.jpg,,,,,,,,,,,,,,,
98,36,Memory,1,,,,,,,sunaguchqqnrtodtezq.jpg,,,,,,,,,,,,,,,
99,36,Memory,1,,,,,,,sunaptrqvaooxfvktvw.jpg,,,,,,,,,,,,,,,
100,36,Presentation,2,00070940307fa_sunaaeplwsfslcbtojr.jpg,00564940928fa_sunacmpqqfbsvlzinzl.jpg,00070940307fa.jpg,sunaaeplwsfslcbtojr.jpg,00564940928fa.jpg,sunacmpqqfbsvlzinzl.jpg,,,<,Place,,,,,1,,,,,,,o
101,36,Presentation,2,00694941121fa_sunadrmfzmstgdjdcod.jpg,00915960620fa_sunapileznnbbmrwoei.jpg,00694941121fa.jpg,sunadrmfzmstgdjdcod.jpg,00915960620fa.jpg,sunapileznnbbmrwoei.jpg,,,<,Place,,,,,0,,,,,,,o
102,36,Presentation,2,00559940519fa_sunacjkmnpawfzbyvae.jpg,00787941205fa_sunagmwxxwymwojbvgi.jpg,00559940519fa.jpg,sunacjkmnpawfzbyvae.jpg,00787941205fa.jpg,sunagmwxxwymwojbvgi.jpg,,,<,Place,,,,,1,,,,,,,o
103,36,Presentation,2,00650941031fa_sunadikxpvqeabxrvvc.jpg,00785941205fa_sunaglqunwuycxydmyu.jpg,00650941031fa.jpg,sunadikxpvqeabxrvvc.jpg,00785941205fa.jpg,sunaglqunwuycxydmyu.jpg,,,<,Place,,,,,1,,,,,,,x
104,36,Presentation,2,01003960627fb_sunbwdrdvsweerwsdrj.jpg,00743941201fa_sunaeoghzrjarigmwua.jpg,01003960627fb.jpg,sunbwdrdvsweerwsdrj.jpg,00743941201fa.jpg,sunaeoghzrjarigmwua.jpg,,,<,Place,,,,,1,,,,,,,x
105,36,Presentation,2,00894960620fa_sunalqmfgeadpqsyzpd.jpg,00096931230fa_sunaaiqiqcggrskoqgy.jpg,00894960620fa.jpg,sunalqmfgeadpqsyzpd.jpg,00096931230fa.jpg,sunaaiqiqcggrskoqgy.jpg,,,<,Place,,,,,1,,,,,,,o
106,36,Presentation,2,00779941205fa_sunagdzlvkqtpnfxfcg.jpg,00760960620fa_sunaffstbkappprzxnv.jpg,00779941205fa.jpg,sunagdzlvkqtpnfxfcg.jpg,00760960620fa.jpg,sunaffstbkappprzxnv.jpg,,,<,Place,,,,,0,,,,,,,o
107,36,Presentation,2,00543940519fa_sunacepzfrmtkiqonpy.jpg,00112931230fa_sunaakjaacuzulqckgl.jpg,00543940519fa.jpg,sunacepzfrmtkiqonpy.jpg,00112931230fa.jpg,sunaakjaacuzulqckgl.jpg,,,<,Place,,,,,1,,,,,,,o
108,36,Presentation,2,00574940928fa_sunacvbrcejzwmcgnoq.jpg,00122931230fa_sunaakxjfbrrequcjmx.jpg,00574940928fa.jpg,sunacvbrcejzwmcgnoq.jpg,00122931230fa.jpg,sunaakxjfbrrequcjmx.jpg,,,<,Place,,,,,1,,,,,,,o
109,36,Presentation,2,00965960627fa_sunaydywdmvlfddbxbk.jpg,00069931230fb_sunaaeowapdkwzqpgqr.jpg,00965960627fa.jpg,sunaydywdmvlfddbxbk.jpg,00069931230fb.jpg,sunaaeowapdkwzqpgqr.jpg,,,<,Place,,,,,1,,,,,,,o
110,36,Memory,2,,,,,,,sunapileznnbbmrwoei.jpg,,,,,,,,,,,,,,,
111,36,Memory,2,,,,,,,00787941205fa.jpg,,,,,,,,,,,,,,,
112,36,Memory,2,,,,,,,00841940307fa.jpg,,,,,,,,,,,,,,,
113,36,Memory,2,,,,,,,sunacjkmnpawfzbyvae.jpg,,,,,,,,,,,,,,,
114,36,Memory,2,,,,,,,sunaobtizabegtwfwul.jpg,,,,,,,,,,,,,,,
115,36,Memory,2,,,,,,,sunaaxjpzcnxligjtjq.jpg,,,,,,,,,,,,,,,
116,36,Memory,2,,,,,,,sunaydywdmvlfddbxbk.jpg,,,,,,,,,,,,,,,
117,36,Memory,2,,,,,,,00882960530fa.jpg,,,,,,,,,,,,,,,
118,36,Memory,2,,,,,,,00933960627fa.jpg,,,,,,,,,,,,,,,
119,36,Memory,2,,,,,,,sunaknlirqjqiwbbeeg.jpg,,,,,,,,,,,,,,,
120,36,Memory,2,,,,,,,00193940928fa.jpg,,,,,,,,,,,,,,,
121,36,Memory,2,,,,,,,sunagmwxxwymwojbvgi.jpg,,,,,,,,,,,,,,,
122,36,Memory,2,,,,,,,00915960620fa.jpg,,,,,,,,,,,,,,,
123,36,Memory,2,,,,,,,00650941031fa.jpg,,,,,,,,,,,,,,,
124,36,Memory,2,,,,,,,00112931230fa.jpg,,,,,,,,,,,,,,,
125,36,Memory,2,,,,,,,sunapwjkcxdaeqehfql.jpg,,,,,,,,,,,,,,,
126,36,Memory,2,,,,,,,sunafbwnojpqeyzssoe.jpg,,,,,,,,,,,,,,,
127,36,Memory,2,,,,,,,sunajxpkuhbizeveguy.jpg,,,,,,,,,,,,,,,
128,36,Memory,2,,,,,,,sunbwdrdvsweerwsdrj.jpg,,,,,,,,,,,,,,,
129,36,Memory,2,,,,,,,00559940519fa.jpg,,,,,,,,,,,,,,,
130,36,Memory,2,,,,,,,sunacmpqqfbsvlzinzl.jpg,,,,,,,,,,,,,,,
131,36,Memory,2,,,,,,,00564940928fa.jpg,,,,,,,,,,,,,,,
132,36,Memory,2,,,,,,,00532960627fa.jpg,,,,,,,,,,,,,,,
133,36,Memory,2,,,,,,,sunaapfaivxqoynnwwp.jpg,,,,,,,,,,,,,,,
134,36,Memory,2,,,,,,,00965960627fa.jpg,,,,,,,,,,,,,,,
135,36,Memory,2,,,,,,,00096931230fa.jpg,,,,,,,,,,,,,,,
136,36,Memory,2,,,,,,,00210940128fb.jpg,,,,,,,,,,,,,,,
137,36,Memory,2,,,,,,,sunaaiqiqcggrskoqgy.jpg,,,,,,,,,,,,,,,
138,36,Memory,2,,,,,,,00779941205fa.jpg,,,,,,,,,,,,,,,
139,36,Memory,2,,,,,,,00877960530fa.jpg,,,,,,,,,,,,,,,
140,36,Memory,2,,,,,,,00752960620fa.jpg,,,,,,,,,,,,,,,
141,36,Memory,2,,,,,,,sunaccdtpgenvcbcbcf.jpg,,,,,,,,,,,,,,,
142,36,Memory,2,,,,,,,sunagdzlvkqtpnfxfcg.jpg,,,,,,,,,,,,,,,
143,36,Memory,2,,,,,,,00138931230fa.jpg,,,,,,,,,,,,,,,
144,36,Memory,2,,,,,,,sunaisiwfgppimtnmxl.jpg,,,,,,,,,,,,,,,
145,36,Memory,2,,,,,,,sunaakjaacuzulqckgl.jpg,,,,,,,,,,,,,,,
146,36,Memory,2,,,,,,,00909960530.jpg,,,,,,,,,,,,,,,
147,36,Memory,2,,,,,,,01003960627fb.jpg,,,,,,,,,,,,,,,
148,36,Memory,2,,,,,,,sunadikxpvqeabxrvvc.jpg,,,,,,,,,,,,,,,
149,36,Memory,2,,,,,,,sunabanoxjtqxamkucc.jpg,,,,,,,,,,,,,,,
150,36,Presentation,3,00898960530fa_sunamkmeblgteyggink.jpg,00481940519fa_sunabxsuqbleluwczoy.jpg,00898960530fa.jpg,sunamkmeblgteyggink.jpg,00481940519fa.jpg,sunabxsuqbleluwczoy.jpg,,,<,Face,,,,,1,,,,,,,o
151,36,Presentation,3,00891960530fa_sunalkiibhqpxfamlll.jpg,00979960627fa_sunbdycacjfaujxitbw.jpg,00891960530fa.jpg,sunalkiibhqpxfamlll.jpg,00979960627fa.jpg,sunbdycacjfaujxitbw.jpg,,,<,Face,,,,,1,,,,,,,x
152,36,Presentation,3,00925960627fa_sunapqwnqzxlsfvgsjm.jpg,00662941121fa_sunadkazmlajmohnwfl.jpg,00925960627fa.jpg,sunapqwnqzxlsfvgsjm.jpg,00662941121fa.jpg,sunadkazmlajmohnwfl.jpg,,,<,Face,,,,,1,,,,,,,x
153,36,Presentation,3,00747941201fa_sunaeutbrtswvsozxyk.jpg,00498960627fa_sunabzjxlmkwnwzimua.jpg,00747941201fa.jpg,sunaeutbrtswvsozxyk.jpg,00498960627fa.jpg,sunabzjxlmkwnwzimua.jpg,,,<,Face,,,,,1,,,,,,,o
154,36,Presentation,3,00133931230fa_sunaanlwnpqndclffxt.jpg,00892960530fa_sunalntxqqadigcletd.jpg,00133931230fa.jpg,sunaanlwnpqndclffxt.jpg,00892960530fa.jpg,sunalntxqqadigcletd.jpg,,,<,Face,,,,,1,,,,,,,o
155,36,Presentation,3,00060931230fa_sunaaehaikpckyjsety.jpg,01000960627fa_sunbvzmgrdvaakxusbu.jpg,00060931230fa.jpg,sunaaehaikpckyjsety.jpg,01000960627fa.jpg,sunbvzmgrdvaakxusbu.jpg,,,<,Face,,,,,1,,,,,,,x
156,36,Presentation,3,00095931230fa_sunaahzooisqkwlxwoz.jpg,00146960620fb_sunaatpeezlljqaxlhj.jpg,00095931230fa.jpg,sunaahzooisqkwlxwoz.jpg,00146960620fb.jpg,sunaatpeezlljqaxlhj.jpg,,,<,Face,,,,,1,,,,,,,x
157,36,Presentation,3,00144931230fb_sunaathajvxrgptwhoj.jpg,00885960530fa_sunakwlvxjpddialozd.jpg,00144931230fb.jpg,sunaathajvxrgptwhoj.jpg,00885960530fa.jpg,sunakwlvxjpddialozd.jpg,,,<,Face,,,,,1,,,,,,,x
158,36,Presentation,3,00093931230fa_sunaahwnmtqsrhocysw.jpg,00815941205fa_sunahiphsekjihkafsl.jpg,00093931230fa.jpg,sunaahwnmtqsrhocysw.jpg,00815941205fa.jpg,sunahiphsekjihkafsl.jpg,,,<,Face,,,,,1,,,,,,,o
159,36,Presentation,3,00571940928fa_sunacuatpqpqhyjhjqk.jpg,00774941201fa_sunafvtpfczkzopbgue.jpg,00571940928fa.jpg,sunacuatpqpqhyjhjqk.jpg,00774941201fa.jpg,sunafvtpfczkzopbgue.jpg,,,<,Face,,,,,1,,,,,,,o
160,36,Memory,3,,,,,,,00790941205fa.jpg,,,,,,,,,,,,,,,
161,36,Memory,3,,,,,,,sunagtjwilqjvxohypn.jpg,,,,,,,,,,,,,,,
162,36,Memory,3,,,,,,,sunaathajvxrgptwhoj.jpg,,,,,,,,,,,,,,,
163,36,Memory,3,,,,,,,00979960627fa.jpg,,,,,,,,,,,,,,,
164,36,Memory,3,,,,,,,sunahiphsekjihkafsl.jpg,,,,,,,,,,,,,,,
165,36,Memory,3,,,,,,,00793941205fa.jpg,,,,,,,,,,,,,,,
166,36,Memory,3,,,,,,,00891960530fa.jpg,,,,,,,,,,,,,,,
167,36,Memory,3,,,,,,,00892960530fa.jpg,,,,,,,,,,,,,,,
168,36,Memory,3,,,,,,,sunaahzooisqkwlxwoz.jpg,,,,,,,,,,,,,,,
169,36,Memory,3,,,,,,,sunaddtdkycxbqlpfqa.jpg,,,,,,,,,,,,,,,
170,36,Memory,3,,,,,,,00730960620fa.jpg,,,,,,,,,,,,,,,
171,36,Memory,3,,,,,,,00077931230fb.jpg,,,,,,,,,,,,,,,
172,36,Memory,3,,,,,,,sunaawsdjisukbbginm.jpg,,,,,,,,,,,,,,,
173,36,Memory,3,,,,,,,sunabueyoajufbkraki.jpg,,,,,,,,,,,,,,,
174,36,Memory,3,,,,,,,00815941205fa.jpg,,,,,,,,,,,,,,,
175,36,Memory,3,,,,,,,00306940422fa.jpg,,,,,,,,,,,,,,,
176,36,Memory,3,,,,,,,00191940128fb.jpg,,,,,,,,,,,,,,,
177,36,Memory,3,,,,,,,sunafvtpfczkzopbgue.jpg,,,,,,,,,,,,,,,
178,36,Memory,3,,,,,,,00060931230fa.jpg,,,,,,,,,,,,,,,
179,36,Memory,3,,,,,,,sunadqmjrhfjyuzyvdd.jpg,,,,,,,,,,,,,,,
180,36,Memory,3,,,,,,,sunalntxqqadigcletd.jpg,,,,,,,,,,,,,,,
181,36,Memory,3,,,,,,,00681941121fa.jpg,,,,,,,,,,,,,,,
182,36,Memory,3,,,,,,,sunagpjzsbltchlwvou.jpg,,,,,,,,,,,,,,,
183,36,Memory,3,,,,,,,00095931230fa.jpg,,,,,,,,,,,,,,,
184,36,Memory,3,,,,,,,00636941031fa.jpg,,,,,,,,,,,,,,,
185,36,Memory,3,,,,,,,sunaakmxzhuceuiryah.jpg,,,,,,,,,,,,,,,
186,36,Memory,3,,,,,,,00146960620fb.jpg,,,,,,,,,,,,,,,
187,36,Memory,3,,,,,,,sunaaehaikpckyjsety.jpg,,,,,,,,,,,,,,,
188,36,Memory,3,,,,,,,sunaahwnmtqsrhocysw.jpg,,,,,,,,,,,,,,,
189,36,Memory,3,,,,,,,00774941201fa.jpg,,,,,,,,,,,,,,,
190,36,Memory,3,,,,,,,sunaatpeezlljqaxlhj.jpg,,,,,,,,,,,,,,,
191,36,Memory,3,,,,,,,00986960627fa.jpg,,,,,,,,,,,,,,,
192,36,Memory,3,,,,,,,sunalkiibhqpxfamlll.jpg,,,,,,,,,,,,,,,
193,36,Memory,3,,,,,,,sunbdycacjfaujxitbw.jpg,,,,,,,,,,,,,,,
194,36,Memory,3,,,,,,,00115931230fa.jpg,,,,,,,,,,,,,,,
195,36,Memory,3,,,,,,,00093931230fa.jpg,,,,,,,,,,,,,,,
196,36,Memory,3,,,,,,,sunaafgqutfaishsxyu.jpg,,,,,,,,,,,,,,,
197,36,Memory,3,,,,,,,sunaekgzpfilgjxpeyq.jpg,,,,,,,,,,,,,,,
198,36,Memory,3,,,,,,,sunbgzjryivyczuvkvm.jpg,,,,,,,,,,,,,,,
199,36,Memory,3,,,,,,,00144931230fb.jpg,,,,,,,,,,,,,,,
200,36,Presentation,4,00102931230fa_sunaajspcoepticvplv.jpg,00062931230fb_sunaaelotvjgibjtjhs.jpg,00102931230fa.jpg,sunaajspcoepticvplv.jpg,00062931230fb.jpg,sunaaelotvjgibjtjhs.jpg,,,<,Face,,,,,0,,,,,,,x
201,36,Presentation,4,00884960530fa_sunakodkcslgqhqlgwl.jpg,00751960620fa_sunaezuszgtxnmsxdbk.jpg,00884960530fa.jpg,sunakodkcslgqhqlgwl.jpg,00751960620fa.jpg,sunaezuszgtxnmsxdbk.jpg,,,<,Face,,,,,0,,,,,,,o
202,36,Presentation,4,00598941031fa_sunacxtcahkymosigud.jpg,00720960620fa_sunaecpkgfewqqreqwe.jpg,00598941031fa.jpg,sunacxtcahkymosigud.jpg,00720960620fa.jpg,sunaecpkgfewqqreqwe.jpg,,,<,Face,,,,,1,,,,,,,o
203,36,Presentation,4,00961960627fa_sunawotxrevnqvamsfp.jpg,00125931230fa_sunaalltyvjhbzhkmvg.jpg,00961960627fa.jpg,sunawotxrevnqvamsfp.jpg,00125931230fa.jpg,sunaalltyvjhbzhkmvg.jpg,,,<,Face,,,,,1,,,,,,,o
204,36,Presentation,4,00935960627fa_sunaqbmgkgqucajzrkp.jpg,00302940422fa_sunabtlfmiwtljmoues.jpg,00935960627fa.jpg,sunaqbmgkgqucajzrkp.jpg,00302940422fa.jpg,sunabtlfmiwtljmoues.jpg,,,<,Face,,,,,1,,,,,,,o
205,36,Presentation,4,00109931230fa_sunaajuzribjrizdshh.jpg,00719941201fa_sunadvithllcgmfxsrn.jpg,00109931230fa.jpg,sunaajuzribjrizdshh.jpg,00719941201fa.jpg,sunadvithllcgmfxsrn.jpg,,,<,Face,,,,,1,,,,,,,x
206,36,Presentation,4,00984960627fa_sunbfzchmomnvzhbxdg.jpg,00950960627fa_sunasrjlmglmjzbmqxb.jpg,00984960627fa.jpg,sunbfzchmomnvzhbxdg.jpg,00950960627fa.jpg,sunasrjlmglmjzbmqxb.jpg,,,<,Face,,,,,1,,,,,,,o
207,36,Presentation,4,00967960627fa_sunbaejotfklekvpxcz.jpg,00483940519fa_sunabyvpwkgsjtijdwj.jpg,00967960627fa.jpg,sunbaejotfklekvpxcz.jpg,00483940519fa.jpg,sunabyvpwkgsjtijdwj.jpg,,,<,Face,,,,,1,,,,,,,x
208,36,Presentation,4,00260940128fa_sunabgfhvifeijihhjw.jpg,00280940422fb_sunabohxbskznglnrhv.jpg,00260940128fa.jpg,sunabgfhvifeijihhjw.jpg,00280940422fb.jpg,sunabohxbskznglnrhv.jpg,,,<,Face,,,,,1,,,,,,,o
209,36,Presentation,4,00776941205fa_sunafxokyavhgptyfye.jpg,00870940307fa_sunajrgtewnualfcerj.jpg,00776941205fa.jpg,sunafxokyavhgptyfye.jpg,00870940307fa.jpg,sunajrgtewnualfcerj.jpg,,,<,Face,,,,,1,,,,,,,o
210,36,Memory,4,,,,,,,sunacxtcahkymosigud.jpg,,,,,,,,,,,,,,,
211,36,Memory,4,,,,,,,00993960627fa.jpg,,,,,,,,,,,,,,,
212,36,Memory,4,,,,,,,00858940307fa.jpg,,,,,,,,,,,,,,,
213,36,Memory,4,,,,,,,sunavxokzybtomhbmvm.jpg,,,,,,,,,,,,,,,
214,36,Memory,4,,,,,,,sunaalltyvjhbzhkmvg.jpg,,,,,,,,,,,,,,,
215,36,Memory,4,,,,,,,sunakodkcslgqhqlgwl.jpg,,,,,,,,,,,,,,,
216,36,Memory,4,,,,,,,sunajrgtewnualfcerj.jpg,,,,,,,,,,,,,,,
217,36,Memory,4,,,,,,,00884960530fa.jpg,,,,,,,,,,,,,,,
218,36,Memory,4,,,,,,,sunaaelotvjgibjtjhs.jpg,,,,,,,,,,,,,,,
219,36,Memory,4,,,,,,,sunabtlfmiwtljmoues.jpg,,,,,,,,,,,,,,,
220,36,Memory,4,,,,,,,00147931230fb.jpg,,,,,,,,,,,,,,,
221,36,Memory,4,,,,,,,00101931230fb.jpg,,,,,,,,,,,,,,,
222,36,Memory,4,,,,,,,00132931230fb.jpg,,,,,,,,,,,,,,,
223,36,Memory,4,,,,,,,sunbaejotfklekvpxcz.jpg,,,,,,,,,,,,,,,
224,36,Memory,4,,,,,,,00302940422fa.jpg,,,,,,,,,,,,,,,
225,36,Memory,4,,,,,,,00720960620fa.jpg,,,,,,,,,,,,,,,
226,36,Memory,4,,,,,,,00959960627fa.jpg,,,,,,,,,,,,,,,
227,36,Memory,4,,,,,,,sunawotxrevnqvamsfp.jpg,,,,,,,,,,,,,,,
228,36,Memory,4,,,,,,,sunagetqixeypsysbpn.jpg,,,,,,,,,,,,,,,
229,36,Memory,4,,,,,,,sunaanjcbzdvtvblsdy.jpg,,,,,,,,,,,,,,,
230,36,Memory,4,,,,,,,sunaatpkocdkocwxpkb.jpg,,,,,,,,,,,,,,,
231,36,Memory,4,,,,,,,sunbprywzqxjcezkbch.jpg,,,,,,,,,,,,,,,
232,36,Memory,4,,,,,,,00108960530fa.jpg,,,,,,,,,,,,,,,
233,36,Memory,4,,,,,,,00870940307fa.jpg,,,,,,,,,,,,,,,
234,36,Memory,4,,,,,,,00062931230fb.jpg,,,,,,,,,,,,,,,
235,36,Memory,4,,,,,,,sunaecpkgfewqqreqwe.jpg,,,,,,,,,,,,,,,
236,36,Memory,4,,,,,,,00727941205fa.jpg,,,,,,,,,,,,,,,
237,36,Memory,4,,,,,,,00961960627fa.jpg,,,,,,,,,,,,,,,
238,36,Memory,4,,,,,,,00598941031fa.jpg,,,,,,,,,,,,,,,
239,36,Memory,4,,,,,,,00780960530fa.jpg,,,,,,,,,,,,,,,
240,36,Memory,4,,,,,,,sunaajtnvzzpsjdzres.jpg,,,,,,,,,,,,,,,
241,36,Memory,4,,,,,,,sunaajqmsaavkmgbsth.jpg,,,,,,,,,,,,,,,
242,36,Memory,4,,,,,,,00260940128fa.jpg,,,,,,,,,,,,,,,
243,36,Memory,4,,,,,,,suncnkvbhypnivcohyx.jpg,,,,,,,,,,,,,,,
244,36,Memory,4,,,,,,,sunaixpqndlwhwjtjek.jpg,,,,,,,,,,,,,,,
245,36,Memory,4,,,,,,,00125931230fa.jpg,,,,,,,,,,,,,,,
246,36,Memory,4,,,,,,,sunaeisnjeetzmkbuad.jpg,,,,,,,,,,,,,,,
247,36,Memory,4,,,,,,,00967960627fa.jpg,,,,,,,,,,,,,,,
248,36,Memory,4,,,,,,,sunabgfhvifeijihhjw.jpg,,,,,,,,,,,,,,,
249,36,Memory,4,,,,,,,01010960627fa.jpg,,,,,,,,,,,,,,,
250,36,Presentation,5,00772941201fa_sunafpfpiiujzoesnqg.jpg,00762941201fa_sunafgzgbisbopcyslr.jpg,00772941201fa.jpg,sunafpfpiiujzoesnqg.jpg,00762941201fa.jpg,sunafgzgbisbopcyslr.jpg,,,>,Face,,,,,1,,,,,,,o
251,36,Presentation,5,00126931230fb_sunaamdjwemxpmmtypi.jpg,00963960627fa_sunayaepykrqvenaqqy.jpg,00126931230fb.jpg,sunaamdjwemxpmmtypi.jpg,00963960627fa.jpg,sunayaepykrqvenaqqy.jpg,,,>,Face,,,,,1,,,,,,,o
252,36,Presentation,5,00889960530fa_sunaletopenvvozhpxc.jpg,00792941205fa_sunagsiwrmuixqgdimb.jpg,00889960530fa.jpg,sunaletopenvvozhpxc.jpg,00792941205fa.jpg,sunagsiwrmuixqgdimb.jpg,,,>,Face,,,,,1,,,,,,,o
253,36,Presentation,5,00557940519fa_sunachtuarilwyqnvjx.jpg,00777941205fa_sunagcinxkccdtrjmlv.jpg,00557940519fa.jpg,sunachtuarilwyqnvjx.jpg,00777941205fa.jpg,sunagcinxkccdtrjmlv.jpg,,,>,Face,,,,,0,,,,,,,x
254,36,Presentation,5,00529940519fa_sunacbeefkxpymwevpk.jpg,00065931230fb_sunaaemixhfquhnxxlm.jpg,00529940519fa.jpg,sunacbeefkxpymwevpk.jpg,00065931230fb.jpg,sunaaemixhfquhnxxlm.jpg,,,>,Face,,,,,1,,,,,,,x
255,36,Presentation,5,00770941201fa_sunaflojskatpeqyzqp.jpg,00876960620fa_sunajwqkfsykceonyig.jpg,00770941201fa.jpg,sunaflojskatpeqyzqp.jpg,00876960620fa.jpg,sunajwqkfsykceonyig.jpg,,,>,Face,,,,,1,,,,,,,o
256,36,Presentation,5,00670941121fa_sunadochqcucscehsgk.jpg,00955960627fb_sunauburywlkjszngcq.jpg,00670941121fa.jpg,sunadochqcucscehsgk.jpg,00955960627fb.jpg,sunauburywlkjszngcq.jpg,,,>,Face,,,,,1,,,,,,,x
257,36,Presentation,5,00864940307fa_sunajawzbrlrwafowen.jpg,00773960620fa_sunafvsxtzaizojicxx.jpg,00864940307fa.jpg,sunajawzbrlrwafowen.jpg,00773960620fa.jpg,sunafvsxtzaizojicxx.jpg,,,>,Face,,,,,0,,,,,,,o
258,36,Presentation,5,00860940307fa_sunaizeyhvjzknwjudw.jpg,00942960627fa_sunarfdklgdnjgeqfjg.jpg,00860940307fa.jpg,sunaizeyhvjzknwjudw.jpg,00942960627fa.jpg,sunarfdklgdnjgeqfjg.jpg,,,>,Face,,,,,1,,,,,,,o
259,36,Presentation,5,00479940519fa_sunabxsbfwjccqxxzxq.jpg,00750941201fa_sunaeuzwggvibufclwf.jpg,00479940519fa.jpg,sunabxsbfwjccqxxzxq.jpg,00750941201fa.jpg,sunaeuzwggvibufclwf.jpg,,,>,Face,,,,,1,,,,,,,o
260,36,Memory,5,,,,,,,00926960627Fa.jpg,,,,,,,,,,,,,,,
261,36,Memory,5,,,,,,,00773960620fa.jpg,,,,,,,,,,,,,,,
262,36,Memory,5,,,,,,,sunapqwoeotxshkukbh.jpg,,,,,,,,,,,,,,,
263,36,Memory,5,,,,,,,00792941205fa.jpg,,,,,,,,,,,,,,,
264,36,Memory,5,,,,,,,sunabqowuarvqqcnipn.jpg,,,,,,,,,,,,,,,
265,36,Memory,5,,,,,,,sunachtuarilwyqnvjx.jpg,,,,,,,,,,,,,,,
266,36,Memory,5,,,,,,,sunagcinxkccdtrjmlv.jpg,,,,,,,,,,,,,,,
267,36,Memory,5,,,,,,,sunaletopenvvozhpxc.jpg,,,,,,,,,,,,,,,
268,36,Memory,5,,,,,,,sunarfdklgdnjgeqfjg.jpg,,,,,,,,,,,,,,,
269,36,Memory,5,,,,,,,00479940519fa.jpg,,,,,,,,,,,,,,,
270,36,Memory,5,,,,,,,sunafvsxtzaizojicxx.jpg,,,,,,,,,,,,,,,
271,36,Memory,5,,,,,,,00723941201fa.jpg,,,,,,,,,,,,,,,
272,36,Memory,5,,,,,,,00620940928fa.jpg,,,,,,,,,,,,,,,
273,36,Memory,5,,,,,,,00086931230fa.jpg,,,,,,,,,,,,,,,
274,36,Memory,5,,,,,,,00810941205fa.jpg,,,,,,,,,,,,,,,
275,36,Memory,5,,,,,,,sunanwjjyqqwzqrqagd.jpg,,,,,,,,,,,,,,,
276,36,Memory,5,,,,,,,sunaiwduelojtwaqeyh.jpg,,,,,,,,,,,,,,,
277,36,Memory,5,,,,,,,00557940519fa.jpg,,,,,,,,,,,,,,,
278,36,Memory,5,,,,,,,00889960530fa.jpg,,,,,,,,,,,,,,,
279,36,Memory,5,,,,,,,00750941201fa.jpg,,,,,,,,,,,,,,,
280,36,Memory,5,,,,,,,00908960530fa.jpg,,,,,,,,,,,,,,,
281,36,Memory,5,,,,,,,sunaafynehyrzpsoaml.jpg,,,,,,,,,,,,,,,
282,36,Memory,5,,,,,,,00145931230fb.jpg,,,,,,,,,,,,,,,
283,36,Memory,5,,,,,,,sunacacflqoyxhsqzhe.jpg,,,,,,,,,,,,,,,
284,36,Memory,5,,,,,,,sunabxsbfwjccqxxzxq.jpg,,,,,,,,,,,,,,,
285,36,Memory,5,,,,,,,sunaedtgwjvvziytspa.jpg,,,,,,,,,,,,,,,
286,36,Memory,5,,,,,,,00777941205fa.jpg,,,,,,,,,,,,,,,
287,36,Memory,5,,,,,,,00860940307fa.jpg,,,,,,,,,,,,,,,
288,36,Memory,5,,,,,,,sunacypmnujalygkunp.jpg,,,,,,,,,,,,,,,
289,36,Memory,5,,,,,,,sunaeuzwggvibufclwf.jpg,,,,,,,,,,,,,,,
290,36,Memory,5,,,,,,,00290940422fa.jpg,,,,,,,,,,,,,,,
291,36,Memory,5,,,,,,,sunaatjesvdupctftmn.jpg,,,,,,,,,,,,,,,
292,36,Memory,5,,,,,,,00854940307fa.jpg,,,,,,,,,,,,,,,
293,36,Memory,5,,,,,,,sunahctntqrunhdxhtb.jpg,,,,,,,,,,,,,,,
294,36,Memory,5,,,,,,,sunaizeyhvjzknwjudw.jpg,,,,,,,,,,,,,,,
295,36,Memory,5,,,,,,,sunafpfpiiujzoesnqg.jpg,,,,,,,,,,,,,,,
296,36,Memory,5,,,,,,,00942960627fa.jpg,,,,,,,,,,,,,,,
297,36,Memory,5,,,,,,,00507940519fa.jpg,,,,,,,,,,,,,,,
298,36,Memory,5,,,,,,,00772941201fa.jpg,,,,,,,,,,,,,,,
299,36,Memory,5,,,,,,,sunagsiwrmuixqgdimb.jpg,,,,,,,,,,,,,,,
300,36,Presentation,6,00063931230fa_sunaaelyvurpntclgau.jpg,00801941205fa_sunagvprlbprarvgdvj.jpg,00063931230fa.jpg,sunaaelyvurpntclgau.jpg,00801941205fa.jpg,sunagvprlbprarvgdvj.jpg,,,>,Face,,,,,1,,,,,,,x
301,36,Presentation,6,00071941031fa_sunaaexqbtdswxrqjvz.jpg,00061931230fb_sunaaekxzjzrfgtkwjf.jpg,00071941031fa.jpg,sunaaexqbtdswxrqjvz.jpg,00061931230fb.jpg,sunaaekxzjzrfgtkwjf.jpg,,,>,Face,,,,,1,,,,,,,o
302,36,Presentation,6,00761960627fa_sunafgdqbclkwfocdhg.jpg,00834940307fa_sunaibnpvhkdpdnzcnz.jpg,00761960627fa.jpg,sunafgdqbclkwfocdhg.jpg,00834940307fa.jpg,sunaibnpvhkdpdnzcnz.jpg,,,>,Face,,,,,1,,,,,,,o
303,36,Presentation,6,00119931230fb_sunaakvmbftkrgqhjun.jpg,00082931230fa_sunaafvitpexrpvumsa.jpg,00119931230fb.jpg,sunaakvmbftkrgqhjun.jpg,00082931230fa.jpg,sunaafvitpexrpvumsa.jpg,,,>,Face,,,,,1,,,,,,,x
304,36,Presentation,6,00929960627fa_sunaprnrbmgkomdbchr.jpg,00913960530fa_sunaooffzffbhcpirmm.jpg,00929960627fa.jpg,sunaprnrbmgkomdbchr.jpg,00913960530fa.jpg,sunaooffzffbhcpirmm.jpg,,,>,Face,,,,,1,,,,,,,o
305,36,Presentation,6,00905960530fa_sunanmoqeyprjjjfxjt.jpg,00771941205fa_sunafowswglhxcsufpo.jpg,00905960530fa.jpg,sunanmoqeyprjjjfxjt.jpg,00771941205fa.jpg,sunafowswglhxcsufpo.jpg,,,>,Face,,,,,1,,,,,,,x
306,36,Presentation,6,00296940422fa_sunabrwnslxalcohfre.jpg,00805941205fa_sunagwzdbtlixdhgolm.jpg,00296940422fa.jpg,sunabrwnslxalcohfre.jpg,00805941205fa.jpg,sunagwzdbtlixdhgolm.jpg,,,>,Face,,,,,1,,,,,,,o
307,36,Presentation,6,00197940128fa_sunaaylzyqlqrsmfwif.jpg,00505960627fa_sunabzuqsrgcsonqlkz.jpg,00197940128fa.jpg,sunaaylzyqlqrsmfwif.jpg,00505960627fa.jpg,sunabzuqsrgcsonqlkz.jpg,,,>,Face,,,,,1,,,,,,,o
308,36,Presentation,6,00211940128fa_sunabasphceswhwwqvv.jpg,00783941205fa_sunagjeesomrwjsfqie.jpg,00211940128fa.jpg,sunabasphceswhwwqvv.jpg,00783941205fa.jpg,sunagjeesomrwjsfqie.jpg,,,>,Face,,,,,1,,,,,,,x
309,36,Presentation,6,00987960627fa_sunbloeoiozwjjsiamp.jpg,01009960627fa_sunbxzweleltykebgan.jpg,00987960627fa.jpg,sunbloeoiozwjjsiamp.jpg,01009960627fa.jpg,sunbxzweleltykebgan.jpg,,,>,Face,,,,,1,,,,,,,x
310,36,Memory,6,,,,,,,00700941121fa.jpg,,,,,,,,,,,,,,,
311,36,Memory,6,,,,,,,sunaakvmbftkrgqhjun.jpg,,,,,,,,,,,,,,,
312,36,Memory,6,,,,,,,00061931230fb.jpg,,,,,,,,,,,,,,,
313,36,Memory,6,,,,,,,sunantryfbloeaomfta.jpg,,,,,,,,,,,,,,,
314,36,Memory,6,,,,,,,00063931230fa.jpg,,,,,,,,,,,,,,,
315,36,Memory,6,,,,,,,00834940307fa.jpg,,,,,,,,,,,,,,,
316,36,Memory,6,,,,,,,00801941205fa.jpg,,,,,,,,,,,,,,,
317,36,Memory,6,,,,,,,00548940519fa.jpg,,,,,,,,,,,,,,,
318,36,Memory,6,,,,,,,00568940928fa.jpg,,,,,,,,,,,,,,,
319,36,Memory,6,,,,,,,00663941121fa.jpg,,,,,,,,,,,,,,,
320,36,Memory,6,,,,,,,00906960530fa.jpg,,,,,,,,,,,,,,,
321,36,Memory,6,,,,,,,sunacerqowiaeoqkmsq.jpg,,,,,,,,,,,,,,,
322,36,Memory,6,,,,,,,sunaayehfdqcyxggsej.jpg,,,,,,,,,,,,,,,
323,36,Memory,6,,,,,,,sunaibnpvhkdpdnzcnz.jpg,,,,,,,,,,,,,,,
324,36,Memory,6,,,,,,,sunaaexqbtdswxrqjvz.jpg,,,,,,,,,,,,,,,
325,36,Memory,6,,,,,,,sunbwyuesflwdpqtgoy.jpg,,,,,,,,,,,,,,,
326,36,Memory,6,,,,,,,00589940928fa.jpg,,,,,,,,,,,,,,,
327,36,Memory,6,,,,,,,00218940128fa.jpg,,,,,,,,,,,,,,,
328,36,Memory,6,,,,,,,00905960530fa.jpg,,,,,,,,,,,,,,,
329,36,Memory,6,,,,,,,sunaooffzffbhcpirmm.jpg,,,,,,,,,,,,,,,
330,36,Memory,6,,,,,,,sunacwggadqsfpovdjv.jpg,,,,,,,,,,,,,,,
331,36,Memory,6,,,,,,,sunabbwggenhfbftyvi.jpg,,,,,,,,,,,,,,,
332,36,Memory,6,,,,,,,00783941205fa.jpg,,,,,,,,,,,,,,,
333,36,Memory,6,,,,,,,sunaaelyvurpntclgau.jpg,,,,,,,,,,,,,,,
334,36,Memory,6,,,,,,,sunagvprlbprarvgdvj.jpg,,,,,,,,,,,,,,,
335,36,Memory,6,,,,,,,01005960627fa.jpg,,,,,,,,,,,,,,,
336,36,Memory,6,,,,,,,00119931230fb.jpg,,,,,,,,,,,,,,,
337,36,Memory,6,,,,,,,00197940128fa.jpg,,,,,,,,,,,,,,,
338,36,Memory,6,,,,,,,sunadsgmtznewzyasnk.jpg,,,,,,,,,,,,,,,
339,36,Memory,6,,,,,,,sunaaylzyqlqrsmfwif.jpg,,,,,,,,,,,,,,,
340,36,Memory,6,,,,,,,sunaaekxzjzrfgtkwjf.jpg,,,,,,,,,,,,,,,
341,36,Memory,6,,,,,,,sunadnjjzohjhbohlwq.jpg,,,,,,,,,,,,,,,
342,36,Memory,6,,,,,,,00913960530fa.jpg,,,,,,,,,,,,,,,
343,36,Memory,6,,,,,,,00071941031fa.jpg,,,,,,,,,,,,,,,
344,36,Memory,6,,,,,,,sunagjeesomrwjsfqie.jpg,,,,,,,,,,,,,,,
345,36,Memory,6,,,,,,,sunanmoqeyprjjjfxjt.jpg,,,,,,,,,,,,,,,
346,36,Memory,6,,,,,,,00242940128fa.jpg,,,,,,,,,,,,,,,
347,36,Memory,6,,,,,,,00194940128fb.jpg,,,,,,,,,,,,,,,
348,36,Memory,6,,,,,,,sunabcuurugvxwparpk.jpg,,,,,,,,,,,,,,,
349,36,Memory,6,,,,,,,sunacsdhbbsybcyxnel.jpg,,,,,,,,,,,,,,,
350,36,Presentation,7,00111931230fb_sunaakgekhjklxmvulj.jpg,01207940128fa_sundbixjudsgeuuehrn.jpg,00111931230fb.jpg,sunaakgekhjklxmvulj.jpg,01207940128fa.jpg,sundbixjudsgeuuehrn.jpg,,,>,Place,,,,,1,,,,,,,x
351,36,Presentation,7,00123931230fb_sunaalcrrdbjgdztbiz.jpg,00140931230fb_sunaapllqyqlykszopd.jpg,00123931230fb.jpg,sunaalcrrdbjgdztbiz.jpg,00140931230fb.jpg,sunaapllqyqlykszopd.jpg,,,>,Place,,,,,1,,,,,,,o
352,36,Presentation,7,00725941201fa_sunaefgzwiramypjvtd.jpg,00857940307fa_sunaiwfobocrruqznsv.jpg,00725941201fa.jpg,sunaefgzwiramypjvtd.jpg,00857940307fa.jpg,sunaiwfobocrruqznsv.jpg,,,>,Place,,,,,1,,,,,,,x
353,36,Presentation,7,00887960530_sunalcrtwiycqobgelp.jpg,00999960627fa_sunbvbrvgbpanfrawft.jpg,00887960530.jpg,sunalcrtwiycqobgelp.jpg,00999960627fa.jpg,sunbvbrvgbpanfrawft.jpg,,,>,Place,,,,,0,,,,,,,x
354,36,Presentation,7,00267940128fb_sunablfqiwfqomjarht.jpg,00097931230fa_sunaajayojuslbbnneg.jpg,00267940128fb.jpg,sunablfqiwfqomjarht.jpg,00097931230fa.jpg,sunaajayojuslbbnneg.jpg,,,>,Place,,,,,1,,,,,,,x
355,36,Presentation,7,00957960627fa_sunavhxgmgrqsaptynb.jpg,00978960627fa_sunbddbivbptlrlauhy.jpg,00957960627fa.jpg,sunavhxgmgrqsaptynb.jpg,00978960627fa.jpg,sunbddbivbptlrlauhy.jpg,,,>,Place,,,,,1,,,,,,,x
356,36,Presentation,7,00949960627fb_sunasnqkkyhilqkxiqm.jpg,00893960530Fa_sunaloffvbvysigxent.jpg,00949960627fb.jpg,sunasnqkkyhilqkxiqm.jpg,00893960530Fa.jpg,sunaloffvbvysigxent.jpg,,,>,Place,,,,,1,,,,,,,o
357,36,Presentation,7,00971960627fa_sunbbegcweqnetpdlrh.jpg,00598940928fa_sunacxeheuiigkcgquf.jpg,00971960627fa.jpg,sunbbegcweqnetpdlrh.jpg,00598940928fa.jpg,sunacxeheuiigkcgquf.jpg,,,>,Place,,,,,1,,,,,,,o
358,36,Presentation,7,00996960627fa_sunbpvgllfdejxcpjqp.jpg,00997960627fa_sunbtpilbhhbmhmeuzq.jpg,00996960627fa.jpg,sunbpvgllfdejxcpjqp.jpg,00997960627fa.jpg,sunbtpilbhhbmhmeuzq.jpg,,,>,Place,,,,,1,,,,,,,x
359,36,Presentation,7,00742941201fa_sunaenwuebvlpdmntju.jpg,00208940128fa_sunaazzyhbvqjpmazjq.jpg,00742941201fa.jpg,sunaenwuebvlpdmntju.jpg,00208940128fa.jpg,sunaazzyhbvqjpmazjq.jpg,,,>,Place,,,,,1,,,,,,,o
360,36,Memory,7,,,,,,,00263940128fb.jpg,,,,,,,,,,,,,,,
361,36,Memory,7,,,,,,,01207940128fa.jpg,,,,,,,,,,,,,,,
362,36,Memory,7,,,,,,,sunaeuvjbmdpknaqqaj.jpg,,,,,,,,,,,,,,,
363,36,Memory,7,,,,,,,00971960627fa.jpg,,,,,,,,,,,,,,,
364,36,Memory,7,,,,,,,sunaampvucecsfbdafn.jpg,,,,,,,,,,,,,,,
365,36,Memory,7,,,,,,,sunaauueuhhvklldjik.jpg,,,,,,,,,,,,,,,
366,36,Memory,7,,,,,,,00123931230fb.jpg,,,,,,,,,,,,,,,
367,36,Memory,7,,,,,,,00633940928fa.jpg,,,,,,,,,,,,,,,
368,36,Memory,7,,,,,,,sundbixjudsgeuuehrn.jpg,,,,,,,,,,,,,,,
369,36,Memory,7,,,,,,,sunaakgekhjklxmvulj.jpg,,,,,,,,,,,,,,,
370,36,Memory,7,,,,,,,00773941201fa.jpg,,,,,,,,,,,,,,,
371,36,Memory,7,,,,,,,sunablfqiwfqomjarht.jpg,,,,,,,,,,,,,,,
372,36,Memory,7,,,,,,,00097931230fa.jpg,,,,,,,,,,,,,,,
373,36,Memory,7,,,,,,,sunabjuovqvyfuzvqwt.jpg,,,,,,,,,,,,,,,
374,36,Memory,7,,,,,,,00127931230fa.jpg,,,,,,,,,,,,,,,
375,36,Memory,7,,,,,,,00999960627fa.jpg,,,,,,,,,,,,,,,
376,36,Memory,7,,,,,,,sunbvbrvgbpanfrawft.jpg,,,,,,,,,,,,,,,
377,36,Memory,7,,,,,,,00267940128fb.jpg,,,,,,,,,,,,,,,
378,36,Memory,7,,,,,,,sunaalcrrdbjgdztbiz.jpg,,,,,,,,,,,,,,,
379,36,Memory,7,,,,,,,00154931230fa.jpg,,,,,,,,,,,,,,,
380,36,Memory,7,,,,,,,00749941201fa.jpg,,,,,,,,,,,,,,,
381,36,Memory,7,,,,,,,sunadbhmrgrrpyzglxs.jpg,,,,,,,,,,,,,,,
382,36,Memory,7,,,,,,,sunafvcflzhlqloapyo.jpg,,,,,,,,,,,,,,,
383,36,Memory,7,,,,,,,sunanaacmmosxrfwmvl.jpg,,,,,,,,,,,,,,,
384,36,Memory,7,,,,,,,sunaeomlfaabhpswasy.jpg,,,,,,,,,,,,,,,
385,36,Memory,7,,,,,,,sunadcphrizvfpljiqt.jpg,,,,,,,,,,,,,,,
386,36,Memory,7,,,,,,,sunbtpilbhhbmhmeuzq.jpg,,,,,,,,,,,,,,,
387,36,Memory,7,,,,,,,sunacvzhvcksnwqcqbw.jpg,,,,,,,,,,,,,,,
388,36,Memory,7,,,,,,,00902960530fa.jpg,,,,,,,,,,,,,,,
389,36,Memory,7,,,,,,,00111931230fb.jpg,,,,,,,,,,,,,,,
390,36,Memory,7,,,,,,,sunaefgzwiramypjvtd.jpg,,,,,,,,,,,,,,,
391,36,Memory,7,,,,,,,sunaazzyhbvqjpmazjq.jpg,,,,,,,,,,,,,,,
392,36,Memory,7,,,,,,,sunbbegcweqnetpdlrh.jpg,,,,,,,,,,,,,,,
393,36,Memory,7,,,,,,,00634940928fa.jpg,,,,,,,,,,,,,,,
394,36,Memory,7,,,,,,,00208940128fa.jpg,,,,,,,,,,,,,,,
395,36,Memory,7,,,,,,,00581940928fa.jpg,,,,,,,,,,,,,,,
396,36,Memory,7,,,,,,,00744941201fa.jpg,,,,,,,,,,,,,,,
397,36,Memory,7,,,,,,,00725941201fa.jpg,,,,,,,,,,,,,,,
398,36,Memory,7,,,,,,,00997960627fa.jpg,,,,,,,,,,,,,,,
399,36,Memory,7,,,,,,,sunaajayojuslbbnneg.jpg,,,,,,,,,,,,,,,
