,Subject,Trial Type,Run,Cued Composite,Uncued Composite,Cued Face,Cued Place,Uncued Face,Uncued Place,Memory Image,Category,Cued Side,Cued Category,Attention Reaction Time (s),Familiarity Reaction Time (s),Familiarity Rating,Attention Level,Cue Validity,Post Invalid Cue,Pre Invalid Cue,Attention Button,Rating History,Stimulus Onset,Stimulus End,Attention Probe
160,14,Memory,3,,,,,,,sunaozisvwfbmlkfhzv.jpg,,,,,1.842,2.0,,,,,,,1553884131.682701,1553884134.612154,
161,14,Memory,3,,,,,,,00554940519fa.jpg,,,,,1.442,2.0,,,,,,,1553884135.899848,1553884138.563263,
162,14,Memory,3,,,,,,,sunaavchcbptaerhcfy.jpg,,,,,0.693,4.0,,,,,,,1553884139.852201,1553884142.597015,
163,14,Memory,3,,,,,,,sunagvjurcwdbixvnyi.jpg,,,,,0.91,4.0,,,,,,,1553884143.886313,1553884146.405713,
164,14,Memory,3,,,,,,,sunaawqdbpihmlbwyyn.jpg,,,,,0.925,1.0,,,,,,,1553884147.687415,1553884150.104664,
165,14,Memory,3,,,,,,,00972960627fa.jpg,,,,,1.409,3.0,,,,,,,1553884151.472679,1553884154.335295,
166,14,Memory,3,,,,,,,00750941201fa.jpg,,,,,1.259,1.0,,,,,,,1553884155.606999,1553884158.239739,
167,14,Memory,3,,,,,,,sunafkmnlytenlsywia.jpg,,,,,0.926,3.0,,,,,,,1553884159.542035,1553884162.27484,
168,14,Memory,3,,,,,,,sunbbfqwjpdxniyhies.jpg,,,,,1.36,3.0,,,,,,,1553884163.575245,1553884166.355463,
169,14,Memory,3,,,,,,,sunafvcflzhlqloapyo.jpg,,,,,1.192,1.0,,,,,,,1553884167.627606,1553884170.157508,
170,14,Memory,3,,,,,,,00800941205fb.jpg,,,,,1.71,4.0,,,,,,,1553884171.428846,1553884174.341503,
171,14,Memory,3,,,,,,,00868960307fa.jpg,,,,,1.309,1.0,,,,,,,1553884175.613002,1553884178.184712,
172,14,Memory,3,,,,,,,00773941201fa.jpg,,,,,1.26,3.0,,,,,,,1553884179.531312,1553884182.110919,
173,14,Memory,3,,,,,,,sunasrjlmglmjzbmqxb.jpg,,,,,0.977,4.0,,,,,,,1553884183.381659,1553884186.194725,
174,14,Memory,3,,,,,,,sunaathajvxrgptwhoj.jpg,,,,,0.943,1.0,,,,,,,1553884187.482931,1553884189.987159,
175,14,Memory,3,,,,,,,sunadpnqovzckyikrjo.jpg,,,,,0.992,4.0,,,,,,,1553884191.268921,1553884194.015521,
176,14,Memory,3,,,,,,,00768941205fa.jpg,,,,,1.524,2.0,,,,,,,1553884195.287167,1553884198.05175,
177,14,Memory,3,,,,,,,sunagetqixeypsysbpn.jpg,,,,,1.758,3.0,,,,,,,1553884199.337519,1553884202.217369,
178,14,Memory,3,,,,,,,sunaeuzwggvibufclwf.jpg,,,,,1.209,4.0,,,,,,,1553884203.538745,1553884206.205915,
179,14,Memory,3,,,,,,,00874940307fa.jpg,,,,,1.442,3.0,,,,,,,1553884207.489988,1553884210.108186,
180,14,Memory,3,,,,,,,sunacfdkbsrughwqwtt.jpg,,,,,1.309,1.0,,,,,,,1553884211.474962,1553884214.280282,
181,14,Memory,3,,,,,,,00828940307fa.jpg,,,,,1.858,4.0,,,,,,,1553884215.559528,1553884218.560519,
182,14,Memory,3,,,,,,,00914960620fa.jpg,,,,,1.474,2.0,,,,,,,1553884219.86154,1553884222.909944,
183,14,Memory,3,,,,,,,sunahuynahneraqftyz.jpg,,,,,0.975,4.0,,,,,,,1553884224.1625,1553884226.675337,
184,14,Memory,3,,,,,,,00185940422fb.jpg,,,,,0.942,2.0,,,,,,,1553884227.980308,1553884230.693575,
185,14,Memory,3,,,,,,,00676941121fa.jpg,,,,,0.908,1.0,,,,,,,1553884231.981347,1553884234.67923,
186,14,Memory,3,,,,,,,00144931230fb.jpg,,,,,1.108,1.0,,,,,,,1553884235.966518,1553884238.696976,
187,14,Memory,3,,,,,,,00122931230fa.jpg,,,,,1.342,1.0,,,,,,,1553884239.984502,1553884242.83009,
188,14,Memory,3,,,,,,,00770941201fa.jpg,,,,,0.776,1.0,,,,,,,1553884244.102971,1553884246.655422,
189,14,Memory,3,,,,,,,sunajjxttslobudoqbv.jpg,,,,,0.943,4.0,,,,,,,1553884247.936259,1553884250.592188,
190,14,Memory,3,,,,,,,00158931230fb.jpg,,,,,0.927,2.0,,,,,,,1553884251.871491,1553884254.534869,
191,14,Memory,3,,,,,,,sunajtrfunvzdfticna.jpg,,,,,1.16,1.0,,,,,,,1553884255.823517,1553884258.693392,
192,14,Memory,3,,,,,,,sunaedtgwjvvziytspa.jpg,,,,,0.775,1.0,,,,,,,1553884259.991672,1553884262.452674,
193,14,Memory,3,,,,,,,sunaakvmbftkrgqhjun.jpg,,,,,1.276,3.0,,,,,,,1553884263.72495,1553884266.520959,
194,14,Memory,3,,,,,,,00723941201fa.jpg,,,,,1.611,3.0,,,,,,,1553884267.793251,1553884270.694526,
195,14,Memory,3,,,,,,,00780960530fa.jpg,,,,,0.858,1.0,,,,,,,1553884271.977512,1553884274.579988,
196,14,Memory,3,,,,,,,sunaakxjfbrrequcjmx.jpg,,,,,0.976,1.0,,,,,,,1553884275.86369,1553884278.4641,
197,14,Memory,3,,,,,,,sunaflojskatpeqyzqp.jpg,,,,,1.042,1.0,,,,,,,1553884279.74758,1553884282.542512,
198,14,Memory,3,,,,,,,00950960627fa.jpg,,,,,1.227,2.0,,,,,,,1553884283.814268,1553884286.52719,
199,14,Memory,3,,,,,,,00119931230fb.jpg,,,,,1.042,1.0,,,,,,,1553884287.816359,1553884290.634937,
