,Subject,Trial Type,Run,Cued Composite,Uncued Composite,Cued Face,Cued Place,Uncued Face,Uncued Place,Memory Image,Category,Cued Side,Cued Category,Attention Reaction Time (s),Familiarity Reaction Time (s),Familiarity Rating,Attention Level,Cue Validity,Post Invalid Cue,Pre Invalid Cue,Attention Button,Rating History,Stimulus Onset,Stimulus End,Attention Probe
10,11,Memory,0,,,,,,,00952960627fa.jpg,,,,,1.654,2,,,,,,,1538595276.705754,1538595278.756407,
11,11,Memory,0,,,,,,,sunaivflshbyfrfzhqb.jpg,,,,,1.553,4,,,,,,,1538595280.024737,1538595282.007727,
12,11,Memory,0,,,,,,,00860940307fa.jpg,,,,,1.304,1,,,,,,,1538595283.390895,1538595285.375119,
13,11,Memory,0,,,,,,,sunabyfxcxhdebvdyfd.jpg,,,,,1.437,3,,,,,,,1538595286.642262,1538595288.626212,
14,11,Memory,0,,,,,,,sunammbnoambmhdxdwd.jpg,,,,,1.005,1,,,,,,,1538595289.893237,1538595291.878224,
15,11,Memory,0,,,,,,,sunbmaiocftdtvnzgap.jpg,,,,,1.636,1,,,,,,,1538595293.128364,1538595295.112599,
16,11,Memory,0,,,,,,,00957960627fa.jpg,,,,,1.52,2,,,,,,,1538595296.378697,1538595298.362883,
17,11,Memory,0,,,,,,,sunaanjcbzdvtvblsdy.jpg,,,,,1.105,1,,,,,,,1538595299.62968,1538595301.614737,
18,11,Memory,0,,,,,,,00132931230fb.jpg,,,,,1.236,1,,,,,,,1538595302.99791,1538595304.981164,
19,11,Memory,0,,,,,,,00816941205fa.jpg,,,,,0.92,3,,,,,,,1538595306.249158,1538595308.232286,
20,11,Memory,0,,,,,,,00796941205fa.jpg,,,,,1.288,2,,,,,,,1538595309.516464,1538595311.501312,
21,11,Memory,0,,,,,,,00851940307fa.jpg,,,,,1.07,2,,,,,,,1538595312.750625,1538595314.734582,
22,11,Memory,0,,,,,,,sunaizeyhvjzknwjudw.jpg,,,,,1.271,4,,,,,,,1538595316.002707,1538595317.985915,
23,11,Memory,0,,,,,,,00574940928fa.jpg,,,,,1.003,1,,,,,,,1538595319.235055,1538595321.220182,
24,11,Memory,0,,,,,,,sunbprywzqxjcezkbch.jpg,,,,,0.969,1,,,,,,,1538595322.470084,1538595324.454215,
25,11,Memory,0,,,,,,,sunbwtlihsuptkrckid.jpg,,,,,0.704,1,,,,,,,1538595325.705196,1538595327.689199,
26,11,Memory,0,,,,,,,sunabanoxjtqxamkucc.jpg,,,,,0.654,1,,,,,,,1538595329.088422,1538595331.073598,
27,11,Memory,0,,,,,,,00976960627fa.jpg,,,,,0.953,4,,,,,,,1538595332.340775,1538595334.323576,
28,11,Memory,0,,,,,,,sunaawsdjisukbbginm.jpg,,,,,1.57,1,,,,,,,1538595335.804917,1538595337.792596,
29,11,Memory,0,,,,,,,00140931230fb.jpg,,,,,0.77,2,,,,,,,1538595339.159135,1538595341.143124,
30,11,Memory,0,,,,,,,sunaguchqqnrtodtezq.jpg,,,,,0.803,2,,,,,,,1538595342.393224,1538595344.377157,
31,11,Memory,0,,,,,,,sunajtrfunvzdfticna.jpg,,,,,0.986,2,,,,,,,1538595345.644372,1538595347.628183,
32,11,Memory,0,,,,,,,sunahmhrncocyhsjpxk.jpg,,,,,0.936,1,,,,,,,1538595348.879293,1538595350.863638,
33,11,Memory,0,,,,,,,00901960530fa.jpg,,,,,0.852,1,,,,,,,1538595352.196713,1538595354.180819,
34,11,Memory,0,,,,,,,00972960627fa.jpg,,,,,0.736,1,,,,,,,1538595355.431949,1538595357.414757,
35,11,Memory,0,,,,,,,00095931230fa.jpg,,,,,1.02,1,,,,,,,1538595358.765131,1538595360.750258,
36,11,Memory,0,,,,,,,sunathzzbcwjykldrem.jpg,,,,,1.371,3,,,,,,,1538595362.033307,1538595364.017259,
37,11,Memory,0,,,,,,,00482940519fa.jpg,,,,,0.837,1,,,,,,,1538595365.351272,1538595367.335475,
38,11,Memory,0,,,,,,,00191940128fb.jpg,,,,,0.686,1,,,,,,,1538595368.585388,1538595370.570404,
39,11,Memory,0,,,,,,,01004960627fa.jpg,,,,,1.254,1,,,,,,,1538595371.936596,1538595373.920539,
40,11,Memory,0,,,,,,,sunavhxgmgrqsaptynb.jpg,,,,,0.552,1,,,,,,,1538595375.187762,1538595377.17193,
41,11,Memory,0,,,,,,,sunacvbrcejzwmcgnoq.jpg,,,,,0.72,1,,,,,,,1538595378.43884,1538595380.42331,
42,11,Memory,0,,,,,,,00993960627fa.jpg,,,,,0.603,1,,,,,,,1538595381.689214,1538595383.673065,
43,11,Memory,0,,,,,,,sunbbfqwjpdxniyhies.jpg,,,,,0.704,1,,,,,,,1538595384.940522,1538595386.924523,
44,11,Memory,0,,,,,,,sunbbhqyyzmsxhsbjmp.jpg,,,,,1.136,2,,,,,,,1538595388.17554,1538595390.159567,
45,11,Memory,0,,,,,,,00210940128fb.jpg,,,,,0.82,3,,,,,,,1538595391.426853,1538595393.410113,
46,11,Memory,0,,,,,,,00874940307fa.jpg,,,,,1.521,1,,,,,,,1538595394.676647,1538595396.661735,
47,11,Memory,0,,,,,,,sunaapllqyqlykszopd.jpg,,,,,1.153,1,,,,,,,1538595397.911056,1538595399.8953,
48,11,Memory,0,,,,,,,00988960627fa.jpg,,,,,0.705,1,,,,,,,1538595401.147047,1538595403.130253,
49,11,Memory,0,,,,,,,sunaahzooisqkwlxwoz.jpg,,,,,0.687,1,,,,,,,1538595404.380121,1538595406.365274,
