,Subject,Trial Type,Run,Cued Composite,Uncued Composite,Cued Face,Cued Place,Uncued Face,Uncued Place,Memory Image,Category,Cued Side,Cued Category,Attention Response Time (s),Familiarity Reaction Time (s),Familiarity Rating,Attention Level,Cue Validity,Post Invalid Cue,Pre Invalid Cue,Attention Button,Rating History,Stimulus Onset,Stimulus End,Attention Probe
0,13,Presentation,0,00479940519fa_sunabxsbfwjccqxxzxq.jpg,00070940307fa_sunaaeplwsfslcbtojr.jpg,00479940519fa.jpg,sunabxsbfwjccqxxzxq.jpg,00070940307fa.jpg,sunaaeplwsfslcbtojr.jpg,,,>,Face,,,,,1,,,,,,,o
1,13,Presentation,0,01009960627fa_sunbxzweleltykebgan.jpg,00080931230fb_sunaafjszryxyavjzln.jpg,01009960627fa.jpg,sunbxzweleltykebgan.jpg,00080931230fb.jpg,sunaafjszryxyavjzln.jpg,,,>,Face,,,,,1,,,,,,,x
2,13,Presentation,0,00782941205fa_sunagfvluwixdsozaql.jpg,00725941201fa_sunaefgzwiramypjvtd.jpg,00782941205fa.jpg,sunagfvluwixdsozaql.jpg,00725941201fa.jpg,sunaefgzwiramypjvtd.jpg,,,>,Face,,,,,0,,,,,,,x
3,13,Presentation,0,00969960627fa_sunbaoizrfijvhpnnjn.jpg,00780960530fa_sunagetqixeypsysbpn.jpg,00969960627fa.jpg,sunbaoizrfijvhpnnjn.jpg,00780960530fa.jpg,sunagetqixeypsysbpn.jpg,,,>,Face,,,,,1,,,,,,,o
4,13,Presentation,0,00914960620fa_sunaozisvwfbmlkfhzv.jpg,00185940422fb_sunaawqdbpihmlbwyyn.jpg,00914960620fa.jpg,sunaozisvwfbmlkfhzv.jpg,00185940422fb.jpg,sunaawqdbpihmlbwyyn.jpg,,,>,Face,,,,,1,,,,,,,o
5,13,Presentation,0,00986960627fa_sunbgzjryivyczuvkvm.jpg,00125931230fa_sunaalltyvjhbzhkmvg.jpg,00986960627fa.jpg,sunbgzjryivyczuvkvm.jpg,00125931230fa.jpg,sunaalltyvjhbzhkmvg.jpg,,,>,Face,,,,,1,,,,,,,o
6,13,Presentation,0,00754941201fa_sunaffgsyyvoqdlkmnk.jpg,00609940928fa_sunacycdoztxoluxjyk.jpg,00754941201fa.jpg,sunaffgsyyvoqdlkmnk.jpg,00609940928fa.jpg,sunacycdoztxoluxjyk.jpg,,,>,Face,,,,,1,,,,,,,x
7,13,Presentation,0,00540940519fa_sunacdnquypmsshhsbk.jpg,00481940519fa_sunabxsuqbleluwczoy.jpg,00540940519fa.jpg,sunacdnquypmsshhsbk.jpg,00481940519fa.jpg,sunabxsuqbleluwczoy.jpg,,,>,Face,,,,,1,,,,,,,x
8,13,Presentation,0,00993960627fa_sunbprywzqxjcezkbch.jpg,00944960627fa_sunasbbntuiheekqyaq.jpg,00993960627fa.jpg,sunbprywzqxjcezkbch.jpg,00944960627fa.jpg,sunasbbntuiheekqyaq.jpg,,,>,Face,,,,,1,,,,,,,x
9,13,Presentation,0,00801941205fa_sunagvprlbprarvgdvj.jpg,00893960530Fa_sunaloffvbvysigxent.jpg,00801941205fa.jpg,sunagvprlbprarvgdvj.jpg,00893960530Fa.jpg,sunaloffvbvysigxent.jpg,,,>,Face,,,,,1,,,,,,,x
10,13,Memory,0,,,,,,,00901960530fa.jpg,,,,,,,,,,,,,,,
11,13,Memory,0,,,,,,,sunadnjjzohjhbohlwq.jpg,,,,,,,,,,,,,,,
12,13,Memory,0,,,,,,,sunabxsbfwjccqxxzxq.jpg,,,,,,,,,,,,,,,
13,13,Memory,0,,,,,,,00559940519fa.jpg,,,,,,,,,,,,,,,
14,13,Memory,0,,,,,,,sunabxsuqbleluwczoy.jpg,,,,,,,,,,,,,,,
15,13,Memory,0,,,,,,,00663941121fa.jpg,,,,,,,,,,,,,,,
16,13,Memory,0,,,,,,,sunacjkmnpawfzbyvae.jpg,,,,,,,,,,,,,,,
17,13,Memory,0,,,,,,,sunadflbrkckmepztql.jpg,,,,,,,,,,,,,,,
18,13,Memory,0,,,,,,,00070940307fa.jpg,,,,,,,,,,,,,,,
19,13,Memory,0,,,,,,,00754941201fa.jpg,,,,,,,,,,,,,,,
20,13,Memory,0,,,,,,,sunbxzweleltykebgan.jpg,,,,,,,,,,,,,,,
21,13,Memory,0,,,,,,,sunaobtizabegtwfwul.jpg,,,,,,,,,,,,,,,
22,13,Memory,0,,,,,,,sunaffgsyyvoqdlkmnk.jpg,,,,,,,,,,,,,,,
23,13,Memory,0,,,,,,,00911960530fa.jpg,,,,,,,,,,,,,,,
24,13,Memory,0,,,,,,,sunbaoizrfijvhpnnjn.jpg,,,,,,,,,,,,,,,
25,13,Memory,0,,,,,,,sunafowswglhxcsufpo.jpg,,,,,,,,,,,,,,,
26,13,Memory,0,,,,,,,sunammbnoambmhdxdwd.jpg,,,,,,,,,,,,,,,
27,13,Memory,0,,,,,,,00725941201fa.jpg,,,,,,,,,,,,,,,
28,13,Memory,0,,,,,,,sunaawqdbpihmlbwyyn.jpg,,,,,,,,,,,,,,,
29,13,Memory,0,,,,,,,sunaaeplwsfslcbtojr.jpg,,,,,,,,,,,,,,,
30,13,Memory,0,,,,,,,01009960627fa.jpg,,,,,,,,,,,,,,,
31,13,Memory,0,,,,,,,00479940519fa.jpg,,,,,,,,,,,,,,,
32,13,Memory,0,,,,,,,00647941031fa.jpg,,,,,,,,,,,,,,,
33,13,Memory,0,,,,,,,sunaooaqzputrowwbsw.jpg,,,,,,,,,,,,,,,
34,13,Memory,0,,,,,,,00969960627fa.jpg,,,,,,,,,,,,,,,
35,13,Memory,0,,,,,,,00096931230fa.jpg,,,,,,,,,,,,,,,
36,13,Memory,0,,,,,,,sunaakxgygjfqrzpyoz.jpg,,,,,,,,,,,,,,,
37,13,Memory,0,,,,,,,00302940422fa.jpg,,,,,,,,,,,,,,,
38,13,Memory,0,,,,,,,00993960627fa.jpg,,,,,,,,,,,,,,,
39,13,Memory,0,,,,,,,sunabtlfmiwtljmoues.jpg,,,,,,,,,,,,,,,
40,13,Memory,0,,,,,,,sunaaiqiqcggrskoqgy.jpg,,,,,,,,,,,,,,,
41,13,Memory,0,,,,,,,00481940519fa.jpg,,,,,,,,,,,,,,,
42,13,Memory,0,,,,,,,sunaefgzwiramypjvtd.jpg,,,,,,,,,,,,,,,
43,13,Memory,0,,,,,,,00893960530Fa.jpg,,,,,,,,,,,,,,,
44,13,Memory,0,,,,,,,00909960530.jpg,,,,,,,,,,,,,,,
45,13,Memory,0,,,,,,,00185940422fb.jpg,,,,,,,,,,,,,,,
46,13,Memory,0,,,,,,,sunbprywzqxjcezkbch.jpg,,,,,,,,,,,,,,,
47,13,Memory,0,,,,,,,sunaloffvbvysigxent.jpg,,,,,,,,,,,,,,,
48,13,Memory,0,,,,,,,00771941205fa.jpg,,,,,,,,,,,,,,,
49,13,Memory,0,,,,,,,00120931230fa.jpg,,,,,,,,,,,,,,,
50,13,Presentation,1,00290940422fa_sunabqowuarvqqcnipn.jpg,00071941031fa_sunaaexqbtdswxrqjvz.jpg,00290940422fa.jpg,sunabqowuarvqqcnipn.jpg,00071941031fa.jpg,sunaaexqbtdswxrqjvz.jpg,,,>,Place,,,,,1,,,,,,,x
51,13,Presentation,1,00971960627fa_sunbbegcweqnetpdlrh.jpg,00773941201fa_sunafvcflzhlqloapyo.jpg,00971960627fa.jpg,sunbbegcweqnetpdlrh.jpg,00773941201fa.jpg,sunafvcflzhlqloapyo.jpg,,,>,Place,,,,,1,,,,,,,x
52,13,Presentation,1,00752960620fa_sunafbwnojpqeyzssoe.jpg,00838940307fa_sunaiozxhxgtfrmoagh.jpg,00752960620fa.jpg,sunafbwnojpqeyzssoe.jpg,00838940307fa.jpg,sunaiozxhxgtfrmoagh.jpg,,,>,Place,,,,,1,,,,,,,x
53,13,Presentation,1,00915960620fa_sunapileznnbbmrwoei.jpg,00138931230fa_sunaapfaivxqoynnwwp.jpg,00915960620fa.jpg,sunapileznnbbmrwoei.jpg,00138931230fa.jpg,sunaapfaivxqoynnwwp.jpg,,,>,Place,,,,,1,,,,,,,o
54,13,Presentation,1,00676941121fa_sunadpnqovzckyikrjo.jpg,00902960530fa_sunanaacmmosxrfwmvl.jpg,00676941121fa.jpg,sunadpnqovzckyikrjo.jpg,00902960530fa.jpg,sunanaacmmosxrfwmvl.jpg,,,>,Place,,,,,1,,,,,,,x
55,13,Presentation,1,00796941205fa_sunaguchqqnrtodtezq.jpg,00208940128fa_sunaazzyhbvqjpmazjq.jpg,00796941205fa.jpg,sunaguchqqnrtodtezq.jpg,00208940128fa.jpg,sunaazzyhbvqjpmazjq.jpg,,,>,Place,,,,,1,,,,,,,o
56,13,Presentation,1,00939960627fa_sunarceibpcyacbmfga.jpg,00789960620fa_sunagpancjmxqfazssf.jpg,00939960627fa.jpg,sunarceibpcyacbmfga.jpg,00789960620fa.jpg,sunagpancjmxqfazssf.jpg,,,>,Place,,,,,1,,,,,,,o
57,13,Presentation,1,00670941121fa_sunadochqcucscehsgk.jpg,00816941205fa_sunahmhrncocyhsjpxk.jpg,00670941121fa.jpg,sunadochqcucscehsgk.jpg,00816941205fa.jpg,sunahmhrncocyhsjpxk.jpg,,,>,Place,,,,,1,,,,,,,o
58,13,Presentation,1,00598940928fa_sunacxeheuiigkcgquf.jpg,00218940128fa_sunabbwggenhfbftyvi.jpg,00598940928fa.jpg,sunacxeheuiigkcgquf.jpg,00218940128fa.jpg,sunabbwggenhfbftyvi.jpg,,,>,Place,,,,,0,,,,,,,x
59,13,Presentation,1,00774941201fa_sunafvtpfczkzopbgue.jpg,00097931230fa_sunaajayojuslbbnneg.jpg,00774941201fa.jpg,sunafvtpfczkzopbgue.jpg,00097931230fa.jpg,sunaajayojuslbbnneg.jpg,,,>,Place,,,,,1,,,,,,,x
60,13,Memory,1,,,,,,,00895960530fa.jpg,,,,,,,,,,,,,,,
61,13,Memory,1,,,,,,,sunaanjcbzdvtvblsdy.jpg,,,,,,,,,,,,,,,
62,13,Memory,1,,,,,,,sunapileznnbbmrwoei.jpg,,,,,,,,,,,,,,,
63,13,Memory,1,,,,,,,00124931230fa.jpg,,,,,,,,,,,,,,,
64,13,Memory,1,,,,,,,sunahawfngukizslzsd.jpg,,,,,,,,,,,,,,,
65,13,Memory,1,,,,,,,00939960627fa.jpg,,,,,,,,,,,,,,,
66,13,Memory,1,,,,,,,sunarceibpcyacbmfga.jpg,,,,,,,,,,,,,,,
67,13,Memory,1,,,,,,,00071941031fa.jpg,,,,,,,,,,,,,,,
68,13,Memory,1,,,,,,,sunantryfbloeaomfta.jpg,,,,,,,,,,,,,,,
69,13,Memory,1,,,,,,,00807941205fa.jpg,,,,,,,,,,,,,,,
70,13,Memory,1,,,,,,,sunabbwggenhfbftyvi.jpg,,,,,,,,,,,,,,,
71,13,Memory,1,,,,,,,sunadpnqovzckyikrjo.jpg,,,,,,,,,,,,,,,
72,13,Memory,1,,,,,,,00132931230fb.jpg,,,,,,,,,,,,,,,
73,13,Memory,1,,,,,,,sunaaexqbtdswxrqjvz.jpg,,,,,,,,,,,,,,,
74,13,Memory,1,,,,,,,00218940128fa.jpg,,,,,,,,,,,,,,,
75,13,Memory,1,,,,,,,sunamczizlzavhzhpay.jpg,,,,,,,,,,,,,,,
76,13,Memory,1,,,,,,,00676941121fa.jpg,,,,,,,,,,,,,,,
77,13,Memory,1,,,,,,,sunaekgzpfilgjxpeyq.jpg,,,,,,,,,,,,,,,
78,13,Memory,1,,,,,,,sunaivdjruhkrfywfed.jpg,,,,,,,,,,,,,,,
79,13,Memory,1,,,,,,,00730960620fa.jpg,,,,,,,,,,,,,,,
80,13,Memory,1,,,,,,,sunacbeefkxpymwevpk.jpg,,,,,,,,,,,,,,,
81,13,Memory,1,,,,,,,00847940307fa.jpg,,,,,,,,,,,,,,,
82,13,Memory,1,,,,,,,00752960620fa.jpg,,,,,,,,,,,,,,,
83,13,Memory,1,,,,,,,00138931230fa.jpg,,,,,,,,,,,,,,,
84,13,Memory,1,,,,,,,00838940307fa.jpg,,,,,,,,,,,,,,,
85,13,Memory,1,,,,,,,00529940519fa.jpg,,,,,,,,,,,,,,,
86,13,Memory,1,,,,,,,sunajawzbrlrwafowen.jpg,,,,,,,,,,,,,,,
87,13,Memory,1,,,,,,,00864940307fa.jpg,,,,,,,,,,,,,,,
88,13,Memory,1,,,,,,,sunadfktsqjthoglcsm.jpg,,,,,,,,,,,,,,,
89,13,Memory,1,,,,,,,sunafbwnojpqeyzssoe.jpg,,,,,,,,,,,,,,,
90,13,Memory,1,,,,,,,sunaiozxhxgtfrmoagh.jpg,,,,,,,,,,,,,,,
91,13,Memory,1,,,,,,,sunaapfaivxqoynnwwp.jpg,,,,,,,,,,,,,,,
92,13,Memory,1,,,,,,,00906960530fa.jpg,,,,,,,,,,,,,,,
93,13,Memory,1,,,,,,,sunacxeheuiigkcgquf.jpg,,,,,,,,,,,,,,,
94,13,Memory,1,,,,,,,00789960620fa.jpg,,,,,,,,,,,,,,,
95,13,Memory,1,,,,,,,00598940928fa.jpg,,,,,,,,,,,,,,,
96,13,Memory,1,,,,,,,00638941031fa.jpg,,,,,,,,,,,,,,,
97,13,Memory,1,,,,,,,00915960620fa.jpg,,,,,,,,,,,,,,,
98,13,Memory,1,,,,,,,sunaalhlvzmjmitybdn.jpg,,,,,,,,,,,,,,,
99,13,Memory,1,,,,,,,sunagpancjmxqfazssf.jpg,,,,,,,,,,,,,,,
100,13,Presentation,2,00093931230fa_sunaahwnmtqsrhocysw.jpg,00214940128fa_sunabbafjowbzcvbucc.jpg,00093931230fa.jpg,sunaahwnmtqsrhocysw.jpg,00214940128fa.jpg,sunabbafjowbzcvbucc.jpg,,,<,Place,,,,,1,,,,,,,o
101,13,Presentation,2,00910960530fa_sunaofikylqtxphvdem.jpg,00887960530_sunalcrtwiycqobgelp.jpg,00910960530fa.jpg,sunaofikylqtxphvdem.jpg,00887960530.jpg,sunalcrtwiycqobgelp.jpg,,,<,Place,,,,,1,,,,,,,o
102,13,Presentation,2,00133931230fa_sunaanlwnpqndclffxt.jpg,00260940128fa_sunabgfhvifeijihhjw.jpg,00133931230fa.jpg,sunaanlwnpqndclffxt.jpg,00260940128fa.jpg,sunabgfhvifeijihhjw.jpg,,,<,Place,,,,,1,,,,,,,x
103,13,Presentation,2,00800941205fb_sunagvjurcwdbixvnyi.jpg,00092931230fa_sunaaheqzstzxuadglu.jpg,00800941205fb.jpg,sunagvjurcwdbixvnyi.jpg,00092931230fa.jpg,sunaaheqzstzxuadglu.jpg,,,<,Place,,,,,1,,,,,,,o
104,13,Presentation,2,00631940928fa_sunadbdqzigzwipuipr.jpg,00727941205fa_sunaeisnjeetzmkbuad.jpg,00631940928fa.jpg,sunadbdqzigzwipuipr.jpg,00727941205fa.jpg,sunaeisnjeetzmkbuad.jpg,,,<,Place,,,,,1,,,,,,,o
105,13,Presentation,2,00130931230fa_sunaamvxnvouicstkjb.jpg,00193940928fa_sunaaxjpzcnxligjtjq.jpg,00130931230fa.jpg,sunaamvxnvouicstkjb.jpg,00193940928fa.jpg,sunaaxjpzcnxligjtjq.jpg,,,<,Place,,,,,1,,,,,,,o
106,13,Presentation,2,00874940307fa_sunajtrfunvzdfticna.jpg,00970960627fa_sunbasypfgzjtomktmu.jpg,00874940307fa.jpg,sunajtrfunvzdfticna.jpg,00970960627fa.jpg,sunbasypfgzjtomktmu.jpg,,,<,Place,,,,,1,,,,,,,x
107,13,Presentation,2,00149931230fa_sunaauglwmctnkxyird.jpg,00957960627fa_sunavhxgmgrqsaptynb.jpg,00149931230fa.jpg,sunaauglwmctnkxyird.jpg,00957960627fa.jpg,sunavhxgmgrqsaptynb.jpg,,,<,Place,,,,,1,,,,,,,o
108,13,Presentation,2,00996960627fa_sunbpvgllfdejxcpjqp.jpg,00989960627fa_sunbondbduabvijnmch.jpg,00996960627fa.jpg,sunbpvgllfdejxcpjqp.jpg,00989960627fa.jpg,sunbondbduabvijnmch.jpg,,,<,Place,,,,,0,,,,,,,o
109,13,Presentation,2,00264940128fb_sunabjzyxcjnmztdonj.jpg,01000960627fa_sunbvzmgrdvaakxusbu.jpg,00264940128fb.jpg,sunabjzyxcjnmztdonj.jpg,01000960627fa.jpg,sunbvzmgrdvaakxusbu.jpg,,,<,Place,,,,,1,,,,,,,x
110,13,Memory,2,,,,,,,00957960627fa.jpg,,,,,,,,,,,,,,,
111,13,Memory,2,,,,,,,sunafvsxtzaizojicxx.jpg,,,,,,,,,,,,,,,
112,13,Memory,2,,,,,,,sunaafynehyrzpsoaml.jpg,,,,,,,,,,,,,,,
113,13,Memory,2,,,,,,,00065931230fb.jpg,,,,,,,,,,,,,,,
114,13,Memory,2,,,,,,,sunaanlwnpqndclffxt.jpg,,,,,,,,,,,,,,,
115,13,Memory,2,,,,,,,00260940128fa.jpg,,,,,,,,,,,,,,,
116,13,Memory,2,,,,,,,sunbpvgllfdejxcpjqp.jpg,,,,,,,,,,,,,,,
117,13,Memory,2,,,,,,,sunabizydfotqddlnjp.jpg,,,,,,,,,,,,,,,
118,13,Memory,2,,,,,,,00874940307fa.jpg,,,,,,,,,,,,,,,
119,13,Memory,2,,,,,,,00214940128fa.jpg,,,,,,,,,,,,,,,
120,13,Memory,2,,,,,,,00062931230fb.jpg,,,,,,,,,,,,,,,
121,13,Memory,2,,,,,,,00133931230fa.jpg,,,,,,,,,,,,,,,
122,13,Memory,2,,,,,,,sunaampvucecsfbdafn.jpg,,,,,,,,,,,,,,,
123,13,Memory,2,,,,,,,00086931230fa.jpg,,,,,,,,,,,,,,,
124,13,Memory,2,,,,,,,00568940928fa.jpg,,,,,,,,,,,,,,,
125,13,Memory,2,,,,,,,00092931230fa.jpg,,,,,,,,,,,,,,,
126,13,Memory,2,,,,,,,00264940128fb.jpg,,,,,,,,,,,,,,,
127,13,Memory,2,,,,,,,00127931230fa.jpg,,,,,,,,,,,,,,,
128,13,Memory,2,,,,,,,sunabjzyxcjnmztdonj.jpg,,,,,,,,,,,,,,,
129,13,Memory,2,,,,,,,sunacsdhbbsybcyxnel.jpg,,,,,,,,,,,,,,,
130,13,Memory,2,,,,,,,sunaknlirqjqiwbbeeg.jpg,,,,,,,,,,,,,,,
131,13,Memory,2,,,,,,,00943960627fa.jpg,,,,,,,,,,,,,,,
132,13,Memory,2,,,,,,,00262940128fa.jpg,,,,,,,,,,,,,,,
133,13,Memory,2,,,,,,,00996960627fa.jpg,,,,,,,,,,,,,,,
134,13,Memory,2,,,,,,,sunaaheqzstzxuadglu.jpg,,,,,,,,,,,,,,,
135,13,Memory,2,,,,,,,sunadbdqzigzwipuipr.jpg,,,,,,,,,,,,,,,
136,13,Memory,2,,,,,,,sunabbafjowbzcvbucc.jpg,,,,,,,,,,,,,,,
137,13,Memory,2,,,,,,,sunabgfhvifeijihhjw.jpg,,,,,,,,,,,,,,,
138,13,Memory,2,,,,,,,sunahbvlpavurqoxdeq.jpg,,,,,,,,,,,,,,,
139,13,Memory,2,,,,,,,sunaaemixhfquhnxxlm.jpg,,,,,,,,,,,,,,,
140,13,Memory,2,,,,,,,00773960620fa.jpg,,,,,,,,,,,,,,,
141,13,Memory,2,,,,,,,sunajtrfunvzdfticna.jpg,,,,,,,,,,,,,,,
142,13,Memory,2,,,,,,,sunarpsxqkduedrrzyi.jpg,,,,,,,,,,,,,,,
143,13,Memory,2,,,,,,,00989960627fa.jpg,,,,,,,,,,,,,,,
144,13,Memory,2,,,,,,,00809960620fa.jpg,,,,,,,,,,,,,,,
145,13,Memory,2,,,,,,,sunavhxgmgrqsaptynb.jpg,,,,,,,,,,,,,,,
146,13,Memory,2,,,,,,,sunbondbduabvijnmch.jpg,,,,,,,,,,,,,,,
147,13,Memory,2,,,,,,,00882960530fa.jpg,,,,,,,,,,,,,,,
148,13,Memory,2,,,,,,,00631940928fa.jpg,,,,,,,,,,,,,,,
149,13,Memory,2,,,,,,,sunaaelotvjgibjtjhs.jpg,,,,,,,,,,,,,,,
150,13,Presentation,3,00908960530fa_sunanwjjyqqwzqrqagd.jpg,00746941201fa_sunaetydippjxikifsb.jpg,00908960530fa.jpg,sunanwjjyqqwzqrqagd.jpg,00746941201fa.jpg,sunaetydippjxikifsb.jpg,,,<,Face,,,,,0,,,,,,,o
151,13,Presentation,3,00276940422fa_sunabmytpyhsgigllxu.jpg,00123931230fb_sunaalcrrdbjgdztbiz.jpg,00276940422fa.jpg,sunabmytpyhsgigllxu.jpg,00123931230fb.jpg,sunaalcrrdbjgdztbiz.jpg,,,<,Face,,,,,1,,,,,,,x
152,13,Presentation,3,00871940307_sunajrujcsdxmfbssmc.jpg,00876960620fa_sunajwqkfsykceonyig.jpg,00871940307.jpg,sunajrujcsdxmfbssmc.jpg,00876960620fa.jpg,sunajwqkfsykceonyig.jpg,,,<,Face,,,,,1,,,,,,,x
153,13,Presentation,3,00973960627fa_sunbbgtoeuzierkkajt.jpg,00505960627fa_sunabzuqsrgcsonqlkz.jpg,00973960627fa.jpg,sunbbgtoeuzierkkajt.jpg,00505960627fa.jpg,sunabzuqsrgcsonqlkz.jpg,,,<,Face,,,,,1,,,,,,,x
154,13,Presentation,3,00576941031fa_sunacvjlsylseoghjup.jpg,00976960627fa_sunbbhqyyzmsxhsbjmp.jpg,00576941031fa.jpg,sunacvjlsylseoghjup.jpg,00976960627fa.jpg,sunbbhqyyzmsxhsbjmp.jpg,,,<,Face,,,,,1,,,,,,,o
155,13,Presentation,3,00482940519fa_sunabyfxcxhdebvdyfd.jpg,00109931230fa_sunaajuzribjrizdshh.jpg,00482940519fa.jpg,sunabyfxcxhdebvdyfd.jpg,00109931230fa.jpg,sunaajuzribjrizdshh.jpg,,,<,Face,,,,,1,,,,,,,o
156,13,Presentation,3,00999960627fa_sunbvbrvgbpanfrawft.jpg,00929960627fa_sunaprnrbmgkomdbchr.jpg,00999960627fa.jpg,sunbvbrvgbpanfrawft.jpg,00929960627fa.jpg,sunaprnrbmgkomdbchr.jpg,,,<,Face,,,,,1,,,,,,,x
157,13,Presentation,3,00841940307fa_sunaisiwfgppimtnmxl.jpg,00942960627fa_sunarfdklgdnjgeqfjg.jpg,00841940307fa.jpg,sunaisiwfgppimtnmxl.jpg,00942960627fa.jpg,sunarfdklgdnjgeqfjg.jpg,,,<,Face,,,,,1,,,,,,,x
158,13,Presentation,3,00979960627fa_sunbdycacjfaujxitbw.jpg,00081941031fa_sunaaftlyfudyzuhqzf.jpg,00979960627fa.jpg,sunbdycacjfaujxitbw.jpg,00081941031fa.jpg,sunaaftlyfudyzuhqzf.jpg,,,<,Face,,,,,1,,,,,,,o
159,13,Presentation,3,00483940519fa_sunabyvpwkgsjtijdwj.jpg,00742941201fa_sunaenwuebvlpdmntju.jpg,00483940519fa.jpg,sunabyvpwkgsjtijdwj.jpg,00742941201fa.jpg,sunaenwuebvlpdmntju.jpg,,,<,Face,,,,,1,,,,,,,x
160,13,Memory,3,,,,,,,00211940128fa.jpg,,,,,,,,,,,,,,,
161,13,Memory,3,,,,,,,sunabyvpwkgsjtijdwj.jpg,,,,,,,,,,,,,,,
162,13,Memory,3,,,,,,,00095931230fa.jpg,,,,,,,,,,,,,,,
163,13,Memory,3,,,,,,,00270940422fb.jpg,,,,,,,,,,,,,,,
164,13,Memory,3,,,,,,,sunadakkdovnuzlycvp.jpg,,,,,,,,,,,,,,,
165,13,Memory,3,,,,,,,00742941201fa.jpg,,,,,,,,,,,,,,,
166,13,Memory,3,,,,,,,sunacvjlsylseoghjup.jpg,,,,,,,,,,,,,,,
167,13,Memory,3,,,,,,,00483940519fa.jpg,,,,,,,,,,,,,,,
168,13,Memory,3,,,,,,,00908960530fa.jpg,,,,,,,,,,,,,,,
169,13,Memory,3,,,,,,,00576941031fa.jpg,,,,,,,,,,,,,,,
170,13,Memory,3,,,,,,,00854940307fa.jpg,,,,,,,,,,,,,,,
171,13,Memory,3,,,,,,,sunaiwduelojtwaqeyh.jpg,,,,,,,,,,,,,,,
172,13,Memory,3,,,,,,,00630941031fa.jpg,,,,,,,,,,,,,,,
173,13,Memory,3,,,,,,,sunasrjlmglmjzbmqxb.jpg,,,,,,,,,,,,,,,
174,13,Memory,3,,,,,,,sunaprnrbmgkomdbchr.jpg,,,,,,,,,,,,,,,
175,13,Memory,3,,,,,,,00081941031fa.jpg,,,,,,,,,,,,,,,
176,13,Memory,3,,,,,,,sunabasphceswhwwqvv.jpg,,,,,,,,,,,,,,,
177,13,Memory,3,,,,,,,00976960627fa.jpg,,,,,,,,,,,,,,,
178,13,Memory,3,,,,,,,00929960627fa.jpg,,,,,,,,,,,,,,,
179,13,Memory,3,,,,,,,sunaaehaikpckyjsety.jpg,,,,,,,,,,,,,,,
180,13,Memory,3,,,,,,,sunaaftlyfudyzuhqzf.jpg,,,,,,,,,,,,,,,
181,13,Memory,3,,,,,,,sunaahzooisqkwlxwoz.jpg,,,,,,,,,,,,,,,
182,13,Memory,3,,,,,,,sunajwqkfsykceonyig.jpg,,,,,,,,,,,,,,,
183,13,Memory,3,,,,,,,00979960627fa.jpg,,,,,,,,,,,,,,,
184,13,Memory,3,,,,,,,00140931230fb.jpg,,,,,,,,,,,,,,,
185,13,Memory,3,,,,,,,00950960627fa.jpg,,,,,,,,,,,,,,,
186,13,Memory,3,,,,,,,sunaathajvxrgptwhoj.jpg,,,,,,,,,,,,,,,
187,13,Memory,3,,,,,,,00841940307fa.jpg,,,,,,,,,,,,,,,
188,13,Memory,3,,,,,,,sunbdycacjfaujxitbw.jpg,,,,,,,,,,,,,,,
189,13,Memory,3,,,,,,,00060931230fa.jpg,,,,,,,,,,,,,,,
190,13,Memory,3,,,,,,,sunaisiwfgppimtnmxl.jpg,,,,,,,,,,,,,,,
191,13,Memory,3,,,,,,,00876960620fa.jpg,,,,,,,,,,,,,,,
192,13,Memory,3,,,,,,,sunaenwuebvlpdmntju.jpg,,,,,,,,,,,,,,,
193,13,Memory,3,,,,,,,sunagjzcrjvmxzqzljx.jpg,,,,,,,,,,,,,,,
194,13,Memory,3,,,,,,,sunbbhqyyzmsxhsbjmp.jpg,,,,,,,,,,,,,,,
195,13,Memory,3,,,,,,,00144931230fb.jpg,,,,,,,,,,,,,,,
196,13,Memory,3,,,,,,,sunaapllqyqlykszopd.jpg,,,,,,,,,,,,,,,
197,13,Memory,3,,,,,,,sunanwjjyqqwzqrqagd.jpg,,,,,,,,,,,,,,,
198,13,Memory,3,,,,,,,00784941205fb.jpg,,,,,,,,,,,,,,,
199,13,Memory,3,,,,,,,sunabllobxadqcyttej.jpg,,,,,,,,,,,,,,,
200,13,Presentation,4,00163931230fb_sunaavodbcpygkggnfp.jpg,00787941205fa_sunagmwxxwymwojbvgi.jpg,00163931230fb.jpg,sunaavodbcpygkggnfp.jpg,00787941205fa.jpg,sunagmwxxwymwojbvgi.jpg,,,<,Place,,,,,1,,,,,,,x
201,13,Presentation,4,00753941201fa_sunafcofuuzebuadceo.jpg,00952960627fa_sunathzzbcwjykldrem.jpg,00753941201fa.jpg,sunafcofuuzebuadceo.jpg,00952960627fa.jpg,sunathzzbcwjykldrem.jpg,,,<,Place,,,,,1,,,,,,,o
202,13,Presentation,4,00988960627fa_sunbmaiocftdtvnzgap.jpg,00122931230fa_sunaakxjfbrrequcjmx.jpg,00988960627fa.jpg,sunbmaiocftdtvnzgap.jpg,00122931230fa.jpg,sunaakxjfbrrequcjmx.jpg,,,<,Place,,,,,1,,,,,,,o
203,13,Presentation,4,00571940928fa_sunacuatpqpqhyjhjqk.jpg,00811960530fa_sunahedfrhtcwpneund.jpg,00571940928fa.jpg,sunacuatpqpqhyjhjqk.jpg,00811960530fa.jpg,sunahedfrhtcwpneund.jpg,,,<,Place,,,,,0,,,,,,,x
204,13,Presentation,4,00648941031fa_sunadfndyrtqqiasoig.jpg,00634940928fa_sunadcphrizvfpljiqt.jpg,00648941031fa.jpg,sunadfndyrtqqiasoig.jpg,00634940928fa.jpg,sunadcphrizvfpljiqt.jpg,,,<,Place,,,,,1,,,,,,,x
205,13,Presentation,4,00119931230fb_sunaakvmbftkrgqhjun.jpg,00705960530fa_sunaduslxfzlbxlllnz.jpg,00119931230fb.jpg,sunaakvmbftkrgqhjun.jpg,00705960530fa.jpg,sunaduslxfzlbxlllnz.jpg,,,<,Place,,,,,1,,,,,,,o
206,13,Presentation,4,00889960530fa_sunaletopenvvozhpxc.jpg,00777941205fa_sunagcinxkccdtrjmlv.jpg,00889960530fa.jpg,sunaletopenvvozhpxc.jpg,00777941205fa.jpg,sunagcinxkccdtrjmlv.jpg,,,<,Place,,,,,1,,,,,,,o
207,13,Presentation,4,00267940128fb_sunablfqiwfqomjarht.jpg,00851940307fa_sunaivflshbyfrfzhqb.jpg,00267940128fb.jpg,sunablfqiwfqomjarht.jpg,00851940307fa.jpg,sunaivflshbyfrfzhqb.jpg,,,<,Place,,,,,1,,,,,,,o
208,13,Presentation,4,00770941201fa_sunaflojskatpeqyzqp.jpg,00810941205fa_sunahctntqrunhdxhtb.jpg,00770941201fa.jpg,sunaflojskatpeqyzqp.jpg,00810941205fa.jpg,sunahctntqrunhdxhtb.jpg,,,<,Place,,,,,1,,,,,,,o
209,13,Presentation,4,00760960620fa_sunaffstbkappprzxnv.jpg,00705941205fa_sunadtlxenqqxsyjvix.jpg,00760960620fa.jpg,sunaffstbkappprzxnv.jpg,00705941205fa.jpg,sunadtlxenqqxsyjvix.jpg,,,<,Place,,,,,1,,,,,,,x
210,13,Memory,4,,,,,,,sunbmaiocftdtvnzgap.jpg,,,,,,,,,,,,,,,
211,13,Memory,4,,,,,,,sunahrltmuwbiehihpe.jpg,,,,,,,,,,,,,,,
212,13,Memory,4,,,,,,,sunadcphrizvfpljiqt.jpg,,,,,,,,,,,,,,,
213,13,Memory,4,,,,,,,sunaletopenvvozhpxc.jpg,,,,,,,,,,,,,,,
214,13,Memory,4,,,,,,,sunaydywdmvlfddbxbk.jpg,,,,,,,,,,,,,,,
215,13,Memory,4,,,,,,,00953960627fa.jpg,,,,,,,,,,,,,,,
216,13,Memory,4,,,,,,,sunaqgjuuwvdcyiccjt.jpg,,,,,,,,,,,,,,,
217,13,Memory,4,,,,,,,00296940422fa.jpg,,,,,,,,,,,,,,,
218,13,Memory,4,,,,,,,00903960620fa.jpg,,,,,,,,,,,,,,,
219,13,Memory,4,,,,,,,00988960627fa.jpg,,,,,,,,,,,,,,,
220,13,Memory,4,,,,,,,sunaemcowdozyphwknd.jpg,,,,,,,,,,,,,,,
221,13,Memory,4,,,,,,,sunatstrpjxhvtbaczf.jpg,,,,,,,,,,,,,,,
222,13,Memory,4,,,,,,,00825940307fa.jpg,,,,,,,,,,,,,,,
223,13,Memory,4,,,,,,,00760960620fa.jpg,,,,,,,,,,,,,,,
224,13,Memory,4,,,,,,,00965960627fa.jpg,,,,,,,,,,,,,,,
225,13,Memory,4,,,,,,,00705941205fa.jpg,,,,,,,,,,,,,,,
226,13,Memory,4,,,,,,,sunaaelyvurpntclgau.jpg,,,,,,,,,,,,,,,
227,13,Memory,4,,,,,,,00063931230fa.jpg,,,,,,,,,,,,,,,
228,13,Memory,4,,,,,,,00889960530fa.jpg,,,,,,,,,,,,,,,
229,13,Memory,4,,,,,,,00634940928fa.jpg,,,,,,,,,,,,,,,
230,13,Memory,4,,,,,,,00787941205fa.jpg,,,,,,,,,,,,,,,
231,13,Memory,4,,,,,,,sunanainkqdvktzoxyl.jpg,,,,,,,,,,,,,,,
232,13,Memory,4,,,,,,,sunagmwxxwymwojbvgi.jpg,,,,,,,,,,,,,,,
233,13,Memory,4,,,,,,,00770941201fa.jpg,,,,,,,,,,,,,,,
234,13,Memory,4,,,,,,,00936960627fa.jpg,,,,,,,,,,,,,,,
235,13,Memory,4,,,,,,,00119931230fb.jpg,,,,,,,,,,,,,,,
236,13,Memory,4,,,,,,,sunadtlxenqqxsyjvix.jpg,,,,,,,,,,,,,,,
237,13,Memory,4,,,,,,,sunaffstbkappprzxnv.jpg,,,,,,,,,,,,,,,
238,13,Memory,4,,,,,,,00681941121fa.jpg,,,,,,,,,,,,,,,
239,13,Memory,4,,,,,,,00630940928fa.jpg,,,,,,,,,,,,,,,
240,13,Memory,4,,,,,,,sunaflojskatpeqyzqp.jpg,,,,,,,,,,,,,,,
241,13,Memory,4,,,,,,,sunaczwgyukesaajxnx.jpg,,,,,,,,,,,,,,,
242,13,Memory,4,,,,,,,00952960627fa.jpg,,,,,,,,,,,,,,,
243,13,Memory,4,,,,,,,sunathzzbcwjykldrem.jpg,,,,,,,,,,,,,,,
244,13,Memory,4,,,,,,,sunadqmjrhfjyuzyvdd.jpg,,,,,,,,,,,,,,,
245,13,Memory,4,,,,,,,00741941201fa.jpg,,,,,,,,,,,,,,,
246,13,Memory,4,,,,,,,sunabrwnslxalcohfre.jpg,,,,,,,,,,,,,,,
247,13,Memory,4,,,,,,,sunaakvmbftkrgqhjun.jpg,,,,,,,,,,,,,,,
248,13,Memory,4,,,,,,,00851940307fa.jpg,,,,,,,,,,,,,,,
249,13,Memory,4,,,,,,,sunaivflshbyfrfzhqb.jpg,,,,,,,,,,,,,,,
250,13,Presentation,5,00548940519fa_sunacerqowiaeoqkmsq.jpg,00921960627fa_sunapqkpqdfvxlbqwyo.jpg,00548940519fa.jpg,sunacerqowiaeoqkmsq.jpg,00921960627fa.jpg,sunapqkpqdfvxlbqwyo.jpg,,,>,Place,,,,,1,,,,,,,o
251,13,Presentation,5,00210940128fb_sunabanoxjtqxamkucc.jpg,00788941205fa_sunagountlxpzkytsmp.jpg,00210940128fb.jpg,sunabanoxjtqxamkucc.jpg,00788941205fa.jpg,sunagountlxpzkytsmp.jpg,,,>,Place,,,,,1,,,,,,,o
252,13,Presentation,5,00662941121fa_sunadkazmlajmohnwfl.jpg,00194940128fb_sunaayehfdqcyxggsej.jpg,00662941121fa.jpg,sunadkazmlajmohnwfl.jpg,00194940128fb.jpg,sunaayehfdqcyxggsej.jpg,,,>,Place,,,,,1,,,,,,,x
253,13,Presentation,5,00620940928fa_sunacypmnujalygkunp.jpg,00227940128fa_sunabckqabszusgcykj.jpg,00620940928fa.jpg,sunacypmnujalygkunp.jpg,00227940128fa.jpg,sunabckqabszusgcykj.jpg,,,>,Place,,,,,1,,,,,,,x
254,13,Presentation,5,00967960627fa_sunbaejotfklekvpxcz.jpg,00815941205fa_sunahiphsekjihkafsl.jpg,00967960627fa.jpg,sunbaejotfklekvpxcz.jpg,00815941205fa.jpg,sunahiphsekjihkafsl.jpg,,,>,Place,,,,,1,,,,,,,o
255,13,Presentation,5,00554940519fa_sunacfdkbsrughwqwtt.jpg,00700941121fa_sunadsgmtznewzyasnk.jpg,00554940519fa.jpg,sunacfdkbsrughwqwtt.jpg,00700941121fa.jpg,sunadsgmtznewzyasnk.jpg,,,>,Place,,,,,1,,,,,,,o
256,13,Presentation,5,00949960627fb_sunasnqkkyhilqkxiqm.jpg,00870940307fa_sunajrgtewnualfcerj.jpg,00949960627fb.jpg,sunasnqkkyhilqkxiqm.jpg,00870940307fa.jpg,sunajrgtewnualfcerj.jpg,,,>,Place,,,,,1,,,,,,,o
257,13,Presentation,5,00900960530fa_sunamlotskmmsjeogby.jpg,00983960627fa_sunbfyvfqiimvdaxlqn.jpg,00900960530fa.jpg,sunamlotskmmsjeogby.jpg,00983960627fa.jpg,sunbfyvfqiimvdaxlqn.jpg,,,>,Place,,,,,1,,,,,,,x
258,13,Presentation,5,00636941031fa_sunaddtdkycxbqlpfqa.jpg,00142931230fb_sunaapxkpvrhpjplsok.jpg,00636941031fa.jpg,sunaddtdkycxbqlpfqa.jpg,00142931230fb.jpg,sunaapxkpvrhpjplsok.jpg,,,>,Place,,,,,1,,,,,,,x
259,13,Presentation,5,00857940307fa_sunaiwfobocrruqznsv.jpg,00960960627fa_sunawksfbacycuhbrsc.jpg,00857940307fa.jpg,sunaiwfobocrruqznsv.jpg,00960960627fa.jpg,sunawksfbacycuhbrsc.jpg,,,>,Place,,,,,1,,,,,,,o
260,13,Memory,5,,,,,,,00743941201fa.jpg,,,,,,,,,,,,,,,
261,13,Memory,5,,,,,,,00313940422fa.jpg,,,,,,,,,,,,,,,
262,13,Memory,5,,,,,,,sunabwjvmoaddlyxfjr.jpg,,,,,,,,,,,,,,,
263,13,Memory,5,,,,,,,sunabanoxjtqxamkucc.jpg,,,,,,,,,,,,,,,
264,13,Memory,5,,,,,,,sunbfyvfqiimvdaxlqn.jpg,,,,,,,,,,,,,,,
265,13,Memory,5,,,,,,,sunaivdylrawbmhryfp.jpg,,,,,,,,,,,,,,,
266,13,Memory,5,,,,,,,sunaajspcoepticvplv.jpg,,,,,,,,,,,,,,,
267,13,Memory,5,,,,,,,00960960627fa.jpg,,,,,,,,,,,,,,,
268,13,Memory,5,,,,,,,00102931230fa.jpg,,,,,,,,,,,,,,,
269,13,Memory,5,,,,,,,sunasnqkkyhilqkxiqm.jpg,,,,,,,,,,,,,,,
270,13,Memory,5,,,,,,,00983960627fa.jpg,,,,,,,,,,,,,,,
271,13,Memory,5,,,,,,,00868960307fa.jpg,,,,,,,,,,,,,,,
272,13,Memory,5,,,,,,,sunawksfbacycuhbrsc.jpg,,,,,,,,,,,,,,,
273,13,Memory,5,,,,,,,00227940128fa.jpg,,,,,,,,,,,,,,,
274,13,Memory,5,,,,,,,00498960627fa.jpg,,,,,,,,,,,,,,,
275,13,Memory,5,,,,,,,00870940307fa.jpg,,,,,,,,,,,,,,,
276,13,Memory,5,,,,,,,sunaeoghzrjarigmwua.jpg,,,,,,,,,,,,,,,
277,13,Memory,5,,,,,,,00314940422fa.jpg,,,,,,,,,,,,,,,
278,13,Memory,5,,,,,,,sunabctlikybqabezjv.jpg,,,,,,,,,,,,,,,
279,13,Memory,5,,,,,,,sundbixjudsgeuuehrn.jpg,,,,,,,,,,,,,,,
280,13,Memory,5,,,,,,,00239940128fa.jpg,,,,,,,,,,,,,,,
281,13,Memory,5,,,,,,,01207940128fa.jpg,,,,,,,,,,,,,,,
282,13,Memory,5,,,,,,,sunajrgtewnualfcerj.jpg,,,,,,,,,,,,,,,
283,13,Memory,5,,,,,,,00900960530fa.jpg,,,,,,,,,,,,,,,
284,13,Memory,5,,,,,,,sunabwmcbaxwioksdgw.jpg,,,,,,,,,,,,,,,
285,13,Memory,5,,,,,,,00982960627fa.jpg,,,,,,,,,,,,,,,
286,13,Memory,5,,,,,,,sunadkazmlajmohnwfl.jpg,,,,,,,,,,,,,,,
287,13,Memory,5,,,,,,,00949960627fb.jpg,,,,,,,,,,,,,,,
288,13,Memory,5,,,,,,,sunabzjxlmkwnwzimua.jpg,,,,,,,,,,,,,,,
289,13,Memory,5,,,,,,,00662941121fa.jpg,,,,,,,,,,,,,,,
290,13,Memory,5,,,,,,,sunamlotskmmsjeogby.jpg,,,,,,,,,,,,,,,
291,13,Memory,5,,,,,,,00210940128fb.jpg,,,,,,,,,,,,,,,
292,13,Memory,5,,,,,,,sunabckqabszusgcykj.jpg,,,,,,,,,,,,,,,
293,13,Memory,5,,,,,,,sunbesrwkdsffeogeqq.jpg,,,,,,,,,,,,,,,
294,13,Memory,5,,,,,,,sunajjxttslobudoqbv.jpg,,,,,,,,,,,,,,,
295,13,Memory,5,,,,,,,00636941031fa.jpg,,,,,,,,,,,,,,,
296,13,Memory,5,,,,,,,sunaddtdkycxbqlpfqa.jpg,,,,,,,,,,,,,,,
297,13,Memory,5,,,,,,,00848940307fa.jpg,,,,,,,,,,,,,,,
298,13,Memory,5,,,,,,,00815941205fa.jpg,,,,,,,,,,,,,,,
299,13,Memory,5,,,,,,,sunahiphsekjihkafsl.jpg,,,,,,,,,,,,,,,
300,13,Presentation,6,00839940307fa_sunaipyohrqlwngaqif.jpg,01010960627fa_suncnkvbhypnivcohyx.jpg,00839940307fa.jpg,sunaipyohrqlwngaqif.jpg,01010960627fa.jpg,suncnkvbhypnivcohyx.jpg,,,>,Face,,,,,1,,,,,,,x
301,13,Presentation,6,00562941031fa_sunacjnahdmqfnjfwqx.jpg,00728941205fa_sunaejnvnpltdmhbcsi.jpg,00562941031fa.jpg,sunacjnahdmqfnjfwqx.jpg,00728941205fa.jpg,sunaejnvnpltdmhbcsi.jpg,,,>,Face,,,,,1,,,,,,,x
302,13,Presentation,6,00294940422fb_sunabrlndkruqokhury.jpg,00266940128fb_sunabkngeblodihjvbk.jpg,00294940422fb.jpg,sunabrlndkruqokhury.jpg,00266940128fb.jpg,sunabkngeblodihjvbk.jpg,,,>,Face,,,,,1,,,,,,,x
303,13,Presentation,6,00869940307fa_sunajoveqhiprwqgoco.jpg,00926960627Fa_sunapqwoeotxshkukbh.jpg,00869940307fa.jpg,sunajoveqhiprwqgoco.jpg,00926960627Fa.jpg,sunapqwoeotxshkukbh.jpg,,,>,Face,,,,,1,,,,,,,x
304,13,Presentation,6,00966960627fa_sunaygrtwrwfezqjizr.jpg,00898960530fa_sunamkmeblgteyggink.jpg,00966960627fa.jpg,sunaygrtwrwfezqjizr.jpg,00898960530fa.jpg,sunamkmeblgteyggink.jpg,,,>,Face,,,,,1,,,,,,,o
305,13,Presentation,6,00116931230fa_sunaakqepfoeqomfgxf.jpg,00209940128fb_sunabaergayifsgacxt.jpg,00116931230fa.jpg,sunaakqepfoeqomfgxf.jpg,00209940128fb.jpg,sunabaergayifsgacxt.jpg,,,>,Face,,,,,1,,,,,,,x
306,13,Presentation,6,00885960530fa_sunakwlvxjpddialozd.jpg,00776941205fa_sunafxokyavhgptyfye.jpg,00885960530fa.jpg,sunakwlvxjpddialozd.jpg,00776941205fa.jpg,sunafxokyavhgptyfye.jpg,,,>,Face,,,,,0,,,,,,,o
307,13,Presentation,6,00772941201fa_sunafpfpiiujzoesnqg.jpg,00507940519fa_sunacacflqoyxhsqzhe.jpg,00772941201fa.jpg,sunafpfpiiujzoesnqg.jpg,00507940519fa.jpg,sunacacflqoyxhsqzhe.jpg,,,>,Face,,,,,0,,,,,,,o
308,13,Presentation,6,00162931230fb_sunaavjinpnkappuonm.jpg,00935960627fa_sunaqbmgkgqucajzrkp.jpg,00162931230fb.jpg,sunaavjinpnkappuonm.jpg,00935960627fa.jpg,sunaqbmgkgqucajzrkp.jpg,,,>,Face,,,,,0,,,,,,,x
309,13,Presentation,6,00112931230fa_sunaakjaacuzulqckgl.jpg,00803941205fa_sunagvxkjokqimstxpe.jpg,00112931230fa.jpg,sunaakjaacuzulqckgl.jpg,00803941205fa.jpg,sunagvxkjokqimstxpe.jpg,,,>,Face,,,,,1,,,,,,,x
310,13,Memory,6,,,,,,,sunaejnvnpltdmhbcsi.jpg,,,,,,,,,,,,,,,
311,13,Memory,6,,,,,,,00885960530fa.jpg,,,,,,,,,,,,,,,
312,13,Memory,6,,,,,,,sunaqbmgkgqucajzrkp.jpg,,,,,,,,,,,,,,,
313,13,Memory,6,,,,,,,00947960627fa.jpg,,,,,,,,,,,,,,,
314,13,Memory,6,,,,,,,00819940307fa.jpg,,,,,,,,,,,,,,,
315,13,Memory,6,,,,,,,00116931230fa.jpg,,,,,,,,,,,,,,,
316,13,Memory,6,,,,,,,sunaakqepfoeqomfgxf.jpg,,,,,,,,,,,,,,,
317,13,Memory,6,,,,,,,sunabaergayifsgacxt.jpg,,,,,,,,,,,,,,,
318,13,Memory,6,,,,,,,00294940422fb.jpg,,,,,,,,,,,,,,,
319,13,Memory,6,,,,,,,sunaatpeezlljqaxlhj.jpg,,,,,,,,,,,,,,,
320,13,Memory,6,,,,,,,00098931230fa.jpg,,,,,,,,,,,,,,,
321,13,Memory,6,,,,,,,sunauburywlkjszngcq.jpg,,,,,,,,,,,,,,,
322,13,Memory,6,,,,,,,00073931230fa.jpg,,,,,,,,,,,,,,,
323,13,Memory,6,,,,,,,sunagtqhhwxjeuxdebe.jpg,,,,,,,,,,,,,,,
324,13,Memory,6,,,,,,,00146960620fb.jpg,,,,,,,,,,,,,,,
325,13,Memory,6,,,,,,,suncnkvbhypnivcohyx.jpg,,,,,,,,,,,,,,,
326,13,Memory,6,,,,,,,00728941205fa.jpg,,,,,,,,,,,,,,,
327,13,Memory,6,,,,,,,sunabrlndkruqokhury.jpg,,,,,,,,,,,,,,,
328,13,Memory,6,,,,,,,00265940128fb.jpg,,,,,,,,,,,,,,,
329,13,Memory,6,,,,,,,00794960620fa.jpg,,,,,,,,,,,,,,,
330,13,Memory,6,,,,,,,sunapwjkcxdaeqehfql.jpg,,,,,,,,,,,,,,,
331,13,Memory,6,,,,,,,sunabkmdplkdbvxriff.jpg,,,,,,,,,,,,,,,
332,13,Memory,6,,,,,,,00209940128fb.jpg,,,,,,,,,,,,,,,
333,13,Memory,6,,,,,,,00776941205fa.jpg,,,,,,,,,,,,,,,
334,13,Memory,6,,,,,,,01010960627fa.jpg,,,,,,,,,,,,,,,
335,13,Memory,6,,,,,,,sunahqldjibofgsfdgb.jpg,,,,,,,,,,,,,,,
336,13,Memory,6,,,,,,,sunakodkcslgqhqlgwl.jpg,,,,,,,,,,,,,,,
337,13,Memory,6,,,,,,,sunaajpqmulidejvjsr.jpg,,,,,,,,,,,,,,,
338,13,Memory,6,,,,,,,sunaafbmtoniaasysgu.jpg,,,,,,,,,,,,,,,
339,13,Memory,6,,,,,,,00839940307fa.jpg,,,,,,,,,,,,,,,
340,13,Memory,6,,,,,,,sunajoveqhiprwqgoco.jpg,,,,,,,,,,,,,,,
341,13,Memory,6,,,,,,,00884960530fa.jpg,,,,,,,,,,,,,,,
342,13,Memory,6,,,,,,,00933960627fa.jpg,,,,,,,,,,,,,,,
343,13,Memory,6,,,,,,,sunakwlvxjpddialozd.jpg,,,,,,,,,,,,,,,
344,13,Memory,6,,,,,,,00935960627fa.jpg,,,,,,,,,,,,,,,
345,13,Memory,6,,,,,,,sunafxokyavhgptyfye.jpg,,,,,,,,,,,,,,,
346,13,Memory,6,,,,,,,00955960627fb.jpg,,,,,,,,,,,,,,,
347,13,Memory,6,,,,,,,00869940307fa.jpg,,,,,,,,,,,,,,,
348,13,Memory,6,,,,,,,sunasmmcxdddtmtazwx.jpg,,,,,,,,,,,,,,,
349,13,Memory,6,,,,,,,sunaipyohrqlwngaqif.jpg,,,,,,,,,,,,,,,
350,13,Presentation,7,00082931230fa_sunaafvitpexrpvumsa.jpg,00762941201fa_sunafgzgbisbopcyslr.jpg,00082931230fa.jpg,sunaafvitpexrpvumsa.jpg,00762941201fa.jpg,sunafgzgbisbopcyslr.jpg,,,<,Face,,,,,1,,,,,,,o
351,13,Presentation,7,00557940519fa_sunachtuarilwyqnvjx.jpg,00877960530fa_sunajxpkuhbizeveguy.jpg,00557940519fa.jpg,sunachtuarilwyqnvjx.jpg,00877960530fa.jpg,sunajxpkuhbizeveguy.jpg,,,<,Face,,,,,1,,,,,,,o
352,13,Presentation,7,00860940307fa_sunaizeyhvjzknwjudw.jpg,00775941205fa_sunafvwfsmqkjrutjta.jpg,00860940307fa.jpg,sunaizeyhvjzknwjudw.jpg,00775941205fa.jpg,sunafvwfsmqkjrutjta.jpg,,,<,Face,,,,,1,,,,,,,x
353,13,Presentation,7,00115931230fa_sunaakmxzhuceuiryah.jpg,00749941201fa_sunaeuvjbmdpknaqqaj.jpg,00115931230fa.jpg,sunaakmxzhuceuiryah.jpg,00749941201fa.jpg,sunaeuvjbmdpknaqqaj.jpg,,,<,Face,,,,,1,,,,,,,o
354,13,Presentation,7,00308940422fb_sunabwfvcqqidycwypa.jpg,01004960627fa_sunbwtlihsuptkrckid.jpg,00308940422fb.jpg,sunabwfvcqqidycwypa.jpg,01004960627fa.jpg,sunbwtlihsuptkrckid.jpg,,,<,Face,,,,,1,,,,,,,x
355,13,Presentation,7,00089931230fa_sunaagcpoejbuzyvddd.jpg,00791941205fa_sunagrmyoovzukhxmlo.jpg,00089931230fa.jpg,sunaagcpoejbuzyvddd.jpg,00791941205fa.jpg,sunagrmyoovzukhxmlo.jpg,,,<,Face,,,,,1,,,,,,,x
356,13,Presentation,7,00263940128fb_sunabjuovqvyfuzvqwt.jpg,00747941201fa_sunaeutbrtswvsozxyk.jpg,00263940128fb.jpg,sunabjuovqvyfuzvqwt.jpg,00747941201fa.jpg,sunaeutbrtswvsozxyk.jpg,,,<,Face,,,,,1,,,,,,,o
357,13,Presentation,7,00829940307fa_sunahwgbqkqcrwprgvh.jpg,00858940307fa_sunaixpqndlwhwjtjek.jpg,00829940307fa.jpg,sunahwgbqkqcrwprgvh.jpg,00858940307fa.jpg,sunaixpqndlwhwjtjek.jpg,,,<,Face,,,,,1,,,,,,,o
358,13,Presentation,7,00797960620fa_sunagufzbeteqdjxais.jpg,00069931230fb_sunaaeowapdkwzqpgqr.jpg,00797960620fa.jpg,sunagufzbeteqdjxais.jpg,00069931230fb.jpg,sunaaeowapdkwzqpgqr.jpg,,,<,Face,,,,,1,,,,,,,x
359,13,Presentation,7,00197940128fa_sunaaylzyqlqrsmfwif.jpg,00761960627fa_sunafgdqbclkwfocdhg.jpg,00197940128fa.jpg,sunaaylzyqlqrsmfwif.jpg,00761960627fa.jpg,sunafgdqbclkwfocdhg.jpg,,,<,Face,,,,,1,,,,,,,o
360,13,Memory,7,,,,,,,00985960627fa.jpg,,,,,,,,,,,,,,,
361,13,Memory,7,,,,,,,sunahqrxievfeusiqlt.jpg,,,,,,,,,,,,,,,
362,13,Memory,7,,,,,,,sunaeutbrtswvsozxyk.jpg,,,,,,,,,,,,,,,
363,13,Memory,7,,,,,,,sunbwtlihsuptkrckid.jpg,,,,,,,,,,,,,,,
364,13,Memory,7,,,,,,,sunbgklxeqjhdbyfhhy.jpg,,,,,,,,,,,,,,,
365,13,Memory,7,,,,,,,00308940422fb.jpg,,,,,,,,,,,,,,,
366,13,Memory,7,,,,,,,sunaeuvjbmdpknaqqaj.jpg,,,,,,,,,,,,,,,
367,13,Memory,7,,,,,,,00271940422fa.jpg,,,,,,,,,,,,,,,
368,13,Memory,7,,,,,,,01005960627fa.jpg,,,,,,,,,,,,,,,
369,13,Memory,7,,,,,,,sunajxpkuhbizeveguy.jpg,,,,,,,,,,,,,,,
370,13,Memory,7,,,,,,,00557940519fa.jpg,,,,,,,,,,,,,,,
371,13,Memory,7,,,,,,,sunagrmyoovzukhxmlo.jpg,,,,,,,,,,,,,,,
372,13,Memory,7,,,,,,,00877960530fa.jpg,,,,,,,,,,,,,,,
373,13,Memory,7,,,,,,,00791941205fa.jpg,,,,,,,,,,,,,,,
374,13,Memory,7,,,,,,,00108960530fa.jpg,,,,,,,,,,,,,,,
375,13,Memory,7,,,,,,,00795941205fa.jpg,,,,,,,,,,,,,,,
376,13,Memory,7,,,,,,,sunacepzfrmtkiqonpy.jpg,,,,,,,,,,,,,,,
377,13,Memory,7,,,,,,,sunbtpilbhhbmhmeuzq.jpg,,,,,,,,,,,,,,,
378,13,Memory,7,,,,,,,sunaakmxzhuceuiryah.jpg,,,,,,,,,,,,,,,
379,13,Memory,7,,,,,,,00829940307fa.jpg,,,,,,,,,,,,,,,
380,13,Memory,7,,,,,,,00747941201fa.jpg,,,,,,,,,,,,,,,
381,13,Memory,7,,,,,,,00723941201fa.jpg,,,,,,,,,,,,,,,
382,13,Memory,7,,,,,,,sunachtuarilwyqnvjx.jpg,,,,,,,,,,,,,,,
383,13,Memory,7,,,,,,,sunabmbnddafmywtjjj.jpg,,,,,,,,,,,,,,,
384,13,Memory,7,,,,,,,sunahwgbqkqcrwprgvh.jpg,,,,,,,,,,,,,,,
385,13,Memory,7,,,,,,,sunaaylzyqlqrsmfwif.jpg,,,,,,,,,,,,,,,
386,13,Memory,7,,,,,,,sunaajtnvzzpsjdzres.jpg,,,,,,,,,,,,,,,
387,13,Memory,7,,,,,,,sunbwyuesflwdpqtgoy.jpg,,,,,,,,,,,,,,,
388,13,Memory,7,,,,,,,sunaedtgwjvvziytspa.jpg,,,,,,,,,,,,,,,
389,13,Memory,7,,,,,,,00822940307fa.jpg,,,,,,,,,,,,,,,
390,13,Memory,7,,,,,,,00197940128fa.jpg,,,,,,,,,,,,,,,
391,13,Memory,7,,,,,,,sunafhmnhsdurlvddpw.jpg,,,,,,,,,,,,,,,
392,13,Memory,7,,,,,,,00543940519fa.jpg,,,,,,,,,,,,,,,
393,13,Memory,7,,,,,,,sunabwfvcqqidycwypa.jpg,,,,,,,,,,,,,,,
394,13,Memory,7,,,,,,,sunagtumacdlmciqamz.jpg,,,,,,,,,,,,,,,
395,13,Memory,7,,,,,,,00997960627fa.jpg,,,,,,,,,,,,,,,
396,13,Memory,7,,,,,,,00749941201fa.jpg,,,,,,,,,,,,,,,
397,13,Memory,7,,,,,,,00115931230fa.jpg,,,,,,,,,,,,,,,
398,13,Memory,7,,,,,,,01004960627fa.jpg,,,,,,,,,,,,,,,
399,13,Memory,7,,,,,,,00763941205fa.jpg,,,,,,,,,,,,,,,
