,Subject,Trial Type,Run,Cued Composite,Uncued Composite,Cued Face,Cued Place,Uncued Face,Uncued Place,Memory Image,Category,Cued Side,Cued Category,Attention Reaction Time (s),Familiarity Reaction Time (s),Familiarity Rating,Attention Level,Cue Validity,Post Invalid Cue,Pre Invalid Cue,Attention Button,Rating History,Stimulus Onset,Stimulus End,Attention Probe
0,24,Presentation,0,01005960627fa_sunbwyuesflwdpqtgoy.jpg,00993960627fa_sunbprywzqxjcezkbch.jpg,01005960627fa.jpg,sunbwyuesflwdpqtgoy.jpg,00993960627fa.jpg,sunbprywzqxjcezkbch.jpg,,,>,Face,,,,,1,,,,,,,o
1,24,Presentation,0,00747941201fa_sunaeutbrtswvsozxyk.jpg,00950960627fa_sunasrjlmglmjzbmqxb.jpg,00747941201fa.jpg,sunaeutbrtswvsozxyk.jpg,00950960627fa.jpg,sunasrjlmglmjzbmqxb.jpg,,,>,Face,,,,,1,,,,,,,o
2,24,Presentation,0,00866940307fa_sunajbwkywmsqkldfml.jpg,00102931230fa_sunaajspcoepticvplv.jpg,00866940307fa.jpg,sunajbwkywmsqkldfml.jpg,00102931230fa.jpg,sunaajspcoepticvplv.jpg,,,>,Face,,,,,1,,,,,,,x
3,24,Presentation,0,00760960620fa_sunaffstbkappprzxnv.jpg,00070940307fa_sunaaeplwsfslcbtojr.jpg,00760960620fa.jpg,sunaffstbkappprzxnv.jpg,00070940307fa.jpg,sunaaeplwsfslcbtojr.jpg,,,>,Face,,,,,1,,,,,,,o
4,24,Presentation,0,00900960530fa_sunamlotskmmsjeogby.jpg,00073931230fa_sunaafbmtoniaasysgu.jpg,00900960530fa.jpg,sunamlotskmmsjeogby.jpg,00073931230fa.jpg,sunaafbmtoniaasysgu.jpg,,,>,Face,,,,,1,,,,,,,x
5,24,Presentation,0,00784941205fb_sunagjzcrjvmxzqzljx.jpg,00120931230fa_sunaakxgygjfqrzpyoz.jpg,00784941205fb.jpg,sunagjzcrjvmxzqzljx.jpg,00120931230fa.jpg,sunaakxgygjfqrzpyoz.jpg,,,>,Face,,,,,1,,,,,,,o
6,24,Presentation,0,00961960627fa_sunawotxrevnqvamsfp.jpg,00795941205fa_sunagtumacdlmciqamz.jpg,00961960627fa.jpg,sunawotxrevnqvamsfp.jpg,00795941205fa.jpg,sunagtumacdlmciqamz.jpg,,,>,Face,,,,,1,,,,,,,x
7,24,Presentation,0,00314940422fa_sunabwmcbaxwioksdgw.jpg,00060931230fa_sunaaehaikpckyjsety.jpg,00314940422fa.jpg,sunabwmcbaxwioksdgw.jpg,00060931230fa.jpg,sunaaehaikpckyjsety.jpg,,,>,Face,,,,,1,,,,,,,o
8,24,Presentation,0,00762941201fa_sunafgzgbisbopcyslr.jpg,00783941205fa_sunagjeesomrwjsfqie.jpg,00762941201fa.jpg,sunafgzgbisbopcyslr.jpg,00783941205fa.jpg,sunagjeesomrwjsfqie.jpg,,,>,Face,,,,,1,,,,,,,x
9,24,Presentation,0,00093931230fa_sunaahwnmtqsrhocysw.jpg,00080931230fb_sunaafjszryxyavjzln.jpg,00093931230fa.jpg,sunaahwnmtqsrhocysw.jpg,00080931230fb.jpg,sunaafjszryxyavjzln.jpg,,,>,Face,,,,,0,,,,,,,o
10,24,Memory,0,,,,,,,sunadoxcchtmsxewsau.jpg,,,,,,,,,,,,,,,
11,24,Memory,0,,,,,,,00562941031fa.jpg,,,,,,,,,,,,,,,
12,24,Memory,0,,,,,,,sunalkiibhqpxfamlll.jpg,,,,,,,,,,,,,,,
13,24,Memory,0,,,,,,,sunbprywzqxjcezkbch.jpg,,,,,,,,,,,,,,,
14,24,Memory,0,,,,,,,sunahedfrhtcwpneund.jpg,,,,,,,,,,,,,,,
15,24,Memory,0,,,,,,,sunahtfxgsrmkiulnwk.jpg,,,,,,,,,,,,,,,
16,24,Memory,0,,,,,,,sunagjzcrjvmxzqzljx.jpg,,,,,,,,,,,,,,,
17,24,Memory,0,,,,,,,sunaaemixhfquhnxxlm.jpg,,,,,,,,,,,,,,,
18,24,Memory,0,,,,,,,00093931230fa.jpg,,,,,,,,,,,,,,,
19,24,Memory,0,,,,,,,00784941205fb.jpg,,,,,,,,,,,,,,,
20,24,Memory,0,,,,,,,sunabjzyxcjnmztdonj.jpg,,,,,,,,,,,,,,,
21,24,Memory,0,,,,,,,00149931230fa.jpg,,,,,,,,,,,,,,,
22,24,Memory,0,,,,,,,00891960530fa.jpg,,,,,,,,,,,,,,,
23,24,Memory,0,,,,,,,00811960530fa.jpg,,,,,,,,,,,,,,,
24,24,Memory,0,,,,,,,00070940307fa.jpg,,,,,,,,,,,,,,,
25,24,Memory,0,,,,,,,sunaeutbrtswvsozxyk.jpg,,,,,,,,,,,,,,,
26,24,Memory,0,,,,,,,00827940307fa.jpg,,,,,,,,,,,,,,,
27,24,Memory,0,,,,,,,00133931230fa.jpg,,,,,,,,,,,,,,,
28,24,Memory,0,,,,,,,00993960627fa.jpg,,,,,,,,,,,,,,,
29,24,Memory,0,,,,,,,sunaanlwnpqndclffxt.jpg,,,,,,,,,,,,,,,
30,24,Memory,0,,,,,,,00783941205fa.jpg,,,,,,,,,,,,,,,
31,24,Memory,0,,,,,,,00065931230fb.jpg,,,,,,,,,,,,,,,
32,24,Memory,0,,,,,,,sunaajspcoepticvplv.jpg,,,,,,,,,,,,,,,
33,24,Memory,0,,,,,,,00264940128fb.jpg,,,,,,,,,,,,,,,
34,24,Memory,0,,,,,,,sunaafjszryxyavjzln.jpg,,,,,,,,,,,,,,,
35,24,Memory,0,,,,,,,01005960627fa.jpg,,,,,,,,,,,,,,,
36,24,Memory,0,,,,,,,sunaffstbkappprzxnv.jpg,,,,,,,,,,,,,,,
37,24,Memory,0,,,,,,,sunaaeplwsfslcbtojr.jpg,,,,,,,,,,,,,,,
38,24,Memory,0,,,,,,,00102931230fa.jpg,,,,,,,,,,,,,,,
39,24,Memory,0,,,,,,,sunaauglwmctnkxyird.jpg,,,,,,,,,,,,,,,
40,24,Memory,0,,,,,,,sunaahwnmtqsrhocysw.jpg,,,,,,,,,,,,,,,
41,24,Memory,0,,,,,,,sunacjnahdmqfnjfwqx.jpg,,,,,,,,,,,,,,,
42,24,Memory,0,,,,,,,sunagjeesomrwjsfqie.jpg,,,,,,,,,,,,,,,
43,24,Memory,0,,,,,,,sunaixpqndlwhwjtjek.jpg,,,,,,,,,,,,,,,
44,24,Memory,0,,,,,,,00080931230fb.jpg,,,,,,,,,,,,,,,
45,24,Memory,0,,,,,,,sunbwyuesflwdpqtgoy.jpg,,,,,,,,,,,,,,,
46,24,Memory,0,,,,,,,00747941201fa.jpg,,,,,,,,,,,,,,,
47,24,Memory,0,,,,,,,00858940307fa.jpg,,,,,,,,,,,,,,,
48,24,Memory,0,,,,,,,00760960620fa.jpg,,,,,,,,,,,,,,,
49,24,Memory,0,,,,,,,00675941121fa.jpg,,,,,,,,,,,,,,,
50,24,Presentation,1,00771941205fa_sunafowswglhxcsufpo.jpg,00841940307fa_sunaisiwfgppimtnmxl.jpg,00771941205fa.jpg,sunafowswglhxcsufpo.jpg,00841940307fa.jpg,sunaisiwfgppimtnmxl.jpg,,,<,Face,,,,,1,,,,,,,x
51,24,Presentation,1,01000960627fa_sunbvzmgrdvaakxusbu.jpg,00753941201fa_sunafcofuuzebuadceo.jpg,01000960627fa.jpg,sunbvzmgrdvaakxusbu.jpg,00753941201fa.jpg,sunafcofuuzebuadceo.jpg,,,<,Face,,,,,1,,,,,,,x
52,24,Presentation,1,00751960620fa_sunaezuszgtxnmsxdbk.jpg,00730960620fa_sunaekgzpfilgjxpeyq.jpg,00751960620fa.jpg,sunaezuszgtxnmsxdbk.jpg,00730960620fa.jpg,sunaekgzpfilgjxpeyq.jpg,,,<,Face,,,,,0,,,,,,,x
53,24,Presentation,1,00728941205fa_sunaejnvnpltdmhbcsi.jpg,00292940422fb_sunabrjdpmoedcdjbpo.jpg,00728941205fa.jpg,sunaejnvnpltdmhbcsi.jpg,00292940422fb.jpg,sunabrjdpmoedcdjbpo.jpg,,,<,Face,,,,,1,,,,,,,o
54,24,Presentation,1,00306940422fa_sunabueyoajufbkraki.jpg,00635941031fa_sunaddsaeicthrfbkhe.jpg,00306940422fa.jpg,sunabueyoajufbkraki.jpg,00635941031fa.jpg,sunaddsaeicthrfbkhe.jpg,,,<,Face,,,,,1,,,,,,,x
55,24,Presentation,1,00746941201fa_sunaetydippjxikifsb.jpg,00122931230fa_sunaakxjfbrrequcjmx.jpg,00746941201fa.jpg,sunaetydippjxikifsb.jpg,00122931230fa.jpg,sunaakxjfbrrequcjmx.jpg,,,<,Face,,,,,1,,,,,,,x
56,24,Presentation,1,00870940307fa_sunajrgtewnualfcerj.jpg,00276940422fa_sunabmytpyhsgigllxu.jpg,00870940307fa.jpg,sunajrgtewnualfcerj.jpg,00276940422fa.jpg,sunabmytpyhsgigllxu.jpg,,,<,Face,,,,,1,,,,,,,x
57,24,Presentation,1,00681941121fa_sunadqmjrhfjyuzyvdd.jpg,00885960530fa_sunakwlvxjpddialozd.jpg,00681941121fa.jpg,sunadqmjrhfjyuzyvdd.jpg,00885960530fa.jpg,sunakwlvxjpddialozd.jpg,,,<,Face,,,,,1,,,,,,,o
58,24,Presentation,1,00540940519fa_sunacdnquypmsshhsbk.jpg,00116931230fa_sunaakqepfoeqomfgxf.jpg,00540940519fa.jpg,sunacdnquypmsshhsbk.jpg,00116931230fa.jpg,sunaakqepfoeqomfgxf.jpg,,,<,Face,,,,,1,,,,,,,x
59,24,Presentation,1,00162931230fb_sunaavjinpnkappuonm.jpg,00968960627fa_sunbagfpovqwbuexqdn.jpg,00162931230fb.jpg,sunaavjinpnkappuonm.jpg,00968960627fa.jpg,sunbagfpovqwbuexqdn.jpg,,,<,Face,,,,,1,,,,,,,o
60,24,Memory,1,,,,,,,sunbvzmgrdvaakxusbu.jpg,,,,,,,,,,,,,,,
61,24,Memory,1,,,,,,,sunbfzchmomnvzhbxdg.jpg,,,,,,,,,,,,,,,
62,24,Memory,1,,,,,,,sunaezuszgtxnmsxdbk.jpg,,,,,,,,,,,,,,,
63,24,Memory,1,,,,,,,sunaisiwfgppimtnmxl.jpg,,,,,,,,,,,,,,,
64,24,Memory,1,,,,,,,sunbbxkanhzjgbwyxqs.jpg,,,,,,,,,,,,,,,
65,24,Memory,1,,,,,,,00292940422fb.jpg,,,,,,,,,,,,,,,
66,24,Memory,1,,,,,,,sunabueyoajufbkraki.jpg,,,,,,,,,,,,,,,
67,24,Memory,1,,,,,,,00568940928fa.jpg,,,,,,,,,,,,,,,
68,24,Memory,1,,,,,,,01009960627fa.jpg,,,,,,,,,,,,,,,
69,24,Memory,1,,,,,,,00984960627fa.jpg,,,,,,,,,,,,,,,
70,24,Memory,1,,,,,,,00071940128fa.jpg,,,,,,,,,,,,,,,
71,24,Memory,1,,,,,,,00857940307fa.jpg,,,,,,,,,,,,,,,
72,24,Memory,1,,,,,,,00681941121fa.jpg,,,,,,,,,,,,,,,
73,24,Memory,1,,,,,,,sunadqmjrhfjyuzyvdd.jpg,,,,,,,,,,,,,,,
74,24,Memory,1,,,,,,,sunaaexpnawiehinlpy.jpg,,,,,,,,,,,,,,,
75,24,Memory,1,,,,,,,00136931230fb.jpg,,,,,,,,,,,,,,,
76,24,Memory,1,,,,,,,00730960620fa.jpg,,,,,,,,,,,,,,,
77,24,Memory,1,,,,,,,sunabrjdpmoedcdjbpo.jpg,,,,,,,,,,,,,,,
78,24,Memory,1,,,,,,,sunaczwgyukesaajxnx.jpg,,,,,,,,,,,,,,,
79,24,Memory,1,,,,,,,00977960627fa.jpg,,,,,,,,,,,,,,,
80,24,Memory,1,,,,,,,00915960620fa.jpg,,,,,,,,,,,,,,,
81,24,Memory,1,,,,,,,sunapileznnbbmrwoei.jpg,,,,,,,,,,,,,,,
82,24,Memory,1,,,,,,,sunacsdhbbsybcyxnel.jpg,,,,,,,,,,,,,,,
83,24,Memory,1,,,,,,,00804960530fa.jpg,,,,,,,,,,,,,,,
84,24,Memory,1,,,,,,,sunbagfpovqwbuexqdn.jpg,,,,,,,,,,,,,,,
85,24,Memory,1,,,,,,,sunbxzweleltykebgan.jpg,,,,,,,,,,,,,,,
86,24,Memory,1,,,,,,,00841940307fa.jpg,,,,,,,,,,,,,,,
87,24,Memory,1,,,,,,,00630940928fa.jpg,,,,,,,,,,,,,,,
88,24,Memory,1,,,,,,,00306940422fa.jpg,,,,,,,,,,,,,,,
89,24,Memory,1,,,,,,,sunagwswhkvnsmuszlz.jpg,,,,,,,,,,,,,,,
90,24,Memory,1,,,,,,,00728941205fa.jpg,,,,,,,,,,,,,,,
91,24,Memory,1,,,,,,,sunaekgzpfilgjxpeyq.jpg,,,,,,,,,,,,,,,
92,24,Memory,1,,,,,,,sunabmytpyhsgigllxu.jpg,,,,,,,,,,,,,,,
93,24,Memory,1,,,,,,,00276940422fa.jpg,,,,,,,,,,,,,,,
94,24,Memory,1,,,,,,,00751960620fa.jpg,,,,,,,,,,,,,,,
95,24,Memory,1,,,,,,,00968960627fa.jpg,,,,,,,,,,,,,,,
96,24,Memory,1,,,,,,,sunaejnvnpltdmhbcsi.jpg,,,,,,,,,,,,,,,
97,24,Memory,1,,,,,,,01000960627fa.jpg,,,,,,,,,,,,,,,
98,24,Memory,1,,,,,,,sunaiwfobocrruqznsv.jpg,,,,,,,,,,,,,,,
99,24,Memory,1,,,,,,,sunaanptmsknhirrzed.jpg,,,,,,,,,,,,,,,
100,24,Presentation,2,00124931230fa_sunaalhlvzmjmitybdn.jpg,00815941205fa_sunahiphsekjihkafsl.jpg,00124931230fa.jpg,sunaalhlvzmjmitybdn.jpg,00815941205fa.jpg,sunahiphsekjihkafsl.jpg,,,>,Face,,,,,1,,,,,,,x
101,24,Presentation,2,00214940128fa_sunabbafjowbzcvbucc.jpg,00905960530fa_sunanmoqeyprjjjfxjt.jpg,00214940128fa.jpg,sunabbafjowbzcvbucc.jpg,00905960530fa.jpg,sunanmoqeyprjjjfxjt.jpg,,,>,Face,,,,,1,,,,,,,o
102,24,Presentation,2,00860940307fa_sunaizeyhvjzknwjudw.jpg,00101931230fb_sunaajqmsaavkmgbsth.jpg,00860940307fa.jpg,sunaizeyhvjzknwjudw.jpg,00101931230fb.jpg,sunaajqmsaavkmgbsth.jpg,,,>,Face,,,,,1,,,,,,,o
103,24,Presentation,2,00931960627fa_sunaptrqvaooxfvktvw.jpg,00316940422fa_sunabxmguapjekttvwm.jpg,00931960627fa.jpg,sunaptrqvaooxfvktvw.jpg,00316940422fa.jpg,sunabxmguapjekttvwm.jpg,,,>,Face,,,,,0,,,,,,,o
104,24,Presentation,2,00768941205fa_sunafkmnlytenlsywia.jpg,00834940307fa_sunaibnpvhkdpdnzcnz.jpg,00768941205fa.jpg,sunafkmnlytenlsywia.jpg,00834940307fa.jpg,sunaibnpvhkdpdnzcnz.jpg,,,>,Face,,,,,1,,,,,,,o
105,24,Presentation,2,00142931230fb_sunaapxkpvrhpjplsok.jpg,00109931230fa_sunaajuzribjrizdshh.jpg,00142931230fb.jpg,sunaapxkpvrhpjplsok.jpg,00109931230fa.jpg,sunaajuzribjrizdshh.jpg,,,>,Face,,,,,1,,,,,,,x
106,24,Presentation,2,00776941205fa_sunafxokyavhgptyfye.jpg,00071941031fa_sunaaexqbtdswxrqjvz.jpg,00776941205fa.jpg,sunafxokyavhgptyfye.jpg,00071941031fa.jpg,sunaaexqbtdswxrqjvz.jpg,,,>,Face,,,,,1,,,,,,,x
107,24,Presentation,2,00800941205fb_sunagvjurcwdbixvnyi.jpg,00894960620fa_sunalqmfgeadpqsyzpd.jpg,00800941205fb.jpg,sunagvjurcwdbixvnyi.jpg,00894960620fa.jpg,sunalqmfgeadpqsyzpd.jpg,,,>,Face,,,,,1,,,,,,,x
108,24,Presentation,2,00098931230fa_sunaajpqmulidejvjsr.jpg,00828940307fa_sunahuynahneraqftyz.jpg,00098931230fa.jpg,sunaajpqmulidejvjsr.jpg,00828940307fa.jpg,sunahuynahneraqftyz.jpg,,,>,Face,,,,,1,,,,,,,o
109,24,Presentation,2,00576941031fa_sunacvjlsylseoghjup.jpg,00801941205fa_sunagvprlbprarvgdvj.jpg,00576941031fa.jpg,sunacvjlsylseoghjup.jpg,00801941205fa.jpg,sunagvprlbprarvgdvj.jpg,,,>,Face,,,,,1,,,,,,,x
110,24,Memory,2,,,,,,,sunagmwxxwymwojbvgi.jpg,,,,,,,,,,,,,,,
111,24,Memory,2,,,,,,,sunaajqmsaavkmgbsth.jpg,,,,,,,,,,,,,,,
112,24,Memory,2,,,,,,,00101931230fb.jpg,,,,,,,,,,,,,,,
113,24,Memory,2,,,,,,,00061931230fb.jpg,,,,,,,,,,,,,,,
114,24,Memory,2,,,,,,,sunaptrqvaooxfvktvw.jpg,,,,,,,,,,,,,,,
115,24,Memory,2,,,,,,,00768941205fa.jpg,,,,,,,,,,,,,,,
116,24,Memory,2,,,,,,,sunaapxkpvrhpjplsok.jpg,,,,,,,,,,,,,,,
117,24,Memory,2,,,,,,,sunarceibpcyacbmfga.jpg,,,,,,,,,,,,,,,
118,24,Memory,2,,,,,,,sunaaekxzjzrfgtkwjf.jpg,,,,,,,,,,,,,,,
119,24,Memory,2,,,,,,,sunafkmnlytenlsywia.jpg,,,,,,,,,,,,,,,
120,24,Memory,2,,,,,,,00071941031fa.jpg,,,,,,,,,,,,,,,
121,24,Memory,2,,,,,,,00794960620fa.jpg,,,,,,,,,,,,,,,
122,24,Memory,2,,,,,,,sunagountlxpzkytsmp.jpg,,,,,,,,,,,,,,,
123,24,Memory,2,,,,,,,00775941205fa.jpg,,,,,,,,,,,,,,,
124,24,Memory,2,,,,,,,sunafvwfsmqkjrutjta.jpg,,,,,,,,,,,,,,,
125,24,Memory,2,,,,,,,sunalqmfgeadpqsyzpd.jpg,,,,,,,,,,,,,,,
126,24,Memory,2,,,,,,,00921960627fa.jpg,,,,,,,,,,,,,,,
127,24,Memory,2,,,,,,,00787941205fa.jpg,,,,,,,,,,,,,,,
128,24,Memory,2,,,,,,,00939960627fa.jpg,,,,,,,,,,,,,,,
129,24,Memory,2,,,,,,,00316940422fa.jpg,,,,,,,,,,,,,,,
130,24,Memory,2,,,,,,,sunaaexqbtdswxrqjvz.jpg,,,,,,,,,,,,,,,
131,24,Memory,2,,,,,,,sunapqkyghktgtosuuk.jpg,,,,,,,,,,,,,,,
132,24,Memory,2,,,,,,,00086931230fa.jpg,,,,,,,,,,,,,,,
133,24,Memory,2,,,,,,,00894960620fa.jpg,,,,,,,,,,,,,,,
134,24,Memory,2,,,,,,,sunaafynehyrzpsoaml.jpg,,,,,,,,,,,,,,,
135,24,Memory,2,,,,,,,00142931230fb.jpg,,,,,,,,,,,,,,,
136,24,Memory,2,,,,,,,00788941205fa.jpg,,,,,,,,,,,,,,,
137,24,Memory,2,,,,,,,sunabxmguapjekttvwm.jpg,,,,,,,,,,,,,,,
138,24,Memory,2,,,,,,,sunacvjlsylseoghjup.jpg,,,,,,,,,,,,,,,
139,24,Memory,2,,,,,,,00922960627fa.jpg,,,,,,,,,,,,,,,
140,24,Memory,2,,,,,,,sunabeyhmxodahoieyk.jpg,,,,,,,,,,,,,,,
141,24,Memory,2,,,,,,,00931960627fa.jpg,,,,,,,,,,,,,,,
142,24,Memory,2,,,,,,,sunanmoqeyprjjjfxjt.jpg,,,,,,,,,,,,,,,
143,24,Memory,2,,,,,,,00245940128fa.jpg,,,,,,,,,,,,,,,
144,24,Memory,2,,,,,,,00576941031fa.jpg,,,,,,,,,,,,,,,
145,24,Memory,2,,,,,,,sunagtqhhwxjeuxdebe.jpg,,,,,,,,,,,,,,,
146,24,Memory,2,,,,,,,00098931230fa.jpg,,,,,,,,,,,,,,,
147,24,Memory,2,,,,,,,sunapqkpqdfvxlbqwyo.jpg,,,,,,,,,,,,,,,
148,24,Memory,2,,,,,,,00905960530fa.jpg,,,,,,,,,,,,,,,
149,24,Memory,2,,,,,,,sunaajpqmulidejvjsr.jpg,,,,,,,,,,,,,,,
150,24,Presentation,3,00959960627fa_sunavxokzybtomhbmvm.jpg,00988960627fa_sunbmaiocftdtvnzgap.jpg,00959960627fa.jpg,sunavxokzybtomhbmvm.jpg,00988960627fa.jpg,sunbmaiocftdtvnzgap.jpg,,,>,Place,,,,,1,,,,,,,x
151,24,Presentation,3,00869940307fa_sunajoveqhiprwqgoco.jpg,00990960627fa_sunbpflsdaxnddnwcqi.jpg,00869940307fa.jpg,sunajoveqhiprwqgoco.jpg,00990960627fa.jpg,sunbpflsdaxnddnwcqi.jpg,,,>,Place,,,,,1,,,,,,,o
152,24,Presentation,3,00750941201fa_sunaeuzwggvibufclwf.jpg,01004960627fa_sunbwtlihsuptkrckid.jpg,00750941201fa.jpg,sunaeuzwggvibufclwf.jpg,01004960627fa.jpg,sunbwtlihsuptkrckid.jpg,,,>,Place,,,,,1,,,,,,,o
153,24,Presentation,3,00997960627fa_sunbtpilbhhbmhmeuzq.jpg,00987960627fa_sunbloeoiozwjjsiamp.jpg,00997960627fa.jpg,sunbtpilbhhbmhmeuzq.jpg,00987960627fa.jpg,sunbloeoiozwjjsiamp.jpg,,,>,Place,,,,,1,,,,,,,o
154,24,Presentation,3,00263940128fb_sunabjuovqvyfuzvqwt.jpg,00609940928fa_sunacycdoztxoluxjyk.jpg,00263940128fb.jpg,sunabjuovqvyfuzvqwt.jpg,00609940928fa.jpg,sunacycdoztxoluxjyk.jpg,,,>,Place,,,,,1,,,,,,,o
155,24,Presentation,3,00598940928fa_sunacxeheuiigkcgquf.jpg,00812941205fa_sunahgtbwgsmtqeodwh.jpg,00598940928fa.jpg,sunacxeheuiigkcgquf.jpg,00812941205fa.jpg,sunahgtbwgsmtqeodwh.jpg,,,>,Place,,,,,1,,,,,,,x
156,24,Presentation,3,00743941201fa_sunaeoghzrjarigmwua.jpg,00887960530_sunalcrtwiycqobgelp.jpg,00743941201fa.jpg,sunaeoghzrjarigmwua.jpg,00887960530.jpg,sunalcrtwiycqobgelp.jpg,,,>,Place,,,,,1,,,,,,,x
157,24,Presentation,3,00063931230fa_sunaaelyvurpntclgau.jpg,00270940422fb_sunabllobxadqcyttej.jpg,00063931230fa.jpg,sunaaelyvurpntclgau.jpg,00270940422fb.jpg,sunabllobxadqcyttej.jpg,,,>,Place,,,,,1,,,,,,,x
158,24,Presentation,3,00847940307fa_sunaivdjruhkrfywfed.jpg,00574940928fa_sunacvbrcejzwmcgnoq.jpg,00847940307fa.jpg,sunaivdjruhkrfywfed.jpg,00574940928fa.jpg,sunacvbrcejzwmcgnoq.jpg,,,>,Place,,,,,1,,,,,,,x
159,24,Presentation,3,00647941031fa_sunadflbrkckmepztql.jpg,00191940128fb_sunaawsdjisukbbginm.jpg,00647941031fa.jpg,sunadflbrkckmepztql.jpg,00191940128fb.jpg,sunaawsdjisukbbginm.jpg,,,>,Place,,,,,1,,,,,,,x
160,24,Memory,3,,,,,,,sunbmaiocftdtvnzgap.jpg,,,,,,,,,,,,,,,
161,24,Memory,3,,,,,,,sunavxokzybtomhbmvm.jpg,,,,,,,,,,,,,,,
162,24,Memory,3,,,,,,,sunbgklxeqjhdbyfhhy.jpg,,,,,,,,,,,,,,,
163,24,Memory,3,,,,,,,00574940928fa.jpg,,,,,,,,,,,,,,,
164,24,Memory,3,,,,,,,00647941031fa.jpg,,,,,,,,,,,,,,,
165,24,Memory,3,,,,,,,00761960627fa.jpg,,,,,,,,,,,,,,,
166,24,Memory,3,,,,,,,sunaivdjruhkrfywfed.jpg,,,,,,,,,,,,,,,
167,24,Memory,3,,,,,,,00985960627fa.jpg,,,,,,,,,,,,,,,
168,24,Memory,3,,,,,,,01004960627fa.jpg,,,,,,,,,,,,,,,
169,24,Memory,3,,,,,,,sunbondbduabvijnmch.jpg,,,,,,,,,,,,,,,
170,24,Memory,3,,,,,,,00208940128fa.jpg,,,,,,,,,,,,,,,
171,24,Memory,3,,,,,,,sunaazzyhbvqjpmazjq.jpg,,,,,,,,,,,,,,,
172,24,Memory,3,,,,,,,sunbloeoiozwjjsiamp.jpg,,,,,,,,,,,,,,,
173,24,Memory,3,,,,,,,sunaaftlyfudyzuhqzf.jpg,,,,,,,,,,,,,,,
174,24,Memory,3,,,,,,,00144931230fb.jpg,,,,,,,,,,,,,,,
175,24,Memory,3,,,,,,,00750941201fa.jpg,,,,,,,,,,,,,,,
176,24,Memory,3,,,,,,,sunajtrfunvzdfticna.jpg,,,,,,,,,,,,,,,
177,24,Memory,3,,,,,,,00989960627fa.jpg,,,,,,,,,,,,,,,
178,24,Memory,3,,,,,,,sunacvbrcejzwmcgnoq.jpg,,,,,,,,,,,,,,,
179,24,Memory,3,,,,,,,sunagetqixeypsysbpn.jpg,,,,,,,,,,,,,,,
180,24,Memory,3,,,,,,,sunbtpilbhhbmhmeuzq.jpg,,,,,,,,,,,,,,,
181,24,Memory,3,,,,,,,sunbwtlihsuptkrckid.jpg,,,,,,,,,,,,,,,
182,24,Memory,3,,,,,,,sunaeuzwggvibufclwf.jpg,,,,,,,,,,,,,,,
183,24,Memory,3,,,,,,,sunafgdqbclkwfocdhg.jpg,,,,,,,,,,,,,,,
184,24,Memory,3,,,,,,,00793941205fa.jpg,,,,,,,,,,,,,,,
185,24,Memory,3,,,,,,,00959960627fa.jpg,,,,,,,,,,,,,,,
186,24,Memory,3,,,,,,,00780960530fa.jpg,,,,,,,,,,,,,,,
187,24,Memory,3,,,,,,,00987960627fa.jpg,,,,,,,,,,,,,,,
188,24,Memory,3,,,,,,,sunagtjwilqjvxohypn.jpg,,,,,,,,,,,,,,,
189,24,Memory,3,,,,,,,00081941031fa.jpg,,,,,,,,,,,,,,,
190,24,Memory,3,,,,,,,sunabmbnddafmywtjjj.jpg,,,,,,,,,,,,,,,
191,24,Memory,3,,,,,,,00988960627fa.jpg,,,,,,,,,,,,,,,
192,24,Memory,3,,,,,,,00847940307fa.jpg,,,,,,,,,,,,,,,
193,24,Memory,3,,,,,,,sunaathajvxrgptwhoj.jpg,,,,,,,,,,,,,,,
194,24,Memory,3,,,,,,,sunalcrtwiycqobgelp.jpg,,,,,,,,,,,,,,,
195,24,Memory,3,,,,,,,00271940422fa.jpg,,,,,,,,,,,,,,,
196,24,Memory,3,,,,,,,sunadflbrkckmepztql.jpg,,,,,,,,,,,,,,,
197,24,Memory,3,,,,,,,00887960530.jpg,,,,,,,,,,,,,,,
198,24,Memory,3,,,,,,,00874940307fa.jpg,,,,,,,,,,,,,,,
199,24,Memory,3,,,,,,,00997960627fa.jpg,,,,,,,,,,,,,,,
200,24,Presentation,4,00308940422fb_sunabwfvcqqidycwypa.jpg,00130931230fa_sunaamvxnvouicstkjb.jpg,00308940422fb.jpg,sunabwfvcqqidycwypa.jpg,00130931230fa.jpg,sunaamvxnvouicstkjb.jpg,,,>,Place,,,,,1,,,,,,,o
201,24,Presentation,4,00267940128fb_sunablfqiwfqomjarht.jpg,00829940307fa_sunahwgbqkqcrwprgvh.jpg,00267940128fb.jpg,sunablfqiwfqomjarht.jpg,00829940307fa.jpg,sunahwgbqkqcrwprgvh.jpg,,,>,Place,,,,,1,,,,,,,o
202,24,Presentation,4,00938960627fa_sunaqyylsngywqzwfmx.jpg,00774941201fa_sunafvtpfczkzopbgue.jpg,00938960627fa.jpg,sunaqyylsngywqzwfmx.jpg,00774941201fa.jpg,sunafvtpfczkzopbgue.jpg,,,>,Place,,,,,1,,,,,,,x
203,24,Presentation,4,00662941121fa_sunadkazmlajmohnwfl.jpg,00481940519fa_sunabxsuqbleluwczoy.jpg,00662941121fa.jpg,sunadkazmlajmohnwfl.jpg,00481940519fa.jpg,sunabxsuqbleluwczoy.jpg,,,>,Place,,,,,1,,,,,,,o
204,24,Presentation,4,00818940307fa_sunahpblecxtmuzkmxb.jpg,00909960530_sunaobtizabegtwfwul.jpg,00818940307fa.jpg,sunahpblecxtmuzkmxb.jpg,00909960530.jpg,sunaobtizabegtwfwul.jpg,,,>,Place,,,,,1,,,,,,,o
205,24,Presentation,4,00131931230fb_sunaangbuylfvckqqoo.jpg,00127931230fa_sunaampvucecsfbdafn.jpg,00131931230fb.jpg,sunaangbuylfvckqqoo.jpg,00127931230fa.jpg,sunaampvucecsfbdafn.jpg,,,>,Place,,,,,1,,,,,,,o
206,24,Presentation,4,00158931230fb_sunaavchcbptaerhcfy.jpg,00910960530fa_sunaofikylqtxphvdem.jpg,00158931230fb.jpg,sunaavchcbptaerhcfy.jpg,00910960530fa.jpg,sunaofikylqtxphvdem.jpg,,,>,Place,,,,,0,,,,,,,o
207,24,Presentation,4,00154931230fa_sunaauueuhhvklldjik.jpg,00108960530fa_sunaajtnvzzpsjdzres.jpg,00154931230fa.jpg,sunaauueuhhvklldjik.jpg,00108960530fa.jpg,sunaajtnvzzpsjdzres.jpg,,,>,Place,,,,,1,,,,,,,o
208,24,Presentation,4,00719941201fa_sunadvithllcgmfxsrn.jpg,00943960627fa_sunarpsxqkduedrrzyi.jpg,00719941201fa.jpg,sunadvithllcgmfxsrn.jpg,00943960627fa.jpg,sunarpsxqkduedrrzyi.jpg,,,>,Place,,,,,1,,,,,,,o
209,24,Presentation,4,00969960627fa_sunbaoizrfijvhpnnjn.jpg,00908960530fa_sunanwjjyqqwzqrqagd.jpg,00969960627fa.jpg,sunbaoizrfijvhpnnjn.jpg,00908960530fa.jpg,sunanwjjyqqwzqrqagd.jpg,,,>,Place,,,,,1,,,,,,,o
210,24,Memory,4,,,,,,,sunaobtizabegtwfwul.jpg,,,,,,,,,,,,,,,
211,24,Memory,4,,,,,,,00127931230fa.jpg,,,,,,,,,,,,,,,
212,24,Memory,4,,,,,,,sunaefgzwiramypjvtd.jpg,,,,,,,,,,,,,,,
213,24,Memory,4,,,,,,,00969960627fa.jpg,,,,,,,,,,,,,,,
214,24,Memory,4,,,,,,,00898960530fa.jpg,,,,,,,,,,,,,,,
215,24,Memory,4,,,,,,,00725941201fa.jpg,,,,,,,,,,,,,,,
216,24,Memory,4,,,,,,,00705941205fa.jpg,,,,,,,,,,,,,,,
217,24,Memory,4,,,,,,,00799941205fa.jpg,,,,,,,,,,,,,,,
218,24,Memory,4,,,,,,,00947960627fa.jpg,,,,,,,,,,,,,,,
219,24,Memory,4,,,,,,,sunaampvucecsfbdafn.jpg,,,,,,,,,,,,,,,
220,24,Memory,4,,,,,,,sunablfqiwfqomjarht.jpg,,,,,,,,,,,,,,,
221,24,Memory,4,,,,,,,sunagwzdbtlixdhgolm.jpg,,,,,,,,,,,,,,,
222,24,Memory,4,,,,,,,sunadtlxenqqxsyjvix.jpg,,,,,,,,,,,,,,,
223,24,Memory,4,,,,,,,sunbaoizrfijvhpnnjn.jpg,,,,,,,,,,,,,,,
224,24,Memory,4,,,,,,,00790941205fa.jpg,,,,,,,,,,,,,,,
225,24,Memory,4,,,,,,,00910960530fa.jpg,,,,,,,,,,,,,,,
226,24,Memory,4,,,,,,,00719941201fa.jpg,,,,,,,,,,,,,,,
227,24,Memory,4,,,,,,,sunagutjvdvnhxejerz.jpg,,,,,,,,,,,,,,,
228,24,Memory,4,,,,,,,sunabtrnbvpppgczjim.jpg,,,,,,,,,,,,,,,
229,24,Memory,4,,,,,,,00943960627fa.jpg,,,,,,,,,,,,,,,
230,24,Memory,4,,,,,,,sunadvithllcgmfxsrn.jpg,,,,,,,,,,,,,,,
231,24,Memory,4,,,,,,,sunasmmcxdddtmtazwx.jpg,,,,,,,,,,,,,,,
232,24,Memory,4,,,,,,,sunaawqdbpihmlbwyyn.jpg,,,,,,,,,,,,,,,
233,24,Memory,4,,,,,,,00305940422fa.jpg,,,,,,,,,,,,,,,
234,24,Memory,4,,,,,,,00267940128fb.jpg,,,,,,,,,,,,,,,
235,24,Memory,4,,,,,,,00909960530.jpg,,,,,,,,,,,,,,,
236,24,Memory,4,,,,,,,00154931230fa.jpg,,,,,,,,,,,,,,,
237,24,Memory,4,,,,,,,00662941121fa.jpg,,,,,,,,,,,,,,,
238,24,Memory,4,,,,,,,sunaauueuhhvklldjik.jpg,,,,,,,,,,,,,,,
239,24,Memory,4,,,,,,,sunagcthdfirrcawoic.jpg,,,,,,,,,,,,,,,
240,24,Memory,4,,,,,,,sunamkmeblgteyggink.jpg,,,,,,,,,,,,,,,
241,24,Memory,4,,,,,,,00805941205fa.jpg,,,,,,,,,,,,,,,
242,24,Memory,4,,,,,,,00185940422fb.jpg,,,,,,,,,,,,,,,
243,24,Memory,4,,,,,,,sunadkazmlajmohnwfl.jpg,,,,,,,,,,,,,,,
244,24,Memory,4,,,,,,,00778941205fa.jpg,,,,,,,,,,,,,,,
245,24,Memory,4,,,,,,,00774941201fa.jpg,,,,,,,,,,,,,,,
246,24,Memory,4,,,,,,,sunaofikylqtxphvdem.jpg,,,,,,,,,,,,,,,
247,24,Memory,4,,,,,,,sunarpsxqkduedrrzyi.jpg,,,,,,,,,,,,,,,
248,24,Memory,4,,,,,,,sunafvtpfczkzopbgue.jpg,,,,,,,,,,,,,,,
249,24,Memory,4,,,,,,,sunagpjzsbltchlwvou.jpg,,,,,,,,,,,,,,,
250,24,Presentation,5,00557940519fa_sunachtuarilwyqnvjx.jpg,00129931230fb_sunaamsdyakblkfoydx.jpg,00557940519fa.jpg,sunachtuarilwyqnvjx.jpg,00129931230fb.jpg,sunaamsdyakblkfoydx.jpg,,,<,Place,,,,,1,,,,,,,o
251,24,Presentation,5,00786941205fa_sunagmhildamktmqjss.jpg,00598941031fa_sunacxtcahkymosigud.jpg,00786941205fa.jpg,sunagmhildamktmqjss.jpg,00598941031fa.jpg,sunacxtcahkymosigud.jpg,,,<,Place,,,,,1,,,,,,,x
252,24,Presentation,5,00960960627fa_sunawksfbacycuhbrsc.jpg,00153931230fa_sunaauhozyxzeeqstxi.jpg,00960960627fa.jpg,sunawksfbacycuhbrsc.jpg,00153931230fa.jpg,sunaauhozyxzeeqstxi.jpg,,,<,Place,,,,,0,,,,,,,x
253,24,Presentation,5,00218940128fa_sunabbwggenhfbftyvi.jpg,00816941205fa_sunahmhrncocyhsjpxk.jpg,00218940128fa.jpg,sunabbwggenhfbftyvi.jpg,00816941205fa.jpg,sunahmhrncocyhsjpxk.jpg,,,<,Place,,,,,1,,,,,,,x
254,24,Presentation,5,00720960620fa_sunaecpkgfewqqreqwe.jpg,00773941201fa_sunafvcflzhlqloapyo.jpg,00720960620fa.jpg,sunaecpkgfewqqreqwe.jpg,00773941201fa.jpg,sunafvcflzhlqloapyo.jpg,,,<,Place,,,,,1,,,,,,,x
255,24,Presentation,5,00741941201fa_sunaemcowdozyphwknd.jpg,00807941205fa_sunahawfngukizslzsd.jpg,00741941201fa.jpg,sunaemcowdozyphwknd.jpg,00807941205fa.jpg,sunahawfngukizslzsd.jpg,,,<,Place,,,,,0,,,,,,,o
256,24,Presentation,5,00838940307fa_sunaiozxhxgtfrmoagh.jpg,00288940422fa_sunabppokiyglaxpcha.jpg,00838940307fa.jpg,sunaiozxhxgtfrmoagh.jpg,00288940422fa.jpg,sunabppokiyglaxpcha.jpg,,,<,Place,,,,,1,,,,,,,o
257,24,Presentation,5,00949960627fb_sunasnqkkyhilqkxiqm.jpg,00227940128fa_sunabckqabszusgcykj.jpg,00949960627fb.jpg,sunasnqkkyhilqkxiqm.jpg,00227940128fa.jpg,sunabckqabszusgcykj.jpg,,,<,Place,,,,,1,,,,,,,o
258,24,Presentation,5,00194940128fb_sunaayehfdqcyxggsej.jpg,00554940519fa_sunacfdkbsrughwqwtt.jpg,00194940128fb.jpg,sunaayehfdqcyxggsej.jpg,00554940519fa.jpg,sunacfdkbsrughwqwtt.jpg,,,<,Place,,,,,1,,,,,,,x
259,24,Presentation,5,00936960627fa_sunaqgjuuwvdcyiccjt.jpg,00221940128fa_sunabcfpwlpolnutyju.jpg,00936960627fa.jpg,sunaqgjuuwvdcyiccjt.jpg,00221940128fa.jpg,sunabcfpwlpolnutyju.jpg,,,<,Place,,,,,1,,,,,,,x
260,24,Memory,5,,,,,,,sunahrltmuwbiehihpe.jpg,,,,,,,,,,,,,,,
261,24,Memory,5,,,,,,,sunaamsdyakblkfoydx.jpg,,,,,,,,,,,,,,,
262,24,Memory,5,,,,,,,00839940307fa.jpg,,,,,,,,,,,,,,,
263,24,Memory,5,,,,,,,sunaccdtpgenvcbcbcf.jpg,,,,,,,,,,,,,,,
264,24,Memory,5,,,,,,,00598941031fa.jpg,,,,,,,,,,,,,,,
265,24,Memory,5,,,,,,,00227940128fa.jpg,,,,,,,,,,,,,,,
266,24,Memory,5,,,,,,,sunacfdkbsrughwqwtt.jpg,,,,,,,,,,,,,,,
267,24,Memory,5,,,,,,,sunabckqabszusgcykj.jpg,,,,,,,,,,,,,,,
268,24,Memory,5,,,,,,,00663941121fa.jpg,,,,,,,,,,,,,,,
269,24,Memory,5,,,,,,,00554940519fa.jpg,,,,,,,,,,,,,,,
270,24,Memory,5,,,,,,,00960960627fa.jpg,,,,,,,,,,,,,,,
271,24,Memory,5,,,,,,,00218940128fa.jpg,,,,,,,,,,,,,,,
272,24,Memory,5,,,,,,,00763941205fa.jpg,,,,,,,,,,,,,,,
273,24,Memory,5,,,,,,,sunaipyohrqlwngaqif.jpg,,,,,,,,,,,,,,,
274,24,Memory,5,,,,,,,00953960627fa.jpg,,,,,,,,,,,,,,,
275,24,Memory,5,,,,,,,sunabzjxlmkwnwzimua.jpg,,,,,,,,,,,,,,,
276,24,Memory,5,,,,,,,sunachtuarilwyqnvjx.jpg,,,,,,,,,,,,,,,
277,24,Memory,5,,,,,,,00129931230fb.jpg,,,,,,,,,,,,,,,
278,24,Memory,5,,,,,,,sunafhmnhsdurlvddpw.jpg,,,,,,,,,,,,,,,
279,24,Memory,5,,,,,,,00825940307fa.jpg,,,,,,,,,,,,,,,
280,24,Memory,5,,,,,,,00262940128fa.jpg,,,,,,,,,,,,,,,
281,24,Memory,5,,,,,,,sunahmhrncocyhsjpxk.jpg,,,,,,,,,,,,,,,
282,24,Memory,5,,,,,,,00532960627fa.jpg,,,,,,,,,,,,,,,
283,24,Memory,5,,,,,,,sunabbwggenhfbftyvi.jpg,,,,,,,,,,,,,,,
284,24,Memory,5,,,,,,,sunatstrpjxhvtbaczf.jpg,,,,,,,,,,,,,,,
285,24,Memory,5,,,,,,,sunaayehfdqcyxggsej.jpg,,,,,,,,,,,,,,,
286,24,Memory,5,,,,,,,00095931230fa.jpg,,,,,,,,,,,,,,,
287,24,Memory,5,,,,,,,sunawksfbacycuhbrsc.jpg,,,,,,,,,,,,,,,
288,24,Memory,5,,,,,,,sunadnjjzohjhbohlwq.jpg,,,,,,,,,,,,,,,
289,24,Memory,5,,,,,,,sunacxtcahkymosigud.jpg,,,,,,,,,,,,,,,
290,24,Memory,5,,,,,,,sunaahzooisqkwlxwoz.jpg,,,,,,,,,,,,,,,
291,24,Memory,5,,,,,,,00720960620fa.jpg,,,,,,,,,,,,,,,
292,24,Memory,5,,,,,,,sunabizydfotqddlnjp.jpg,,,,,,,,,,,,,,,
293,24,Memory,5,,,,,,,sunaecpkgfewqqreqwe.jpg,,,,,,,,,,,,,,,
294,24,Memory,5,,,,,,,00557940519fa.jpg,,,,,,,,,,,,,,,
295,24,Memory,5,,,,,,,sunaajayojuslbbnneg.jpg,,,,,,,,,,,,,,,
296,24,Memory,5,,,,,,,00498960627fa.jpg,,,,,,,,,,,,,,,
297,24,Memory,5,,,,,,,00816941205fa.jpg,,,,,,,,,,,,,,,
298,24,Memory,5,,,,,,,00097931230fa.jpg,,,,,,,,,,,,,,,
299,24,Memory,5,,,,,,,00194940128fb.jpg,,,,,,,,,,,,,,,
300,24,Presentation,6,00146960620fb_sunaatpeezlljqaxlhj.jpg,00069931230fb_sunaaeowapdkwzqpgqr.jpg,00146960620fb.jpg,sunaatpeezlljqaxlhj.jpg,00069931230fb.jpg,sunaaeowapdkwzqpgqr.jpg,,,<,Place,,,,,1,,,,,,,x
301,24,Presentation,6,00126931230fb_sunaamdjwemxpmmtypi.jpg,00854940307fa_sunaiwduelojtwaqeyh.jpg,00126931230fb.jpg,sunaamdjwemxpmmtypi.jpg,00854940307fa.jpg,sunaiwduelojtwaqeyh.jpg,,,<,Place,,,,,1,,,,,,,x
302,24,Presentation,6,00529940519fa_sunacbeefkxpymwevpk.jpg,00906960530fa_sunantryfbloeaomfta.jpg,00529940519fa.jpg,sunacbeefkxpymwevpk.jpg,00906960530fa.jpg,sunantryfbloeaomfta.jpg,,,<,Place,,,,,1,,,,,,,o
303,24,Presentation,6,00895960530fa_sunamczizlzavhzhpay.jpg,00089931230fa_sunaagcpoejbuzyvddd.jpg,00895960530fa.jpg,sunamczizlzavhzhpay.jpg,00089931230fa.jpg,sunaagcpoejbuzyvddd.jpg,,,<,Place,,,,,1,,,,,,,x
304,24,Presentation,6,00754941201fa_sunaffgsyyvoqdlkmnk.jpg,00670941121fa_sunadochqcucscehsgk.jpg,00754941201fa.jpg,sunaffgsyyvoqdlkmnk.jpg,00670941121fa.jpg,sunadochqcucscehsgk.jpg,,,<,Place,,,,,1,,,,,,,o
305,24,Presentation,6,00944960627fa_sunasbbntuiheekqyaq.jpg,00835940307fa_sunaijsqpvodplbwxkf.jpg,00944960627fa.jpg,sunasbbntuiheekqyaq.jpg,00835940307fa.jpg,sunaijsqpvodplbwxkf.jpg,,,<,Place,,,,,1,,,,,,,x
306,24,Presentation,6,00901960530fa_sunammbnoambmhdxdwd.jpg,00971960627fa_sunbbegcweqnetpdlrh.jpg,00901960530fa.jpg,sunammbnoambmhdxdwd.jpg,00971960627fa.jpg,sunbbegcweqnetpdlrh.jpg,,,<,Place,,,,,1,,,,,,,o
307,24,Presentation,6,00676941121fa_sunadpnqovzckyikrjo.jpg,00705960530fa_sunaduslxfzlbxlllnz.jpg,00676941121fa.jpg,sunadpnqovzckyikrjo.jpg,00705960530fa.jpg,sunaduslxfzlbxlllnz.jpg,,,<,Place,,,,,0,,,,,,,o
308,24,Presentation,6,00884960530fa_sunakodkcslgqhqlgwl.jpg,00773960620fa_sunafvsxtzaizojicxx.jpg,00884960530fa.jpg,sunakodkcslgqhqlgwl.jpg,00773960620fa.jpg,sunafvsxtzaizojicxx.jpg,,,<,Place,,,,,1,,,,,,,x
309,24,Presentation,6,00589940928fa_sunacwggadqsfpovdjv.jpg,00140931230fb_sunaapllqyqlykszopd.jpg,00589940928fa.jpg,sunacwggadqsfpovdjv.jpg,00140931230fb.jpg,sunaapllqyqlykszopd.jpg,,,<,Place,,,,,1,,,,,,,o
310,24,Memory,6,,,,,,,00146960620fb.jpg,,,,,,,,,,,,,,,
311,24,Memory,6,,,,,,,00089931230fa.jpg,,,,,,,,,,,,,,,
312,24,Memory,6,,,,,,,00952960627fa.jpg,,,,,,,,,,,,,,,
313,24,Memory,6,,,,,,,sunammbnoambmhdxdwd.jpg,,,,,,,,,,,,,,,
314,24,Memory,6,,,,,,,00260940128fa.jpg,,,,,,,,,,,,,,,
315,24,Memory,6,,,,,,,00895960530fa.jpg,,,,,,,,,,,,,,,
316,24,Memory,6,,,,,,,sunabrlndkruqokhury.jpg,,,,,,,,,,,,,,,
317,24,Memory,6,,,,,,,00901960530fa.jpg,,,,,,,,,,,,,,,
318,24,Memory,6,,,,,,,sunafvsxtzaizojicxx.jpg,,,,,,,,,,,,,,,
319,24,Memory,6,,,,,,,sunathzzbcwjykldrem.jpg,,,,,,,,,,,,,,,
320,24,Memory,6,,,,,,,sunacwggadqsfpovdjv.jpg,,,,,,,,,,,,,,,
321,24,Memory,6,,,,,,,sunahqldjibofgsfdgb.jpg,,,,,,,,,,,,,,,
322,24,Memory,6,,,,,,,00819940307fa.jpg,,,,,,,,,,,,,,,
323,24,Memory,6,,,,,,,00589940928fa.jpg,,,,,,,,,,,,,,,
324,24,Memory,6,,,,,,,sunabgfhvifeijihhjw.jpg,,,,,,,,,,,,,,,
325,24,Memory,6,,,,,,,00112931230fa.jpg,,,,,,,,,,,,,,,
326,24,Memory,6,,,,,,,00123931230fb.jpg,,,,,,,,,,,,,,,
327,24,Memory,6,,,,,,,00963960627fa.jpg,,,,,,,,,,,,,,,
328,24,Memory,6,,,,,,,00700941121fa.jpg,,,,,,,,,,,,,,,
329,24,Memory,6,,,,,,,00773960620fa.jpg,,,,,,,,,,,,,,,
330,24,Memory,6,,,,,,,sunamczizlzavhzhpay.jpg,,,,,,,,,,,,,,,
331,24,Memory,6,,,,,,,sunaamdjwemxpmmtypi.jpg,,,,,,,,,,,,,,,
332,24,Memory,6,,,,,,,sunayaepykrqvenaqqy.jpg,,,,,,,,,,,,,,,
333,24,Memory,6,,,,,,,00069931230fb.jpg,,,,,,,,,,,,,,,
334,24,Memory,6,,,,,,,sunafijbgncijwykrnl.jpg,,,,,,,,,,,,,,,
335,24,Memory,6,,,,,,,sunaatpeezlljqaxlhj.jpg,,,,,,,,,,,,,,,
336,24,Memory,6,,,,,,,sunaijsqpvodplbwxkf.jpg,,,,,,,,,,,,,,,
337,24,Memory,6,,,,,,,00835940307fa.jpg,,,,,,,,,,,,,,,
338,24,Memory,6,,,,,,,sunaakjaacuzulqckgl.jpg,,,,,,,,,,,,,,,
339,24,Memory,6,,,,,,,sunadsgmtznewzyasnk.jpg,,,,,,,,,,,,,,,
340,24,Memory,6,,,,,,,00294940422fb.jpg,,,,,,,,,,,,,,,
341,24,Memory,6,,,,,,,00803941205fa.jpg,,,,,,,,,,,,,,,
342,24,Memory,6,,,,,,,sunaaeowapdkwzqpgqr.jpg,,,,,,,,,,,,,,,
343,24,Memory,6,,,,,,,00766960620fa.jpg,,,,,,,,,,,,,,,
344,24,Memory,6,,,,,,,00705960530fa.jpg,,,,,,,,,,,,,,,
345,24,Memory,6,,,,,,,sunaalcrrdbjgdztbiz.jpg,,,,,,,,,,,,,,,
346,24,Memory,6,,,,,,,00126931230fb.jpg,,,,,,,,,,,,,,,
347,24,Memory,6,,,,,,,sunagvxkjokqimstxpe.jpg,,,,,,,,,,,,,,,
348,24,Memory,6,,,,,,,sunaagcpoejbuzyvddd.jpg,,,,,,,,,,,,,,,
349,24,Memory,6,,,,,,,sunaduslxfzlbxlllnz.jpg,,,,,,,,,,,,,,,
350,24,Presentation,7,00851940307fa_sunaivflshbyfrfzhqb.jpg,00631940928fa_sunadbdqzigzwipuipr.jpg,00851940307fa.jpg,sunaivflshbyfrfzhqb.jpg,00631940928fa.jpg,sunadbdqzigzwipuipr.jpg,,,<,Face,,,,,1,,,,,,,x
351,24,Presentation,7,00779941205fa_sunagdzlvkqtpnfxfcg.jpg,00933960627fa_sunapwjkcxdaeqehfql.jpg,00779941205fa.jpg,sunagdzlvkqtpnfxfcg.jpg,00933960627fa.jpg,sunapwjkcxdaeqehfql.jpg,,,<,Face,,,,,1,,,,,,,o
352,24,Presentation,7,00638941031fa_sunadfktsqjthoglcsm.jpg,00564941031fa_sunacsaovnjezqwbykf.jpg,00638941031fa.jpg,sunadfktsqjthoglcsm.jpg,00564941031fa.jpg,sunacsaovnjezqwbykf.jpg,,,<,Face,,,,,1,,,,,,,x
353,24,Presentation,7,00878960530fa_sunakgbnzxmfohgehnu.jpg,00198940128fb_sunaazezcsunmhttzxz.jpg,00878960530fa.jpg,sunakgbnzxmfohgehnu.jpg,00198940128fb.jpg,sunaazezcsunmhttzxz.jpg,,,<,Face,,,,,1,,,,,,,x
354,24,Presentation,7,00957960627fa_sunavhxgmgrqsaptynb.jpg,00749941201fa_sunaeuvjbmdpknaqqaj.jpg,00957960627fa.jpg,sunavhxgmgrqsaptynb.jpg,00749941201fa.jpg,sunaeuvjbmdpknaqqaj.jpg,,,<,Face,,,,,1,,,,,,,o
355,24,Presentation,7,00797960620fa_sunagufzbeteqdjxais.jpg,00926960627Fa_sunapqwoeotxshkukbh.jpg,00797960620fa.jpg,sunagufzbeteqdjxais.jpg,00926960627Fa.jpg,sunapqwoeotxshkukbh.jpg,,,<,Face,,,,,1,,,,,,,o
356,24,Presentation,7,00903960620fa_sunanainkqdvktzoxyl.jpg,00967960627fa_sunbaejotfklekvpxcz.jpg,00903960620fa.jpg,sunanainkqdvktzoxyl.jpg,00967960627fa.jpg,sunbaejotfklekvpxcz.jpg,,,<,Face,,,,,1,,,,,,,o
357,24,Presentation,7,00973960627fa_sunbbgtoeuzierkkajt.jpg,00822940307fa_sunahqrxievfeusiqlt.jpg,00973960627fa.jpg,sunbbgtoeuzierkkajt.jpg,00822940307fa.jpg,sunahqrxievfeusiqlt.jpg,,,<,Face,,,,,0,,,,,,,x
358,24,Presentation,7,00719960620fa_sunadzuvtmtmgupotmf.jpg,00982960627fa_sunbesrwkdsffeogeqq.jpg,00719960620fa.jpg,sunadzuvtmtmgupotmf.jpg,00982960627fa.jpg,sunbesrwkdsffeogeqq.jpg,,,<,Face,,,,,1,,,,,,,x
359,24,Presentation,7,00620940928fa_sunacypmnujalygkunp.jpg,00966960627fa_sunaygrtwrwfezqjizr.jpg,00620940928fa.jpg,sunacypmnujalygkunp.jpg,00966960627fa.jpg,sunaygrtwrwfezqjizr.jpg,,,<,Face,,,,,1,,,,,,,x
360,24,Memory,7,,,,,,,sunabanoxjtqxamkucc.jpg,,,,,,,,,,,,,,,
361,24,Memory,7,,,,,,,00648941031fa.jpg,,,,,,,,,,,,,,,
362,24,Memory,7,,,,,,,sunadbhmrgrrpyzglxs.jpg,,,,,,,,,,,,,,,
363,24,Memory,7,,,,,,,00633940928fa.jpg,,,,,,,,,,,,,,,
364,24,Memory,7,,,,,,,00749941201fa.jpg,,,,,,,,,,,,,,,
365,24,Memory,7,,,,,,,sunadakkdovnuzlycvp.jpg,,,,,,,,,,,,,,,
366,24,Memory,7,,,,,,,00926960627Fa.jpg,,,,,,,,,,,,,,,
367,24,Memory,7,,,,,,,sunaivflshbyfrfzhqb.jpg,,,,,,,,,,,,,,,
368,24,Memory,7,,,,,,,sunaygrtwrwfezqjizr.jpg,,,,,,,,,,,,,,,
369,24,Memory,7,,,,,,,00077931230fb.jpg,,,,,,,,,,,,,,,
370,24,Memory,7,,,,,,,00742941201fa.jpg,,,,,,,,,,,,,,,
371,24,Memory,7,,,,,,,sunaafgqutfaishsxyu.jpg,,,,,,,,,,,,,,,
372,24,Memory,7,,,,,,,00933960627fa.jpg,,,,,,,,,,,,,,,
373,24,Memory,7,,,,,,,sunavhxgmgrqsaptynb.jpg,,,,,,,,,,,,,,,
374,24,Memory,7,,,,,,,sunabkmdplkdbvxriff.jpg,,,,,,,,,,,,,,,
375,24,Memory,7,,,,,,,sunapqwoeotxshkukbh.jpg,,,,,,,,,,,,,,,
376,24,Memory,7,,,,,,,00210940128fb.jpg,,,,,,,,,,,,,,,
377,24,Memory,7,,,,,,,sunanainkqdvktzoxyl.jpg,,,,,,,,,,,,,,,
378,24,Memory,7,,,,,,,00797960620fa.jpg,,,,,,,,,,,,,,,
379,24,Memory,7,,,,,,,00265940128fb.jpg,,,,,,,,,,,,,,,
380,24,Memory,7,,,,,,,sunagdzlvkqtpnfxfcg.jpg,,,,,,,,,,,,,,,
381,24,Memory,7,,,,,,,00630941031fa.jpg,,,,,,,,,,,,,,,
382,24,Memory,7,,,,,,,sunaenwuebvlpdmntju.jpg,,,,,,,,,,,,,,,
383,24,Memory,7,,,,,,,sunaeuvjbmdpknaqqaj.jpg,,,,,,,,,,,,,,,
384,24,Memory,7,,,,,,,00631940928fa.jpg,,,,,,,,,,,,,,,
385,24,Memory,7,,,,,,,00966960627fa.jpg,,,,,,,,,,,,,,,
386,24,Memory,7,,,,,,,00903960620fa.jpg,,,,,,,,,,,,,,,
387,24,Memory,7,,,,,,,sunadbdqzigzwipuipr.jpg,,,,,,,,,,,,,,,
388,24,Memory,7,,,,,,,sunafbwnojpqeyzssoe.jpg,,,,,,,,,,,,,,,
389,24,Memory,7,,,,,,,00868960307fa.jpg,,,,,,,,,,,,,,,
390,24,Memory,7,,,,,,,sunajjxttslobudoqbv.jpg,,,,,,,,,,,,,,,
391,24,Memory,7,,,,,,,00851940307fa.jpg,,,,,,,,,,,,,,,
392,24,Memory,7,,,,,,,00752960620fa.jpg,,,,,,,,,,,,,,,
393,24,Memory,7,,,,,,,00957960627fa.jpg,,,,,,,,,,,,,,,
394,24,Memory,7,,,,,,,sunapwjkcxdaeqehfql.jpg,,,,,,,,,,,,,,,
395,24,Memory,7,,,,,,,sunabrwnslxalcohfre.jpg,,,,,,,,,,,,,,,
396,24,Memory,7,,,,,,,sunagufzbeteqdjxais.jpg,,,,,,,,,,,,,,,
397,24,Memory,7,,,,,,,sunadfndyrtqqiasoig.jpg,,,,,,,,,,,,,,,
398,24,Memory,7,,,,,,,00296940422fa.jpg,,,,,,,,,,,,,,,
399,24,Memory,7,,,,,,,00779941205fa.jpg,,,,,,,,,,,,,,,
