,Subject,Trial Type,Run,Cued Composite,Uncued Composite,Cued Face,Cued Place,Uncued Face,Uncued Place,Memory Image,Category,Cued Side,Cued Category,Attention Reaction Time (s),Familiarity Reaction Time (s),Familiarity Rating,Attention Level,Cue Validity,Post Invalid Cue,Pre Invalid Cue,Attention Button,Rating History,Stimulus Onset,Stimulus End,Attention Probe
0,23,Presentation,0,00787941205fa_sunagmwxxwymwojbvgi.jpg,00481940519fa_sunabxsuqbleluwczoy.jpg,00787941205fa.jpg,sunagmwxxwymwojbvgi.jpg,00481940519fa.jpg,sunabxsuqbleluwczoy.jpg,,,<,Face,,,,,1,,,,,,,x
1,23,Presentation,0,00909960530_sunaobtizabegtwfwul.jpg,00805941205fa_sunagwzdbtlixdhgolm.jpg,00909960530.jpg,sunaobtizabegtwfwul.jpg,00805941205fa.jpg,sunagwzdbtlixdhgolm.jpg,,,<,Face,,,,,1,,,,,,,o
2,23,Presentation,0,00803941205fa_sunagvxkjokqimstxpe.jpg,00973960627fa_sunbbgtoeuzierkkajt.jpg,00803941205fa.jpg,sunagvxkjokqimstxpe.jpg,00973960627fa.jpg,sunbbgtoeuzierkkajt.jpg,,,<,Face,,,,,1,,,,,,,o
3,23,Presentation,0,00794960620fa_sunagtqhhwxjeuxdebe.jpg,00214940128fa_sunabbafjowbzcvbucc.jpg,00794960620fa.jpg,sunagtqhhwxjeuxdebe.jpg,00214940128fa.jpg,sunabbafjowbzcvbucc.jpg,,,<,Face,,,,,1,,,,,,,x
4,23,Presentation,0,00109931230fa_sunaajuzribjrizdshh.jpg,00752960620fa_sunafbwnojpqeyzssoe.jpg,00109931230fa.jpg,sunaajuzribjrizdshh.jpg,00752960620fa.jpg,sunafbwnojpqeyzssoe.jpg,,,<,Face,,,,,1,,,,,,,o
5,23,Presentation,0,00108960530fa_sunaajtnvzzpsjdzres.jpg,00290940422fa_sunabqowuarvqqcnipn.jpg,00108960530fa.jpg,sunaajtnvzzpsjdzres.jpg,00290940422fa.jpg,sunabqowuarvqqcnipn.jpg,,,<,Face,,,,,1,,,,,,,o
6,23,Presentation,0,00147931230fb_sunaatpkocdkocwxpkb.jpg,00184940128fa_sunaavtbadenwnzeutj.jpg,00147931230fb.jpg,sunaatpkocdkocwxpkb.jpg,00184940128fa.jpg,sunaavtbadenwnzeutj.jpg,,,<,Face,,,,,1,,,,,,,o
7,23,Presentation,0,00638941031fa_sunadfktsqjthoglcsm.jpg,01010960627fa_suncnkvbhypnivcohyx.jpg,00638941031fa.jpg,sunadfktsqjthoglcsm.jpg,01010960627fa.jpg,suncnkvbhypnivcohyx.jpg,,,<,Face,,,,,1,,,,,,,o
8,23,Presentation,0,00727941205fa_sunaeisnjeetzmkbuad.jpg,00869940307fa_sunajoveqhiprwqgoco.jpg,00727941205fa.jpg,sunaeisnjeetzmkbuad.jpg,00869940307fa.jpg,sunajoveqhiprwqgoco.jpg,,,<,Face,,,,,1,,,,,,,o
9,23,Presentation,0,00933960627fa_sunapwjkcxdaeqehfql.jpg,00633940928fa_sunadbhmrgrrpyzglxs.jpg,00933960627fa.jpg,sunapwjkcxdaeqehfql.jpg,00633940928fa.jpg,sunadbhmrgrrpyzglxs.jpg,,,<,Face,,,,,1,,,,,,,o
10,23,Memory,0,,,,,,,sunaeisnjeetzmkbuad.jpg,,,,,,,,,,,,,,,
11,23,Memory,0,,,,,,,00978960627fa.jpg,,,,,,,,,,,,,,,
12,23,Memory,0,,,,,,,00063931230fa.jpg,,,,,,,,,,,,,,,
13,23,Memory,0,,,,,,,sunaaemixhfquhnxxlm.jpg,,,,,,,,,,,,,,,
14,23,Memory,0,,,,,,,00869940307fa.jpg,,,,,,,,,,,,,,,
15,23,Memory,0,,,,,,,sunagmwxxwymwojbvgi.jpg,,,,,,,,,,,,,,,
16,23,Memory,0,,,,,,,00933960627fa.jpg,,,,,,,,,,,,,,,
17,23,Memory,0,,,,,,,sunagwzdbtlixdhgolm.jpg,,,,,,,,,,,,,,,
18,23,Memory,0,,,,,,,sunaatpkocdkocwxpkb.jpg,,,,,,,,,,,,,,,
19,23,Memory,0,,,,,,,00990960627fa.jpg,,,,,,,,,,,,,,,
20,23,Memory,0,,,,,,,sunbddbivbptlrlauhy.jpg,,,,,,,,,,,,,,,
21,23,Memory,0,,,,,,,00571940928fa.jpg,,,,,,,,,,,,,,,
22,23,Memory,0,,,,,,,00787941205fa.jpg,,,,,,,,,,,,,,,
23,23,Memory,0,,,,,,,sunbpflsdaxnddnwcqi.jpg,,,,,,,,,,,,,,,
24,23,Memory,0,,,,,,,00999960627fa.jpg,,,,,,,,,,,,,,,
25,23,Memory,0,,,,,,,sunabzuqsrgcsonqlkz.jpg,,,,,,,,,,,,,,,
26,23,Memory,0,,,,,,,sunapwjkcxdaeqehfql.jpg,,,,,,,,,,,,,,,
27,23,Memory,0,,,,,,,00727941205fa.jpg,,,,,,,,,,,,,,,
28,23,Memory,0,,,,,,,sunabbafjowbzcvbucc.jpg,,,,,,,,,,,,,,,
29,23,Memory,0,,,,,,,00147931230fb.jpg,,,,,,,,,,,,,,,
30,23,Memory,0,,,,,,,01010960627fa.jpg,,,,,,,,,,,,,,,
31,23,Memory,0,,,,,,,00805941205fa.jpg,,,,,,,,,,,,,,,
32,23,Memory,0,,,,,,,00752960620fa.jpg,,,,,,,,,,,,,,,
33,23,Memory,0,,,,,,,00828940307fa.jpg,,,,,,,,,,,,,,,
34,23,Memory,0,,,,,,,00977960627fa.jpg,,,,,,,,,,,,,,,
35,23,Memory,0,,,,,,,sunajoveqhiprwqgoco.jpg,,,,,,,,,,,,,,,
36,23,Memory,0,,,,,,,sunbvbrvgbpanfrawft.jpg,,,,,,,,,,,,,,,
37,23,Memory,0,,,,,,,00505960627fa.jpg,,,,,,,,,,,,,,,
38,23,Memory,0,,,,,,,00949960627fb.jpg,,,,,,,,,,,,,,,
39,23,Memory,0,,,,,,,sunaaelyvurpntclgau.jpg,,,,,,,,,,,,,,,
40,23,Memory,0,,,,,,,00065931230fb.jpg,,,,,,,,,,,,,,,
41,23,Memory,0,,,,,,,sunafbwnojpqeyzssoe.jpg,,,,,,,,,,,,,,,
42,23,Memory,0,,,,,,,sunasnqkkyhilqkxiqm.jpg,,,,,,,,,,,,,,,
43,23,Memory,0,,,,,,,suncnkvbhypnivcohyx.jpg,,,,,,,,,,,,,,,
44,23,Memory,0,,,,,,,00803941205fa.jpg,,,,,,,,,,,,,,,
45,23,Memory,0,,,,,,,00214940128fa.jpg,,,,,,,,,,,,,,,
46,23,Memory,0,,,,,,,sunagvxkjokqimstxpe.jpg,,,,,,,,,,,,,,,
47,23,Memory,0,,,,,,,sunbbxkanhzjgbwyxqs.jpg,,,,,,,,,,,,,,,
48,23,Memory,0,,,,,,,sunahuynahneraqftyz.jpg,,,,,,,,,,,,,,,
49,23,Memory,0,,,,,,,sunacuatpqpqhyjhjqk.jpg,,,,,,,,,,,,,,,
50,23,Presentation,1,00076931230fa_sunaafewhewbxmjiurz.jpg,00102931230fa_sunaajspcoepticvplv.jpg,00076931230fa.jpg,sunaafewhewbxmjiurz.jpg,00102931230fa.jpg,sunaajspcoepticvplv.jpg,,,<,Place,,,,,0,,,,,,,o
51,23,Presentation,1,00719960620fa_sunadzuvtmtmgupotmf.jpg,00648941031fa_sunadfndyrtqqiasoig.jpg,00719960620fa.jpg,sunadzuvtmtmgupotmf.jpg,00648941031fa.jpg,sunadfndyrtqqiasoig.jpg,,,<,Place,,,,,1,,,,,,,x
52,23,Presentation,1,00263940128fb_sunabjuovqvyfuzvqwt.jpg,00784941205fb_sunagjzcrjvmxzqzljx.jpg,00263940128fb.jpg,sunabjuovqvyfuzvqwt.jpg,00784941205fb.jpg,sunagjzcrjvmxzqzljx.jpg,,,<,Place,,,,,1,,,,,,,o
53,23,Presentation,1,00705960530fa_sunaduslxfzlbxlllnz.jpg,00265940128fb_sunabkmdplkdbvxriff.jpg,00705960530fa.jpg,sunaduslxfzlbxlllnz.jpg,00265940128fb.jpg,sunabkmdplkdbvxriff.jpg,,,<,Place,,,,,1,,,,,,,x
54,23,Presentation,1,01011960627fa_sundahdxwmcdluscvot.jpg,00809960620fa_sunahbvlpavurqoxdeq.jpg,01011960627fa.jpg,sundahdxwmcdluscvot.jpg,00809960620fa.jpg,sunahbvlpavurqoxdeq.jpg,,,<,Place,,,,,1,,,,,,,o
55,23,Presentation,1,00988960627fa_sunbmaiocftdtvnzgap.jpg,00305940422fa_sunabtrnbvpppgczjim.jpg,00988960627fa.jpg,sunbmaiocftdtvnzgap.jpg,00305940422fa.jpg,sunabtrnbvpppgczjim.jpg,,,<,Place,,,,,1,,,,,,,o
56,23,Presentation,1,00670941121fa_sunadochqcucscehsgk.jpg,00753941201fa_sunafcofuuzebuadceo.jpg,00670941121fa.jpg,sunadochqcucscehsgk.jpg,00753941201fa.jpg,sunafcofuuzebuadceo.jpg,,,<,Place,,,,,1,,,,,,,x
57,23,Presentation,1,00559940519fa_sunacjkmnpawfzbyvae.jpg,00082931230fa_sunaafvitpexrpvumsa.jpg,00559940519fa.jpg,sunacjkmnpawfzbyvae.jpg,00082931230fa.jpg,sunaafvitpexrpvumsa.jpg,,,<,Place,,,,,1,,,,,,,o
58,23,Presentation,1,00905960530fa_sunanmoqeyprjjjfxjt.jpg,00302940422fa_sunabtlfmiwtljmoues.jpg,00905960530fa.jpg,sunanmoqeyprjjjfxjt.jpg,00302940422fa.jpg,sunabtlfmiwtljmoues.jpg,,,<,Place,,,,,1,,,,,,,x
59,23,Presentation,1,00191940128fb_sunaawsdjisukbbginm.jpg,00914960620fa_sunaozisvwfbmlkfhzv.jpg,00191940128fb.jpg,sunaawsdjisukbbginm.jpg,00914960620fa.jpg,sunaozisvwfbmlkfhzv.jpg,,,<,Place,,,,,1,,,,,,,o
60,23,Memory,1,,,,,,,00976960627fa.jpg,,,,,,,,,,,,,,,
61,23,Memory,1,,,,,,,sunaofikylqtxphvdem.jpg,,,,,,,,,,,,,,,
62,23,Memory,1,,,,,,,sunbbhqyyzmsxhsbjmp.jpg,,,,,,,,,,,,,,,
63,23,Memory,1,,,,,,,00719960620fa.jpg,,,,,,,,,,,,,,,
64,23,Memory,1,,,,,,,00265940128fb.jpg,,,,,,,,,,,,,,,
65,23,Memory,1,,,,,,,sunaajspcoepticvplv.jpg,,,,,,,,,,,,,,,
66,23,Memory,1,,,,,,,00098931230fa.jpg,,,,,,,,,,,,,,,
67,23,Memory,1,,,,,,,sunaapxkpvrhpjplsok.jpg,,,,,,,,,,,,,,,
68,23,Memory,1,,,,,,,sunaiycurtqsfkvcaso.jpg,,,,,,,,,,,,,,,
69,23,Memory,1,,,,,,,00784941205fb.jpg,,,,,,,,,,,,,,,
70,23,Memory,1,,,,,,,sunaozisvwfbmlkfhzv.jpg,,,,,,,,,,,,,,,
71,23,Memory,1,,,,,,,sunabmytpyhsgigllxu.jpg,,,,,,,,,,,,,,,
72,23,Memory,1,,,,,,,sunabjuovqvyfuzvqwt.jpg,,,,,,,,,,,,,,,
73,23,Memory,1,,,,,,,sundahdxwmcdluscvot.jpg,,,,,,,,,,,,,,,
74,23,Memory,1,,,,,,,00783941205fa.jpg,,,,,,,,,,,,,,,
75,23,Memory,1,,,,,,,00564941031fa.jpg,,,,,,,,,,,,,,,
76,23,Memory,1,,,,,,,sunabwfvcqqidycwypa.jpg,,,,,,,,,,,,,,,
77,23,Memory,1,,,,,,,00905960530fa.jpg,,,,,,,,,,,,,,,
78,23,Memory,1,,,,,,,00142931230fb.jpg,,,,,,,,,,,,,,,
79,23,Memory,1,,,,,,,sunagjeesomrwjsfqie.jpg,,,,,,,,,,,,,,,
80,23,Memory,1,,,,,,,sunacsaovnjezqwbykf.jpg,,,,,,,,,,,,,,,
81,23,Memory,1,,,,,,,sunagjzcrjvmxzqzljx.jpg,,,,,,,,,,,,,,,
82,23,Memory,1,,,,,,,00914960620fa.jpg,,,,,,,,,,,,,,,
83,23,Memory,1,,,,,,,00910960530fa.jpg,,,,,,,,,,,,,,,
84,23,Memory,1,,,,,,,00263940128fb.jpg,,,,,,,,,,,,,,,
85,23,Memory,1,,,,,,,sunadzuvtmtmgupotmf.jpg,,,,,,,,,,,,,,,
86,23,Memory,1,,,,,,,00809960620fa.jpg,,,,,,,,,,,,,,,
87,23,Memory,1,,,,,,,sunanmoqeyprjjjfxjt.jpg,,,,,,,,,,,,,,,
88,23,Memory,1,,,,,,,00102931230fa.jpg,,,,,,,,,,,,,,,
89,23,Memory,1,,,,,,,01011960627fa.jpg,,,,,,,,,,,,,,,
90,23,Memory,1,,,,,,,00308940422fb.jpg,,,,,,,,,,,,,,,
91,23,Memory,1,,,,,,,sunabkmdplkdbvxriff.jpg,,,,,,,,,,,,,,,
92,23,Memory,1,,,,,,,00859940307fa.jpg,,,,,,,,,,,,,,,
93,23,Memory,1,,,,,,,00276940422fa.jpg,,,,,,,,,,,,,,,
94,23,Memory,1,,,,,,,00076931230fa.jpg,,,,,,,,,,,,,,,
95,23,Memory,1,,,,,,,sunaajpqmulidejvjsr.jpg,,,,,,,,,,,,,,,
96,23,Memory,1,,,,,,,sunaafewhewbxmjiurz.jpg,,,,,,,,,,,,,,,
97,23,Memory,1,,,,,,,sunbasypfgzjtomktmu.jpg,,,,,,,,,,,,,,,
98,23,Memory,1,,,,,,,00970960627fa.jpg,,,,,,,,,,,,,,,
99,23,Memory,1,,,,,,,sunahbvlpavurqoxdeq.jpg,,,,,,,,,,,,,,,
100,23,Presentation,2,00543940519fa_sunacepzfrmtkiqonpy.jpg,00882960530fa_sunaknlirqjqiwbbeeg.jpg,00543940519fa.jpg,sunacepzfrmtkiqonpy.jpg,00882960530fa.jpg,sunaknlirqjqiwbbeeg.jpg,,,<,Place,,,,,0,,,,,,,x
101,23,Presentation,2,00969960627fa_sunbaoizrfijvhpnnjn.jpg,00761960627fa_sunafgdqbclkwfocdhg.jpg,00969960627fa.jpg,sunbaoizrfijvhpnnjn.jpg,00761960627fa.jpg,sunafgdqbclkwfocdhg.jpg,,,<,Place,,,,,1,,,,,,,x
102,23,Presentation,2,00294940422fb_sunabrlndkruqokhury.jpg,00788941205fa_sunagountlxpzkytsmp.jpg,00294940422fb.jpg,sunabrlndkruqokhury.jpg,00788941205fa.jpg,sunagountlxpzkytsmp.jpg,,,<,Place,,,,,1,,,,,,,x
103,23,Presentation,2,00775941205fa_sunafvwfsmqkjrutjta.jpg,00154931230fa_sunaauueuhhvklldjik.jpg,00775941205fa.jpg,sunafvwfsmqkjrutjta.jpg,00154931230fa.jpg,sunaauueuhhvklldjik.jpg,,,<,Place,,,,,1,,,,,,,x
104,23,Presentation,2,00096931230fa_sunaaiqiqcggrskoqgy.jpg,00140931230fb_sunaapllqyqlykszopd.jpg,00096931230fa.jpg,sunaaiqiqcggrskoqgy.jpg,00140931230fb.jpg,sunaapllqyqlykszopd.jpg,,,<,Place,,,,,1,,,,,,,o
105,23,Presentation,2,00062931230fb_sunaaelotvjgibjtjhs.jpg,00507940519fa_sunacacflqoyxhsqzhe.jpg,00062931230fb.jpg,sunaaelotvjgibjtjhs.jpg,00507940519fa.jpg,sunacacflqoyxhsqzhe.jpg,,,<,Place,,,,,1,,,,,,,x
106,23,Presentation,2,00936960627fa_sunaqgjuuwvdcyiccjt.jpg,00262940128fa_sunabizydfotqddlnjp.jpg,00936960627fa.jpg,sunaqgjuuwvdcyiccjt.jpg,00262940128fa.jpg,sunabizydfotqddlnjp.jpg,,,<,Place,,,,,1,,,,,,,o
107,23,Presentation,2,00741941201fa_sunaemcowdozyphwknd.jpg,00270940422fb_sunabllobxadqcyttej.jpg,00741941201fa.jpg,sunaemcowdozyphwknd.jpg,00270940422fb.jpg,sunabllobxadqcyttej.jpg,,,<,Place,,,,,1,,,,,,,o
108,23,Presentation,2,00316940422fa_sunabxmguapjekttvwm.jpg,00893960530Fa_sunaloffvbvysigxent.jpg,00316940422fa.jpg,sunabxmguapjekttvwm.jpg,00893960530Fa.jpg,sunaloffvbvysigxent.jpg,,,<,Place,,,,,1,,,,,,,o
109,23,Presentation,2,00630941031fa_sunadakkdovnuzlycvp.jpg,01002960627fb_sunbwaafjdebjzttuvq.jpg,00630941031fa.jpg,sunadakkdovnuzlycvp.jpg,01002960627fb.jpg,sunbwaafjdebjzttuvq.jpg,,,<,Place,,,,,0,,,,,,,o
110,23,Memory,2,,,,,,,00270940422fb.jpg,,,,,,,,,,,,,,,
111,23,Memory,2,,,,,,,00507940519fa.jpg,,,,,,,,,,,,,,,
112,23,Memory,2,,,,,,,00741941201fa.jpg,,,,,,,,,,,,,,,
113,23,Memory,2,,,,,,,sunabrlndkruqokhury.jpg,,,,,,,,,,,,,,,
114,23,Memory,2,,,,,,,01004960627fa.jpg,,,,,,,,,,,,,,,
115,23,Memory,2,,,,,,,00892960530fa.jpg,,,,,,,,,,,,,,,
116,23,Memory,2,,,,,,,sunacepzfrmtkiqonpy.jpg,,,,,,,,,,,,,,,
117,23,Memory,2,,,,,,,00893960530Fa.jpg,,,,,,,,,,,,,,,
118,23,Memory,2,,,,,,,00908960530fa.jpg,,,,,,,,,,,,,,,
119,23,Memory,2,,,,,,,00775941205fa.jpg,,,,,,,,,,,,,,,
120,23,Memory,2,,,,,,,sunbwaafjdebjzttuvq.jpg,,,,,,,,,,,,,,,
121,23,Memory,2,,,,,,,sunaauueuhhvklldjik.jpg,,,,,,,,,,,,,,,
122,23,Memory,2,,,,,,,sunagvprlbprarvgdvj.jpg,,,,,,,,,,,,,,,
123,23,Memory,2,,,,,,,00848940307fa.jpg,,,,,,,,,,,,,,,
124,23,Memory,2,,,,,,,sunaloffvbvysigxent.jpg,,,,,,,,,,,,,,,
125,23,Memory,2,,,,,,,00294940422fb.jpg,,,,,,,,,,,,,,,
126,23,Memory,2,,,,,,,sunaemcowdozyphwknd.jpg,,,,,,,,,,,,,,,
127,23,Memory,2,,,,,,,00543940519fa.jpg,,,,,,,,,,,,,,,
128,23,Memory,2,,,,,,,sunbaoizrfijvhpnnjn.jpg,,,,,,,,,,,,,,,
129,23,Memory,2,,,,,,,sunajxpkuhbizeveguy.jpg,,,,,,,,,,,,,,,
130,23,Memory,2,,,,,,,00801941205fa.jpg,,,,,,,,,,,,,,,
131,23,Memory,2,,,,,,,00127931230fa.jpg,,,,,,,,,,,,,,,
132,23,Memory,2,,,,,,,sunaafgqutfaishsxyu.jpg,,,,,,,,,,,,,,,
133,23,Memory,2,,,,,,,00154931230fa.jpg,,,,,,,,,,,,,,,
134,23,Memory,2,,,,,,,sunacacflqoyxhsqzhe.jpg,,,,,,,,,,,,,,,
135,23,Memory,2,,,,,,,sunaampvucecsfbdafn.jpg,,,,,,,,,,,,,,,
136,23,Memory,2,,,,,,,00557940519fa.jpg,,,,,,,,,,,,,,,
137,23,Memory,2,,,,,,,sunanwjjyqqwzqrqagd.jpg,,,,,,,,,,,,,,,
138,23,Memory,2,,,,,,,01002960627fb.jpg,,,,,,,,,,,,,,,
139,23,Memory,2,,,,,,,00969960627fa.jpg,,,,,,,,,,,,,,,
140,23,Memory,2,,,,,,,00792941205fa.jpg,,,,,,,,,,,,,,,
141,23,Memory,2,,,,,,,sunagsiwrmuixqgdimb.jpg,,,,,,,,,,,,,,,
142,23,Memory,2,,,,,,,sunalntxqqadigcletd.jpg,,,,,,,,,,,,,,,
143,23,Memory,2,,,,,,,sunachtuarilwyqnvjx.jpg,,,,,,,,,,,,,,,
144,23,Memory,2,,,,,,,sunaivdylrawbmhryfp.jpg,,,,,,,,,,,,,,,
145,23,Memory,2,,,,,,,00877960530fa.jpg,,,,,,,,,,,,,,,
146,23,Memory,2,,,,,,,00077931230fb.jpg,,,,,,,,,,,,,,,
147,23,Memory,2,,,,,,,sunafvwfsmqkjrutjta.jpg,,,,,,,,,,,,,,,
148,23,Memory,2,,,,,,,sunabllobxadqcyttej.jpg,,,,,,,,,,,,,,,
149,23,Memory,2,,,,,,,sunbwtlihsuptkrckid.jpg,,,,,,,,,,,,,,,
150,23,Presentation,3,00267940128fb_sunablfqiwfqomjarht.jpg,00938960627fa_sunaqyylsngywqzwfmx.jpg,00267940128fb.jpg,sunablfqiwfqomjarht.jpg,00938960627fa.jpg,sunaqyylsngywqzwfmx.jpg,,,>,Face,,,,,1,,,,,,,x
151,23,Presentation,3,00871940307_sunajrujcsdxmfbssmc.jpg,00880960530fa_sunakmnfgklupjijsgf.jpg,00871940307.jpg,sunajrujcsdxmfbssmc.jpg,00880960530fa.jpg,sunakmnfgklupjijsgf.jpg,,,>,Face,,,,,1,,,,,,,o
152,23,Presentation,3,00723941201fa_sunaedtgwjvvziytspa.jpg,00125931230fa_sunaalltyvjhbzhkmvg.jpg,00723941201fa.jpg,sunaedtgwjvvziytspa.jpg,00125931230fa.jpg,sunaalltyvjhbzhkmvg.jpg,,,>,Face,,,,,1,,,,,,,x
153,23,Presentation,3,00194940128fb_sunaayehfdqcyxggsej.jpg,00131931230fb_sunaangbuylfvckqqoo.jpg,00194940128fb.jpg,sunaayehfdqcyxggsej.jpg,00131931230fb.jpg,sunaangbuylfvckqqoo.jpg,,,>,Face,,,,,1,,,,,,,x
154,23,Presentation,3,00149931230fa_sunaauglwmctnkxyird.jpg,00958960627fa_sunavspxmxubqaeidjt.jpg,00149931230fa.jpg,sunaauglwmctnkxyird.jpg,00958960627fa.jpg,sunavspxmxubqaeidjt.jpg,,,>,Face,,,,,1,,,,,,,o
155,23,Presentation,3,00776941205fa_sunafxokyavhgptyfye.jpg,00876960620fa_sunajwqkfsykceonyig.jpg,00776941205fa.jpg,sunafxokyavhgptyfye.jpg,00876960620fa.jpg,sunajwqkfsykceonyig.jpg,,,>,Face,,,,,1,,,,,,,x
156,23,Presentation,3,00568940928fa_sunacsdhbbsybcyxnel.jpg,00953960627fa_sunatstrpjxhvtbaczf.jpg,00568940928fa.jpg,sunacsdhbbsybcyxnel.jpg,00953960627fa.jpg,sunatstrpjxhvtbaczf.jpg,,,>,Face,,,,,1,,,,,,,x
157,23,Presentation,3,00789960620fa_sunagpancjmxqfazssf.jpg,00807941205fa_sunahawfngukizslzsd.jpg,00789960620fa.jpg,sunagpancjmxqfazssf.jpg,00807941205fa.jpg,sunahawfngukizslzsd.jpg,,,>,Face,,,,,1,,,,,,,o
158,23,Presentation,3,00730960620fa_sunaekgzpfilgjxpeyq.jpg,00937960627fa_sunaqsolmfydodnakub.jpg,00730960620fa.jpg,sunaekgzpfilgjxpeyq.jpg,00937960627fa.jpg,sunaqsolmfydodnakub.jpg,,,>,Face,,,,,1,,,,,,,o
159,23,Presentation,3,00960960627fa_sunawksfbacycuhbrsc.jpg,00854940307fa_sunaiwduelojtwaqeyh.jpg,00960960627fa.jpg,sunawksfbacycuhbrsc.jpg,00854940307fa.jpg,sunaiwduelojtwaqeyh.jpg,,,>,Face,,,,,1,,,,,,,o
160,23,Memory,3,,,,,,,00953960627fa.jpg,,,,,,,,,,,,,,,
161,23,Memory,3,,,,,,,00789960620fa.jpg,,,,,,,,,,,,,,,
162,23,Memory,3,,,,,,,00479940519fa.jpg,,,,,,,,,,,,,,,
163,23,Memory,3,,,,,,,00743941201fa.jpg,,,,,,,,,,,,,,,
164,23,Memory,3,,,,,,,sunajawzbrlrwafowen.jpg,,,,,,,,,,,,,,,
165,23,Memory,3,,,,,,,00723941201fa.jpg,,,,,,,,,,,,,,,
166,23,Memory,3,,,,,,,00070940307fa.jpg,,,,,,,,,,,,,,,
167,23,Memory,3,,,,,,,00937960627fa.jpg,,,,,,,,,,,,,,,
168,23,Memory,3,,,,,,,sunaaeplwsfslcbtojr.jpg,,,,,,,,,,,,,,,
169,23,Memory,3,,,,,,,sunacsdhbbsybcyxnel.jpg,,,,,,,,,,,,,,,
170,23,Memory,3,,,,,,,sunajwqkfsykceonyig.jpg,,,,,,,,,,,,,,,
171,23,Memory,3,,,,,,,sunahawfngukizslzsd.jpg,,,,,,,,,,,,,,,
172,23,Memory,3,,,,,,,sunaalltyvjhbzhkmvg.jpg,,,,,,,,,,,,,,,
173,23,Memory,3,,,,,,,sunaauglwmctnkxyird.jpg,,,,,,,,,,,,,,,
174,23,Memory,3,,,,,,,00800941205fb.jpg,,,,,,,,,,,,,,,
175,23,Memory,3,,,,,,,00874940307fa.jpg,,,,,,,,,,,,,,,
176,23,Memory,3,,,,,,,sunabxsbfwjccqxxzxq.jpg,,,,,,,,,,,,,,,
177,23,Memory,3,,,,,,,sunaatjesvdupctftmn.jpg,,,,,,,,,,,,,,,
178,23,Memory,3,,,,,,,00145931230fb.jpg,,,,,,,,,,,,,,,
179,23,Memory,3,,,,,,,00887960530.jpg,,,,,,,,,,,,,,,
180,23,Memory,3,,,,,,,sunaqsolmfydodnakub.jpg,,,,,,,,,,,,,,,
181,23,Memory,3,,,,,,,sunagpancjmxqfazssf.jpg,,,,,,,,,,,,,,,
182,23,Memory,3,,,,,,,sunalcrtwiycqobgelp.jpg,,,,,,,,,,,,,,,
183,23,Memory,3,,,,,,,sunabclssnoeuigtawp.jpg,,,,,,,,,,,,,,,
184,23,Memory,3,,,,,,,sunaapfaivxqoynnwwp.jpg,,,,,,,,,,,,,,,
185,23,Memory,3,,,,,,,00138931230fa.jpg,,,,,,,,,,,,,,,
186,23,Memory,3,,,,,,,sunatstrpjxhvtbaczf.jpg,,,,,,,,,,,,,,,
187,23,Memory,3,,,,,,,sunajtrfunvzdfticna.jpg,,,,,,,,,,,,,,,
188,23,Memory,3,,,,,,,00568940928fa.jpg,,,,,,,,,,,,,,,
189,23,Memory,3,,,,,,,sunaedtgwjvvziytspa.jpg,,,,,,,,,,,,,,,
190,23,Memory,3,,,,,,,sunafxokyavhgptyfye.jpg,,,,,,,,,,,,,,,
191,23,Memory,3,,,,,,,00125931230fa.jpg,,,,,,,,,,,,,,,
192,23,Memory,3,,,,,,,00235940128fb.jpg,,,,,,,,,,,,,,,
193,23,Memory,3,,,,,,,00864940307fa.jpg,,,,,,,,,,,,,,,
194,23,Memory,3,,,,,,,00807941205fa.jpg,,,,,,,,,,,,,,,
195,23,Memory,3,,,,,,,00876960620fa.jpg,,,,,,,,,,,,,,,
196,23,Memory,3,,,,,,,00776941205fa.jpg,,,,,,,,,,,,,,,
197,23,Memory,3,,,,,,,sunagvjurcwdbixvnyi.jpg,,,,,,,,,,,,,,,
198,23,Memory,3,,,,,,,00149931230fa.jpg,,,,,,,,,,,,,,,
199,23,Memory,3,,,,,,,sunaeoghzrjarigmwua.jpg,,,,,,,,,,,,,,,
200,23,Presentation,4,00198940128fb_sunaazezcsunmhttzxz.jpg,00762941201fa_sunafgzgbisbopcyslr.jpg,00198940128fb.jpg,sunaazezcsunmhttzxz.jpg,00762941201fa.jpg,sunafgzgbisbopcyslr.jpg,,,>,Face,,,,,1,,,,,,,x
201,23,Presentation,4,00116931230fa_sunaakqepfoeqomfgxf.jpg,00950960627fa_sunasrjlmglmjzbmqxb.jpg,00116931230fa.jpg,sunaakqepfoeqomfgxf.jpg,00950960627fa.jpg,sunasrjlmglmjzbmqxb.jpg,,,>,Face,,,,,1,,,,,,,o
202,23,Presentation,4,00972960627fa_sunbbfqwjpdxniyhies.jpg,00650941031fa_sunadikxpvqeabxrvvc.jpg,00972960627fa.jpg,sunbbfqwjpdxniyhies.jpg,00650941031fa.jpg,sunadikxpvqeabxrvvc.jpg,,,>,Face,,,,,0,,,,,,,x
203,23,Presentation,4,00774941201fa_sunafvtpfczkzopbgue.jpg,00101931230fb_sunaajqmsaavkmgbsth.jpg,00774941201fa.jpg,sunafvtpfczkzopbgue.jpg,00101931230fb.jpg,sunaajqmsaavkmgbsth.jpg,,,>,Face,,,,,0,,,,,,,x
204,23,Presentation,4,00770941201fa_sunaflojskatpeqyzqp.jpg,00944960627fa_sunasbbntuiheekqyaq.jpg,00770941201fa.jpg,sunaflojskatpeqyzqp.jpg,00944960627fa.jpg,sunasbbntuiheekqyaq.jpg,,,>,Face,,,,,1,,,,,,,x
205,23,Presentation,4,00227940128fa_sunabckqabszusgcykj.jpg,00911960530fa_sunaooaqzputrowwbsw.jpg,00227940128fa.jpg,sunabckqabszusgcykj.jpg,00911960530fa.jpg,sunaooaqzputrowwbsw.jpg,,,>,Face,,,,,0,,,,,,,o
206,23,Presentation,4,00280940422fb_sunabohxbskznglnrhv.jpg,00126931230fb_sunaamdjwemxpmmtypi.jpg,00280940422fb.jpg,sunabohxbskznglnrhv.jpg,00126931230fb.jpg,sunaamdjwemxpmmtypi.jpg,,,>,Face,,,,,1,,,,,,,o
207,23,Presentation,4,00898960530fa_sunamkmeblgteyggink.jpg,00483940519fa_sunabyvpwkgsjtijdwj.jpg,00898960530fa.jpg,sunamkmeblgteyggink.jpg,00483940519fa.jpg,sunabyvpwkgsjtijdwj.jpg,,,>,Face,,,,,1,,,,,,,o
208,23,Presentation,4,00634940928fa_sunadcphrizvfpljiqt.jpg,00123931230fb_sunaalcrrdbjgdztbiz.jpg,00634940928fa.jpg,sunadcphrizvfpljiqt.jpg,00123931230fb.jpg,sunaalcrrdbjgdztbiz.jpg,,,>,Face,,,,,1,,,,,,,x
209,23,Presentation,4,00609940928fa_sunacycdoztxoluxjyk.jpg,00773941201fa_sunafvcflzhlqloapyo.jpg,00609940928fa.jpg,sunacycdoztxoluxjyk.jpg,00773941201fa.jpg,sunafvcflzhlqloapyo.jpg,,,>,Face,,,,,1,,,,,,,x
210,23,Memory,4,,,,,,,00073931230fa.jpg,,,,,,,,,,,,,,,
211,23,Memory,4,,,,,,,sunaakgekhjklxmvulj.jpg,,,,,,,,,,,,,,,
212,23,Memory,4,,,,,,,00574940928fa.jpg,,,,,,,,,,,,,,,
213,23,Memory,4,,,,,,,00983960627fa.jpg,,,,,,,,,,,,,,,
214,23,Memory,4,,,,,,,00944960627fa.jpg,,,,,,,,,,,,,,,
215,23,Memory,4,,,,,,,00126931230fb.jpg,,,,,,,,,,,,,,,
216,23,Memory,4,,,,,,,00634940928fa.jpg,,,,,,,,,,,,,,,
217,23,Memory,4,,,,,,,00123931230fb.jpg,,,,,,,,,,,,,,,
218,23,Memory,4,,,,,,,00498960627fa.jpg,,,,,,,,,,,,,,,
219,23,Memory,4,,,,,,,00770941201fa.jpg,,,,,,,,,,,,,,,
220,23,Memory,4,,,,,,,00972960627fa.jpg,,,,,,,,,,,,,,,
221,23,Memory,4,,,,,,,sunabzjxlmkwnwzimua.jpg,,,,,,,,,,,,,,,
222,23,Memory,4,,,,,,,sunamkmeblgteyggink.jpg,,,,,,,,,,,,,,,
223,23,Memory,4,,,,,,,sunaanlwnpqndclffxt.jpg,,,,,,,,,,,,,,,
224,23,Memory,4,,,,,,,sunahctntqrunhdxhtb.jpg,,,,,,,,,,,,,,,
225,23,Memory,4,,,,,,,sunaddsaeicthrfbkhe.jpg,,,,,,,,,,,,,,,
226,23,Memory,4,,,,,,,sunaamdjwemxpmmtypi.jpg,,,,,,,,,,,,,,,
227,23,Memory,4,,,,,,,sunbwdrdvsweerwsdrj.jpg,,,,,,,,,,,,,,,
228,23,Memory,4,,,,,,,00810941205fa.jpg,,,,,,,,,,,,,,,
229,23,Memory,4,,,,,,,sunacycdoztxoluxjyk.jpg,,,,,,,,,,,,,,,
230,23,Memory,4,,,,,,,00101931230fb.jpg,,,,,,,,,,,,,,,
231,23,Memory,4,,,,,,,sunaflojskatpeqyzqp.jpg,,,,,,,,,,,,,,,
232,23,Memory,4,,,,,,,00985960627fa.jpg,,,,,,,,,,,,,,,
233,23,Memory,4,,,,,,,sunadikxpvqeabxrvvc.jpg,,,,,,,,,,,,,,,
234,23,Memory,4,,,,,,,sunaafbmtoniaasysgu.jpg,,,,,,,,,,,,,,,
235,23,Memory,4,,,,,,,sunbfyvfqiimvdaxlqn.jpg,,,,,,,,,,,,,,,
236,23,Memory,4,,,,,,,sunbgklxeqjhdbyfhhy.jpg,,,,,,,,,,,,,,,
237,23,Memory,4,,,,,,,sunbbfqwjpdxniyhies.jpg,,,,,,,,,,,,,,,
238,23,Memory,4,,,,,,,sunasbbntuiheekqyaq.jpg,,,,,,,,,,,,,,,
239,23,Memory,4,,,,,,,00898960530fa.jpg,,,,,,,,,,,,,,,
240,23,Memory,4,,,,,,,00609940928fa.jpg,,,,,,,,,,,,,,,
241,23,Memory,4,,,,,,,sunacvbrcejzwmcgnoq.jpg,,,,,,,,,,,,,,,
242,23,Memory,4,,,,,,,01003960627fb.jpg,,,,,,,,,,,,,,,
243,23,Memory,4,,,,,,,00635941031fa.jpg,,,,,,,,,,,,,,,
244,23,Memory,4,,,,,,,00133931230fa.jpg,,,,,,,,,,,,,,,
245,23,Memory,4,,,,,,,sunadcphrizvfpljiqt.jpg,,,,,,,,,,,,,,,
246,23,Memory,4,,,,,,,00650941031fa.jpg,,,,,,,,,,,,,,,
247,23,Memory,4,,,,,,,sunaalcrrdbjgdztbiz.jpg,,,,,,,,,,,,,,,
248,23,Memory,4,,,,,,,sunaajqmsaavkmgbsth.jpg,,,,,,,,,,,,,,,
249,23,Memory,4,,,,,,,00111931230fb.jpg,,,,,,,,,,,,,,,
250,23,Presentation,5,00647941031fa_sunadflbrkckmepztql.jpg,00925960627fa_sunapqwnqzxlsfvgsjm.jpg,00647941031fa.jpg,sunadflbrkckmepztql.jpg,00925960627fa.jpg,sunapqwnqzxlsfvgsjm.jpg,,,<,Face,,,,,1,,,,,,,o
251,23,Presentation,5,00870940307fa_sunajrgtewnualfcerj.jpg,00851940307fa_sunaivflshbyfrfzhqb.jpg,00870940307fa.jpg,sunajrgtewnualfcerj.jpg,00851940307fa.jpg,sunaivflshbyfrfzhqb.jpg,,,<,Face,,,,,1,,,,,,,o
252,23,Presentation,5,00939960627fa_sunarceibpcyacbmfga.jpg,00836940307fa_sunainqelldeebvxtcz.jpg,00939960627fa.jpg,sunarceibpcyacbmfga.jpg,00836940307fa.jpg,sunainqelldeebvxtcz.jpg,,,<,Face,,,,,1,,,,,,,o
253,23,Presentation,5,00780960530fa_sunagetqixeypsysbpn.jpg,00636941031fa_sunaddtdkycxbqlpfqa.jpg,00780960530fa.jpg,sunagetqixeypsysbpn.jpg,00636941031fa.jpg,sunaddtdkycxbqlpfqa.jpg,,,<,Face,,,,,1,,,,,,,x
254,23,Presentation,5,00787960620fa_sunagoufulkpsxrmklt.jpg,00773960620fa_sunafvsxtzaizojicxx.jpg,00787960620fa.jpg,sunagoufulkpsxrmklt.jpg,00773960620fa.jpg,sunafvsxtzaizojicxx.jpg,,,<,Face,,,,,1,,,,,,,x
255,23,Presentation,5,00081941031fa_sunaaftlyfudyzuhqzf.jpg,00901960530fa_sunammbnoambmhdxdwd.jpg,00081941031fa.jpg,sunaaftlyfudyzuhqzf.jpg,00901960530fa.jpg,sunammbnoambmhdxdwd.jpg,,,<,Face,,,,,1,,,,,,,x
256,23,Presentation,5,00086931230fa_sunaafynehyrzpsoaml.jpg,00816941205fa_sunahmhrncocyhsjpxk.jpg,00086931230fa.jpg,sunaafynehyrzpsoaml.jpg,00816941205fa.jpg,sunahmhrncocyhsjpxk.jpg,,,<,Face,,,,,1,,,,,,,x
257,23,Presentation,5,00829940307fa_sunahwgbqkqcrwprgvh.jpg,00554940519fa_sunacfdkbsrughwqwtt.jpg,00829940307fa.jpg,sunahwgbqkqcrwprgvh.jpg,00554940519fa.jpg,sunacfdkbsrughwqwtt.jpg,,,<,Face,,,,,1,,,,,,,x
258,23,Presentation,5,00071941031fa_sunaaexqbtdswxrqjvz.jpg,00785941205fa_sunaglqunwuycxydmyu.jpg,00071941031fa.jpg,sunaaexqbtdswxrqjvz.jpg,00785941205fa.jpg,sunaglqunwuycxydmyu.jpg,,,<,Face,,,,,1,,,,,,,o
259,23,Presentation,5,00889960530fa_sunaletopenvvozhpxc.jpg,00728941205fa_sunaejnvnpltdmhbcsi.jpg,00889960530fa.jpg,sunaletopenvvozhpxc.jpg,00728941205fa.jpg,sunaejnvnpltdmhbcsi.jpg,,,<,Face,,,,,1,,,,,,,o
260,23,Memory,5,,,,,,,00827940307fa.jpg,,,,,,,,,,,,,,,
261,23,Memory,5,,,,,,,00782941205fa.jpg,,,,,,,,,,,,,,,
262,23,Memory,5,,,,,,,00647941031fa.jpg,,,,,,,,,,,,,,,
263,23,Memory,5,,,,,,,00132931230fb.jpg,,,,,,,,,,,,,,,
264,23,Memory,5,,,,,,,00071941031fa.jpg,,,,,,,,,,,,,,,
265,23,Memory,5,,,,,,,00313940422fa.jpg,,,,,,,,,,,,,,,
266,23,Memory,5,,,,,,,00636941031fa.jpg,,,,,,,,,,,,,,,
267,23,Memory,5,,,,,,,sunadflbrkckmepztql.jpg,,,,,,,,,,,,,,,
268,23,Memory,5,,,,,,,sunacfdkbsrughwqwtt.jpg,,,,,,,,,,,,,,,
269,23,Memory,5,,,,,,,00773960620fa.jpg,,,,,,,,,,,,,,,
270,23,Memory,5,,,,,,,00939960627fa.jpg,,,,,,,,,,,,,,,
271,23,Memory,5,,,,,,,sunaeomlfaabhpswasy.jpg,,,,,,,,,,,,,,,
272,23,Memory,5,,,,,,,00620940928fa.jpg,,,,,,,,,,,,,,,
273,23,Memory,5,,,,,,,00210940128fb.jpg,,,,,,,,,,,,,,,
274,23,Memory,5,,,,,,,00081941031fa.jpg,,,,,,,,,,,,,,,
275,23,Memory,5,,,,,,,sunacypmnujalygkunp.jpg,,,,,,,,,,,,,,,
276,23,Memory,5,,,,,,,sunabwjvmoaddlyxfjr.jpg,,,,,,,,,,,,,,,
277,23,Memory,5,,,,,,,sunagetqixeypsysbpn.jpg,,,,,,,,,,,,,,,
278,23,Memory,5,,,,,,,00080931230fb.jpg,,,,,,,,,,,,,,,
279,23,Memory,5,,,,,,,00816941205fa.jpg,,,,,,,,,,,,,,,
280,23,Memory,5,,,,,,,sunaawqdbpihmlbwyyn.jpg,,,,,,,,,,,,,,,
281,23,Memory,5,,,,,,,00119931230fb.jpg,,,,,,,,,,,,,,,
282,23,Memory,5,,,,,,,sunagfvluwixdsozaql.jpg,,,,,,,,,,,,,,,
283,23,Memory,5,,,,,,,sunaanjcbzdvtvblsdy.jpg,,,,,,,,,,,,,,,
284,23,Memory,5,,,,,,,00851940307fa.jpg,,,,,,,,,,,,,,,
285,23,Memory,5,,,,,,,00780960530fa.jpg,,,,,,,,,,,,,,,
286,23,Memory,5,,,,,,,sunaivflshbyfrfzhqb.jpg,,,,,,,,,,,,,,,
287,23,Memory,5,,,,,,,sunabanoxjtqxamkucc.jpg,,,,,,,,,,,,,,,
288,23,Memory,5,,,,,,,sunarceibpcyacbmfga.jpg,,,,,,,,,,,,,,,
289,23,Memory,5,,,,,,,00554940519fa.jpg,,,,,,,,,,,,,,,
290,23,Memory,5,,,,,,,sunaddtdkycxbqlpfqa.jpg,,,,,,,,,,,,,,,
291,23,Memory,5,,,,,,,sunaaexqbtdswxrqjvz.jpg,,,,,,,,,,,,,,,
292,23,Memory,5,,,,,,,00185940422fb.jpg,,,,,,,,,,,,,,,
293,23,Memory,5,,,,,,,sunahtfxgsrmkiulnwk.jpg,,,,,,,,,,,,,,,
294,23,Memory,5,,,,,,,sunaaftlyfudyzuhqzf.jpg,,,,,,,,,,,,,,,
295,23,Memory,5,,,,,,,sunaakvmbftkrgqhjun.jpg,,,,,,,,,,,,,,,
296,23,Memory,5,,,,,,,sunafvsxtzaizojicxx.jpg,,,,,,,,,,,,,,,
297,23,Memory,5,,,,,,,sunahmhrncocyhsjpxk.jpg,,,,,,,,,,,,,,,
298,23,Memory,5,,,,,,,sunaafjszryxyavjzln.jpg,,,,,,,,,,,,,,,
299,23,Memory,5,,,,,,,00744941201fa.jpg,,,,,,,,,,,,,,,
300,23,Presentation,6,00919960620fa_sunapmfmzadmosuogaz.jpg,00115931230fa_sunaakmxzhuceuiryah.jpg,00919960620fa.jpg,sunapmfmzadmosuogaz.jpg,00115931230fa.jpg,sunaakmxzhuceuiryah.jpg,,,>,Place,,,,,1,,,,,,,x
301,23,Presentation,6,00763941205fa_sunafhmnhsdurlvddpw.jpg,00885960530fa_sunakwlvxjpddialozd.jpg,00763941205fa.jpg,sunafhmnhsdurlvddpw.jpg,00885960530fa.jpg,sunakwlvxjpddialozd.jpg,,,>,Place,,,,,1,,,,,,,o
302,23,Presentation,6,00746941201fa_sunaetydippjxikifsb.jpg,00153931230fa_sunaauhozyxzeeqstxi.jpg,00746941201fa.jpg,sunaetydippjxikifsb.jpg,00153931230fa.jpg,sunaauhozyxzeeqstxi.jpg,,,>,Place,,,,,1,,,,,,,x
303,23,Presentation,6,00986960627fa_sunbgzjryivyczuvkvm.jpg,00576941031fa_sunacvjlsylseoghjup.jpg,00986960627fa.jpg,sunbgzjryivyczuvkvm.jpg,00576941031fa.jpg,sunacvjlsylseoghjup.jpg,,,>,Place,,,,,1,,,,,,,x
304,23,Presentation,6,00529940519fa_sunacbeefkxpymwevpk.jpg,00878960530fa_sunakgbnzxmfohgehnu.jpg,00529940519fa.jpg,sunacbeefkxpymwevpk.jpg,00878960530fa.jpg,sunakgbnzxmfohgehnu.jpg,,,>,Place,,,,,1,,,,,,,x
305,23,Presentation,6,00158931230fb_sunaavchcbptaerhcfy.jpg,00071940128fa_sunaaexpnawiehinlpy.jpg,00158931230fb.jpg,sunaavchcbptaerhcfy.jpg,00071940128fa.jpg,sunaaexpnawiehinlpy.jpg,,,>,Place,,,,,1,,,,,,,x
306,23,Presentation,6,00562941031fa_sunacjnahdmqfnjfwqx.jpg,00902960530fa_sunanaacmmosxrfwmvl.jpg,00562941031fa.jpg,sunacjnahdmqfnjfwqx.jpg,00902960530fa.jpg,sunanaacmmosxrfwmvl.jpg,,,>,Place,,,,,1,,,,,,,x
307,23,Presentation,6,00997960627fa_sunbtpilbhhbmhmeuzq.jpg,00839940307fa_sunaipyohrqlwngaqif.jpg,00997960627fa.jpg,sunbtpilbhhbmhmeuzq.jpg,00839940307fa.jpg,sunaipyohrqlwngaqif.jpg,,,>,Place,,,,,1,,,,,,,x
308,23,Presentation,6,00211940128fa_sunabasphceswhwwqvv.jpg,00581940928fa_sunacvzhvcksnwqcqbw.jpg,00211940128fa.jpg,sunabasphceswhwwqvv.jpg,00581940928fa.jpg,sunacvzhvcksnwqcqbw.jpg,,,>,Place,,,,,1,,,,,,,x
309,23,Presentation,6,00747941201fa_sunaeutbrtswvsozxyk.jpg,00589940928fa_sunacwggadqsfpovdjv.jpg,00747941201fa.jpg,sunaeutbrtswvsozxyk.jpg,00589940928fa.jpg,sunacwggadqsfpovdjv.jpg,,,>,Place,,,,,1,,,,,,,x
310,23,Memory,6,,,,,,,00779941205fa.jpg,,,,,,,,,,,,,,,
311,23,Memory,6,,,,,,,sunabrwnslxalcohfre.jpg,,,,,,,,,,,,,,,
312,23,Memory,6,,,,,,,sunaygrtwrwfezqjizr.jpg,,,,,,,,,,,,,,,
313,23,Memory,6,,,,,,,sunaooffzffbhcpirmm.jpg,,,,,,,,,,,,,,,
314,23,Memory,6,,,,,,,sunabueyoajufbkraki.jpg,,,,,,,,,,,,,,,
315,23,Memory,6,,,,,,,sunanaacmmosxrfwmvl.jpg,,,,,,,,,,,,,,,
316,23,Memory,6,,,,,,,sunaeutbrtswvsozxyk.jpg,,,,,,,,,,,,,,,
317,23,Memory,6,,,,,,,sunahpblecxtmuzkmxb.jpg,,,,,,,,,,,,,,,
318,23,Memory,6,,,,,,,00211940128fa.jpg,,,,,,,,,,,,,,,
319,23,Memory,6,,,,,,,sunbgzjryivyczuvkvm.jpg,,,,,,,,,,,,,,,
320,23,Memory,6,,,,,,,00966960627fa.jpg,,,,,,,,,,,,,,,
321,23,Memory,6,,,,,,,sunacjnahdmqfnjfwqx.jpg,,,,,,,,,,,,,,,
322,23,Memory,6,,,,,,,sunaavjinpnkappuonm.jpg,,,,,,,,,,,,,,,
323,23,Memory,6,,,,,,,sunacvjlsylseoghjup.jpg,,,,,,,,,,,,,,,
324,23,Memory,6,,,,,,,00818940307fa.jpg,,,,,,,,,,,,,,,
325,23,Memory,6,,,,,,,sunakgbnzxmfohgehnu.jpg,,,,,,,,,,,,,,,
326,23,Memory,6,,,,,,,00576941031fa.jpg,,,,,,,,,,,,,,,
327,23,Memory,6,,,,,,,00919960620fa.jpg,,,,,,,,,,,,,,,
328,23,Memory,6,,,,,,,00562941031fa.jpg,,,,,,,,,,,,,,,
329,23,Memory,6,,,,,,,00747941201fa.jpg,,,,,,,,,,,,,,,
330,23,Memory,6,,,,,,,sunathzzbcwjykldrem.jpg,,,,,,,,,,,,,,,
331,23,Memory,6,,,,,,,sunahqldjibofgsfdgb.jpg,,,,,,,,,,,,,,,
332,23,Memory,6,,,,,,,00913960530fa.jpg,,,,,,,,,,,,,,,
333,23,Memory,6,,,,,,,00296940422fa.jpg,,,,,,,,,,,,,,,
334,23,Memory,6,,,,,,,sunaaexpnawiehinlpy.jpg,,,,,,,,,,,,,,,
335,23,Memory,6,,,,,,,00819940307fa.jpg,,,,,,,,,,,,,,,
336,23,Memory,6,,,,,,,00071940128fa.jpg,,,,,,,,,,,,,,,
337,23,Memory,6,,,,,,,sunagdzlvkqtpnfxfcg.jpg,,,,,,,,,,,,,,,
338,23,Memory,6,,,,,,,00581940928fa.jpg,,,,,,,,,,,,,,,
339,23,Memory,6,,,,,,,00986960627fa.jpg,,,,,,,,,,,,,,,
340,23,Memory,6,,,,,,,sunacvzhvcksnwqcqbw.jpg,,,,,,,,,,,,,,,
341,23,Memory,6,,,,,,,00129931230fb.jpg,,,,,,,,,,,,,,,
342,23,Memory,6,,,,,,,00952960627fa.jpg,,,,,,,,,,,,,,,
343,23,Memory,6,,,,,,,sunaamsdyakblkfoydx.jpg,,,,,,,,,,,,,,,
344,23,Memory,6,,,,,,,00162931230fb.jpg,,,,,,,,,,,,,,,
345,23,Memory,6,,,,,,,sunabasphceswhwwqvv.jpg,,,,,,,,,,,,,,,
346,23,Memory,6,,,,,,,00902960530fa.jpg,,,,,,,,,,,,,,,
347,23,Memory,6,,,,,,,sunapmfmzadmosuogaz.jpg,,,,,,,,,,,,,,,
348,23,Memory,6,,,,,,,00306940422fa.jpg,,,,,,,,,,,,,,,
349,23,Memory,6,,,,,,,00878960530fa.jpg,,,,,,,,,,,,,,,
350,23,Presentation,7,00760960620fa_sunaffstbkappprzxnv.jpg,00915960620fa_sunapileznnbbmrwoei.jpg,00760960620fa.jpg,sunaffstbkappprzxnv.jpg,00915960620fa.jpg,sunapileznnbbmrwoei.jpg,,,>,Place,,,,,1,,,,,,,o
351,23,Presentation,7,01009960627fa_sunbxzweleltykebgan.jpg,00663941121fa_sunadnjjzohjhbohlwq.jpg,01009960627fa.jpg,sunbxzweleltykebgan.jpg,00663941121fa.jpg,sunadnjjzohjhbohlwq.jpg,,,>,Place,,,,,1,,,,,,,o
352,23,Presentation,7,00564940928fa_sunacmpqqfbsvlzinzl.jpg,00906960530fa_sunantryfbloeaomfta.jpg,00564940928fa.jpg,sunacmpqqfbsvlzinzl.jpg,00906960530fa.jpg,sunantryfbloeaomfta.jpg,,,>,Place,,,,,1,,,,,,,o
353,23,Presentation,7,00197940128fa_sunaaylzyqlqrsmfwif.jpg,00858940307fa_sunaixpqndlwhwjtjek.jpg,00197940128fa.jpg,sunaaylzyqlqrsmfwif.jpg,00858940307fa.jpg,sunaixpqndlwhwjtjek.jpg,,,>,Place,,,,,1,,,,,,,o
354,23,Presentation,7,00835940307fa_sunaijsqpvodplbwxkf.jpg,00866940307fa_sunajbwkywmsqkldfml.jpg,00835940307fa.jpg,sunaijsqpvodplbwxkf.jpg,00866940307fa.jpg,sunajbwkywmsqkldfml.jpg,,,>,Place,,,,,1,,,,,,,o
355,23,Presentation,7,00857940307fa_sunaiwfobocrruqznsv.jpg,00922960627fa_sunapqkyghktgtosuuk.jpg,00857940307fa.jpg,sunaiwfobocrruqznsv.jpg,00922960627fa.jpg,sunapqkyghktgtosuuk.jpg,,,>,Place,,,,,0,,,,,,,x
356,23,Presentation,7,00815941205fa_sunahiphsekjihkafsl.jpg,00209940128fb_sunabaergayifsgacxt.jpg,00815941205fa.jpg,sunahiphsekjihkafsl.jpg,00209940128fb.jpg,sunabaergayifsgacxt.jpg,,,>,Place,,,,,1,,,,,,,o
357,23,Presentation,7,00862940307fa_sunaizgnnplsvajzhkc.jpg,00482940519fa_sunabyfxcxhdebvdyfd.jpg,00862940307fa.jpg,sunaizgnnplsvajzhkc.jpg,00482940519fa.jpg,sunabyfxcxhdebvdyfd.jpg,,,>,Place,,,,,1,,,,,,,x
358,23,Presentation,7,00947960627fa_sunasmmcxdddtmtazwx.jpg,00957960627fa_sunavhxgmgrqsaptynb.jpg,00947960627fa.jpg,sunasmmcxdddtmtazwx.jpg,00957960627fa.jpg,sunavhxgmgrqsaptynb.jpg,,,>,Place,,,,,1,,,,,,,x
359,23,Presentation,7,00239940128fa_sunabctlikybqabezjv.jpg,00700941121fa_sunadsgmtznewzyasnk.jpg,00239940128fa.jpg,sunabctlikybqabezjv.jpg,00700941121fa.jpg,sunadsgmtznewzyasnk.jpg,,,>,Place,,,,,0,,,,,,,x
360,23,Memory,7,,,,,,,sundbixjudsgeuuehrn.jpg,,,,,,,,,,,,,,,
361,23,Memory,7,,,,,,,sunadoxcchtmsxewsau.jpg,,,,,,,,,,,,,,,
362,23,Memory,7,,,,,,,00239940128fa.jpg,,,,,,,,,,,,,,,
363,23,Memory,7,,,,,,,sunaixpqndlwhwjtjek.jpg,,,,,,,,,,,,,,,
364,23,Memory,7,,,,,,,00793941205fa.jpg,,,,,,,,,,,,,,,
365,23,Memory,7,,,,,,,00857940307fa.jpg,,,,,,,,,,,,,,,
366,23,Memory,7,,,,,,,00866940307fa.jpg,,,,,,,,,,,,,,,
367,23,Memory,7,,,,,,,00815941205fa.jpg,,,,,,,,,,,,,,,
368,23,Memory,7,,,,,,,sunaccdtpgenvcbcbcf.jpg,,,,,,,,,,,,,,,
369,23,Memory,7,,,,,,,00675941121fa.jpg,,,,,,,,,,,,,,,
370,23,Memory,7,,,,,,,00700941121fa.jpg,,,,,,,,,,,,,,,
371,23,Memory,7,,,,,,,01009960627fa.jpg,,,,,,,,,,,,,,,
372,23,Memory,7,,,,,,,sunajbwkywmsqkldfml.jpg,,,,,,,,,,,,,,,
373,23,Memory,7,,,,,,,sunagtjwilqjvxohypn.jpg,,,,,,,,,,,,,,,
374,23,Memory,7,,,,,,,00532960627fa.jpg,,,,,,,,,,,,,,,
375,23,Memory,7,,,,,,,00858940307fa.jpg,,,,,,,,,,,,,,,
376,23,Memory,7,,,,,,,sunagmhildamktmqjss.jpg,,,,,,,,,,,,,,,
377,23,Memory,7,,,,,,,00112931230fa.jpg,,,,,,,,,,,,,,,
378,23,Memory,7,,,,,,,sunaakjaacuzulqckgl.jpg,,,,,,,,,,,,,,,
379,23,Memory,7,,,,,,,00915960620fa.jpg,,,,,,,,,,,,,,,
380,23,Memory,7,,,,,,,01207940128fa.jpg,,,,,,,,,,,,,,,
381,23,Memory,7,,,,,,,00955960627fb.jpg,,,,,,,,,,,,,,,
382,23,Memory,7,,,,,,,00136931230fb.jpg,,,,,,,,,,,,,,,
383,23,Memory,7,,,,,,,sunavhxgmgrqsaptynb.jpg,,,,,,,,,,,,,,,
384,23,Memory,7,,,,,,,sunadsgmtznewzyasnk.jpg,,,,,,,,,,,,,,,
385,23,Memory,7,,,,,,,sunaffstbkappprzxnv.jpg,,,,,,,,,,,,,,,
386,23,Memory,7,,,,,,,sunbxzweleltykebgan.jpg,,,,,,,,,,,,,,,
387,23,Memory,7,,,,,,,sunaefgzwiramypjvtd.jpg,,,,,,,,,,,,,,,
388,23,Memory,7,,,,,,,00971960627fa.jpg,,,,,,,,,,,,,,,
389,23,Memory,7,,,,,,,sunaiwfobocrruqznsv.jpg,,,,,,,,,,,,,,,
390,23,Memory,7,,,,,,,sunahiphsekjihkafsl.jpg,,,,,,,,,,,,,,,
391,23,Memory,7,,,,,,,00760960620fa.jpg,,,,,,,,,,,,,,,
392,23,Memory,7,,,,,,,sunapileznnbbmrwoei.jpg,,,,,,,,,,,,,,,
393,23,Memory,7,,,,,,,sunauburywlkjszngcq.jpg,,,,,,,,,,,,,,,
394,23,Memory,7,,,,,,,00786941205fa.jpg,,,,,,,,,,,,,,,
395,23,Memory,7,,,,,,,sunbbegcweqnetpdlrh.jpg,,,,,,,,,,,,,,,
396,23,Memory,7,,,,,,,00725941201fa.jpg,,,,,,,,,,,,,,,
397,23,Memory,7,,,,,,,sunaanptmsknhirrzed.jpg,,,,,,,,,,,,,,,
398,23,Memory,7,,,,,,,00957960627fa.jpg,,,,,,,,,,,,,,,
399,23,Memory,7,,,,,,,sunabctlikybqabezjv.jpg,,,,,,,,,,,,,,,
