,Subject,Trial Type,Run,Cued Composite,Uncued Composite,Cued Face,Cued Place,Uncued Face,Uncued Place,Memory Image,Category,Cued Side,Cued Category,Attention Reaction Time (s),Familiarity Reaction Time (s),Familiarity Rating,Attention Level,Cue Validity,Post Invalid Cue,Pre Invalid Cue,Attention Button,Rating History,Stimulus Onset,Stimulus End,Attention Probe
0,jjjjj,Presentation,0,00305940422fa_sunabtrnbvpppgczjim.jpg,00877960530fa_sunajxpkuhbizeveguy.jpg,00305940422fa.jpg,sunabtrnbvpppgczjim.jpg,00877960530fa.jpg,sunajxpkuhbizeveguy.jpg,,,>,Place,,,,,0,,,,,,,o
1,jjjjj,Presentation,0,00763941205fa_sunafhmnhsdurlvddpw.jpg,00910960530fa_sunaofikylqtxphvdem.jpg,00763941205fa.jpg,sunafhmnhsdurlvddpw.jpg,00910960530fa.jpg,sunaofikylqtxphvdem.jpg,,,>,Place,,,,,1,,,,,,,x
2,jjjjj,Presentation,0,00860940307fa_sunaizeyhvjzknwjudw.jpg,00796941205fa_sunaguchqqnrtodtezq.jpg,00860940307fa.jpg,sunaizeyhvjzknwjudw.jpg,00796941205fa.jpg,sunaguchqqnrtodtezq.jpg,,,>,Place,,,,,1,,,,,,,o
3,jjjjj,Presentation,0,00811960530fa_sunahedfrhtcwpneund.jpg,00862940307fa_sunaizgnnplsvajzhkc.jpg,00811960530fa.jpg,sunahedfrhtcwpneund.jpg,00862940307fa.jpg,sunaizgnnplsvajzhkc.jpg,,,>,Place,,,,,1,,,,,,,x
4,jjjjj,Presentation,0,00162931230fb_sunaavjinpnkappuonm.jpg,00061931230fb_sunaaekxzjzrfgtkwjf.jpg,00162931230fb.jpg,sunaavjinpnkappuonm.jpg,00061931230fb.jpg,sunaaekxzjzrfgtkwjf.jpg,,,>,Place,,,,,0,,,,,,,o
5,jjjjj,Presentation,0,00768941205fa_sunafkmnlytenlsywia.jpg,00082931230fa_sunaafvitpexrpvumsa.jpg,00768941205fa.jpg,sunafkmnlytenlsywia.jpg,00082931230fa.jpg,sunaafvitpexrpvumsa.jpg,,,>,Place,,,,,1,,,,,,,o
6,jjjjj,Presentation,0,00482940519fa_sunabyfxcxhdebvdyfd.jpg,00795941205fa_sunagtumacdlmciqamz.jpg,00482940519fa.jpg,sunabyfxcxhdebvdyfd.jpg,00795941205fa.jpg,sunagtumacdlmciqamz.jpg,,,>,Place,,,,,1,,,,,,,o
7,jjjjj,Presentation,0,00115931230fa_sunaakmxzhuceuiryah.jpg,01207940128fa_sundbixjudsgeuuehrn.jpg,00115931230fa.jpg,sunaakmxzhuceuiryah.jpg,01207940128fa.jpg,sundbixjudsgeuuehrn.jpg,,,>,Place,,,,,1,,,,,,,o
8,jjjjj,Presentation,0,00793941205fa_sunagtjwilqjvxohypn.jpg,00147931230fb_sunaatpkocdkocwxpkb.jpg,00793941205fa.jpg,sunagtjwilqjvxohypn.jpg,00147931230fb.jpg,sunaatpkocdkocwxpkb.jpg,,,>,Place,,,,,1,,,,,,,o
9,jjjjj,Presentation,0,00636941031fa_sunaddtdkycxbqlpfqa.jpg,00900960530fa_sunamlotskmmsjeogby.jpg,00636941031fa.jpg,sunaddtdkycxbqlpfqa.jpg,00900960530fa.jpg,sunamlotskmmsjeogby.jpg,,,>,Place,,,,,1,,,,,,,x
10,jjjjj,Memory,0,,,,,,,00939960627fa.jpg,,,,,,,,,,,,,,,
11,jjjjj,Memory,0,,,,,,,sunamlotskmmsjeogby.jpg,,,,,,,,,,,,,,,
12,jjjjj,Memory,0,,,,,,,00763941205fa.jpg,,,,,,,,,,,,,,,
13,jjjjj,Memory,0,,,,,,,sunaczwgyukesaajxnx.jpg,,,,,,,,,,,,,,,
14,jjjjj,Memory,0,,,,,,,sunafijbgncijwykrnl.jpg,,,,,,,,,,,,,,,
15,jjjjj,Memory,0,,,,,,,sunafhmnhsdurlvddpw.jpg,,,,,,,,,,,,,,,
16,jjjjj,Memory,0,,,,,,,sunaafbmtoniaasysgu.jpg,,,,,,,,,,,,,,,
17,jjjjj,Memory,0,,,,,,,00482940519fa.jpg,,,,,,,,,,,,,,,
18,jjjjj,Memory,0,,,,,,,sundbixjudsgeuuehrn.jpg,,,,,,,,,,,,,,,
19,jjjjj,Memory,0,,,,,,,sunarceibpcyacbmfga.jpg,,,,,,,,,,,,,,,
20,jjjjj,Memory,0,,,,,,,00115931230fa.jpg,,,,,,,,,,,,,,,
21,jjjjj,Memory,0,,,,,,,00795941205fa.jpg,,,,,,,,,,,,,,,
22,jjjjj,Memory,0,,,,,,,00827940307fa.jpg,,,,,,,,,,,,,,,
23,jjjjj,Memory,0,,,,,,,sunahtfxgsrmkiulnwk.jpg,,,,,,,,,,,,,,,
24,jjjjj,Memory,0,,,,,,,00305940422fa.jpg,,,,,,,,,,,,,,,
25,jjjjj,Memory,0,,,,,,,00308940422fb.jpg,,,,,,,,,,,,,,,
26,jjjjj,Memory,0,,,,,,,00073931230fa.jpg,,,,,,,,,,,,,,,
27,jjjjj,Memory,0,,,,,,,sunaipyohrqlwngaqif.jpg,,,,,,,,,,,,,,,
28,jjjjj,Memory,0,,,,,,,00967960627fa.jpg,,,,,,,,,,,,,,,
29,jjjjj,Memory,0,,,,,,,sunbaejotfklekvpxcz.jpg,,,,,,,,,,,,,,,
30,jjjjj,Memory,0,,,,,,,sunahedfrhtcwpneund.jpg,,,,,,,,,,,,,,,
31,jjjjj,Memory,0,,,,,,,00140931230fb.jpg,,,,,,,,,,,,,,,
32,jjjjj,Memory,0,,,,,,,00766960620fa.jpg,,,,,,,,,,,,,,,
33,jjjjj,Memory,0,,,,,,,sunaakmxzhuceuiryah.jpg,,,,,,,,,,,,,,,
34,jjjjj,Memory,0,,,,,,,sunaatpkocdkocwxpkb.jpg,,,,,,,,,,,,,,,
35,jjjjj,Memory,0,,,,,,,sunagtumacdlmciqamz.jpg,,,,,,,,,,,,,,,
36,jjjjj,Memory,0,,,,,,,00302940422fa.jpg,,,,,,,,,,,,,,,
37,jjjjj,Memory,0,,,,,,,00877960530fa.jpg,,,,,,,,,,,,,,,
38,jjjjj,Memory,0,,,,,,,sunajxpkuhbizeveguy.jpg,,,,,,,,,,,,,,,
39,jjjjj,Memory,0,,,,,,,00900960530fa.jpg,,,,,,,,,,,,,,,
40,jjjjj,Memory,0,,,,,,,sunaapllqyqlykszopd.jpg,,,,,,,,,,,,,,,
41,jjjjj,Memory,0,,,,,,,00811960530fa.jpg,,,,,,,,,,,,,,,
42,jjjjj,Memory,0,,,,,,,00630940928fa.jpg,,,,,,,,,,,,,,,
43,jjjjj,Memory,0,,,,,,,01207940128fa.jpg,,,,,,,,,,,,,,,
44,jjjjj,Memory,0,,,,,,,00839940307fa.jpg,,,,,,,,,,,,,,,
45,jjjjj,Memory,0,,,,,,,sunabyfxcxhdebvdyfd.jpg,,,,,,,,,,,,,,,
46,jjjjj,Memory,0,,,,,,,00147931230fb.jpg,,,,,,,,,,,,,,,
47,jjjjj,Memory,0,,,,,,,sunabtrnbvpppgczjim.jpg,,,,,,,,,,,,,,,
48,jjjjj,Memory,0,,,,,,,sunabwfvcqqidycwypa.jpg,,,,,,,,,,,,,,,
49,jjjjj,Memory,0,,,,,,,sunabtlfmiwtljmoues.jpg,,,,,,,,,,,,,,,
50,jjjjj,Presentation,1,00800941205fb_sunagvjurcwdbixvnyi.jpg,00770941201fa_sunaflojskatpeqyzqp.jpg,00800941205fb.jpg,sunagvjurcwdbixvnyi.jpg,00770941201fa.jpg,sunaflojskatpeqyzqp.jpg,,,<,Face,,,,,1,,,,,,,o
51,jjjjj,Presentation,1,00812941205fa_sunahgtbwgsmtqeodwh.jpg,00630941031fa_sunadakkdovnuzlycvp.jpg,00812941205fa.jpg,sunahgtbwgsmtqeodwh.jpg,00630941031fa.jpg,sunadakkdovnuzlycvp.jpg,,,<,Face,,,,,1,,,,,,,x
52,jjjjj,Presentation,1,00700941121fa_sunadsgmtznewzyasnk.jpg,00794960620fa_sunagtqhhwxjeuxdebe.jpg,00700941121fa.jpg,sunadsgmtznewzyasnk.jpg,00794960620fa.jpg,sunagtqhhwxjeuxdebe.jpg,,,<,Face,,,,,1,,,,,,,o
53,jjjjj,Presentation,1,00705960530fa_sunaduslxfzlbxlllnz.jpg,00562941031fa_sunacjnahdmqfnjfwqx.jpg,00705960530fa.jpg,sunaduslxfzlbxlllnz.jpg,00562941031fa.jpg,sunacjnahdmqfnjfwqx.jpg,,,<,Face,,,,,1,,,,,,,o
54,jjjjj,Presentation,1,00743941201fa_sunaeoghzrjarigmwua.jpg,00676941121fa_sunadpnqovzckyikrjo.jpg,00743941201fa.jpg,sunaeoghzrjarigmwua.jpg,00676941121fa.jpg,sunadpnqovzckyikrjo.jpg,,,<,Face,,,,,0,,,,,,,x
55,jjjjj,Presentation,1,00803941205fa_sunagvxkjokqimstxpe.jpg,00901960530fa_sunammbnoambmhdxdwd.jpg,00803941205fa.jpg,sunagvxkjokqimstxpe.jpg,00901960530fa.jpg,sunammbnoambmhdxdwd.jpg,,,<,Face,,,,,1,,,,,,,o
56,jjjjj,Presentation,1,00774941201fa_sunafvtpfczkzopbgue.jpg,00958960627fa_sunavspxmxubqaeidjt.jpg,00774941201fa.jpg,sunafvtpfczkzopbgue.jpg,00958960627fa.jpg,sunavspxmxubqaeidjt.jpg,,,<,Face,,,,,1,,,,,,,x
57,jjjjj,Presentation,1,00870940307fa_sunajrgtewnualfcerj.jpg,00809960620fa_sunahbvlpavurqoxdeq.jpg,00870940307fa.jpg,sunajrgtewnualfcerj.jpg,00809960620fa.jpg,sunahbvlpavurqoxdeq.jpg,,,<,Face,,,,,1,,,,,,,x
58,jjjjj,Presentation,1,00097931230fa_sunaajayojuslbbnneg.jpg,00880960530fa_sunakmnfgklupjijsgf.jpg,00097931230fa.jpg,sunaajayojuslbbnneg.jpg,00880960530fa.jpg,sunakmnfgklupjijsgf.jpg,,,<,Face,,,,,1,,,,,,,x
59,jjjjj,Presentation,1,00276940422fa_sunabmytpyhsgigllxu.jpg,00081941031fa_sunaaftlyfudyzuhqzf.jpg,00276940422fa.jpg,sunabmytpyhsgigllxu.jpg,00081941031fa.jpg,sunaaftlyfudyzuhqzf.jpg,,,<,Face,,,,,1,,,,,,,o
60,jjjjj,Memory,1,,,,,,,00949960627fb.jpg,,,,,,,,,,,,,,,
61,jjjjj,Memory,1,,,,,,,00794960620fa.jpg,,,,,,,,,,,,,,,
62,jjjjj,Memory,1,,,,,,,sunadsgmtznewzyasnk.jpg,,,,,,,,,,,,,,,
63,jjjjj,Memory,1,,,,,,,sunakmnfgklupjijsgf.jpg,,,,,,,,,,,,,,,
64,jjjjj,Memory,1,,,,,,,sunafgzgbisbopcyslr.jpg,,,,,,,,,,,,,,,
65,jjjjj,Memory,1,,,,,,,00800941205fb.jpg,,,,,,,,,,,,,,,
66,jjjjj,Memory,1,,,,,,,00719960620fa.jpg,,,,,,,,,,,,,,,
67,jjjjj,Memory,1,,,,,,,00880960530fa.jpg,,,,,,,,,,,,,,,
68,jjjjj,Memory,1,,,,,,,sunaaftlyfudyzuhqzf.jpg,,,,,,,,,,,,,,,
69,jjjjj,Memory,1,,,,,,,sunadpnqovzckyikrjo.jpg,,,,,,,,,,,,,,,
70,jjjjj,Memory,1,,,,,,,sunagtqhhwxjeuxdebe.jpg,,,,,,,,,,,,,,,
71,jjjjj,Memory,1,,,,,,,00235940128fb.jpg,,,,,,,,,,,,,,,
72,jjjjj,Memory,1,,,,,,,sunaeoghzrjarigmwua.jpg,,,,,,,,,,,,,,,
73,jjjjj,Memory,1,,,,,,,00125931230fa.jpg,,,,,,,,,,,,,,,
74,jjjjj,Memory,1,,,,,,,00725941201fa.jpg,,,,,,,,,,,,,,,
75,jjjjj,Memory,1,,,,,,,00958960627fa.jpg,,,,,,,,,,,,,,,
76,jjjjj,Memory,1,,,,,,,sunbesrwkdsffeogeqq.jpg,,,,,,,,,,,,,,,
77,jjjjj,Memory,1,,,,,,,00705960530fa.jpg,,,,,,,,,,,,,,,
78,jjjjj,Memory,1,,,,,,,00762941201fa.jpg,,,,,,,,,,,,,,,
79,jjjjj,Memory,1,,,,,,,sunavspxmxubqaeidjt.jpg,,,,,,,,,,,,,,,
80,jjjjj,Memory,1,,,,,,,sunaeisnjeetzmkbuad.jpg,,,,,,,,,,,,,,,
81,jjjjj,Memory,1,,,,,,,00676941121fa.jpg,,,,,,,,,,,,,,,
82,jjjjj,Memory,1,,,,,,,00743941201fa.jpg,,,,,,,,,,,,,,,
83,jjjjj,Memory,1,,,,,,,00935960627fa.jpg,,,,,,,,,,,,,,,
84,jjjjj,Memory,1,,,,,,,sunaqbmgkgqucajzrkp.jpg,,,,,,,,,,,,,,,
85,jjjjj,Memory,1,,,,,,,sunasnqkkyhilqkxiqm.jpg,,,,,,,,,,,,,,,
86,jjjjj,Memory,1,,,,,,,sunaefgzwiramypjvtd.jpg,,,,,,,,,,,,,,,
87,jjjjj,Memory,1,,,,,,,00803941205fa.jpg,,,,,,,,,,,,,,,
88,jjjjj,Memory,1,,,,,,,00081941031fa.jpg,,,,,,,,,,,,,,,
89,jjjjj,Memory,1,,,,,,,sunadzuvtmtmgupotmf.jpg,,,,,,,,,,,,,,,
90,jjjjj,Memory,1,,,,,,,sunaknlirqjqiwbbeeg.jpg,,,,,,,,,,,,,,,
91,jjjjj,Memory,1,,,,,,,sunagvjurcwdbixvnyi.jpg,,,,,,,,,,,,,,,
92,jjjjj,Memory,1,,,,,,,sunagvxkjokqimstxpe.jpg,,,,,,,,,,,,,,,
93,jjjjj,Memory,1,,,,,,,00882960530fa.jpg,,,,,,,,,,,,,,,
94,jjjjj,Memory,1,,,,,,,00700941121fa.jpg,,,,,,,,,,,,,,,
95,jjjjj,Memory,1,,,,,,,sunabclssnoeuigtawp.jpg,,,,,,,,,,,,,,,
96,jjjjj,Memory,1,,,,,,,sunaduslxfzlbxlllnz.jpg,,,,,,,,,,,,,,,
97,jjjjj,Memory,1,,,,,,,00727941205fa.jpg,,,,,,,,,,,,,,,
98,jjjjj,Memory,1,,,,,,,sunaalltyvjhbzhkmvg.jpg,,,,,,,,,,,,,,,
99,jjjjj,Memory,1,,,,,,,00982960627fa.jpg,,,,,,,,,,,,,,,
100,jjjjj,Presentation,2,00070940307fa_sunaaeplwsfslcbtojr.jpg,00838940307fa_sunaiozxhxgtfrmoagh.jpg,00070940307fa.jpg,sunaaeplwsfslcbtojr.jpg,00838940307fa.jpg,sunaiozxhxgtfrmoagh.jpg,,,<,Place,,,,,1,,,,,,,x
101,jjjjj,Presentation,2,00871940307_sunajrujcsdxmfbssmc.jpg,00144931230fb_sunaathajvxrgptwhoj.jpg,00871940307.jpg,sunajrujcsdxmfbssmc.jpg,00144931230fb.jpg,sunaathajvxrgptwhoj.jpg,,,<,Place,,,,,1,,,,,,,o
102,jjjjj,Presentation,2,00093931230fa_sunaahwnmtqsrhocysw.jpg,00557940519fa_sunachtuarilwyqnvjx.jpg,00093931230fa.jpg,sunaahwnmtqsrhocysw.jpg,00557940519fa.jpg,sunachtuarilwyqnvjx.jpg,,,<,Place,,,,,1,,,,,,,x
103,jjjjj,Presentation,2,00149931230fa_sunaauglwmctnkxyird.jpg,00778941205fa_sunagcthdfirrcawoic.jpg,00149931230fa.jpg,sunaauglwmctnkxyird.jpg,00778941205fa.jpg,sunagcthdfirrcawoic.jpg,,,<,Place,,,,,1,,,,,,,o
104,jjjjj,Presentation,2,00498960627fa_sunabzjxlmkwnwzimua.jpg,00785941205fa_sunaglqunwuycxydmyu.jpg,00498960627fa.jpg,sunabzjxlmkwnwzimua.jpg,00785941205fa.jpg,sunaglqunwuycxydmyu.jpg,,,<,Place,,,,,1,,,,,,,x
105,jjjjj,Presentation,2,00662941121fa_sunadkazmlajmohnwfl.jpg,00972960627fa_sunbbfqwjpdxniyhies.jpg,00662941121fa.jpg,sunadkazmlajmohnwfl.jpg,00972960627fa.jpg,sunbbfqwjpdxniyhies.jpg,,,<,Place,,,,,1,,,,,,,x
106,jjjjj,Presentation,2,00978960627fa_sunbddbivbptlrlauhy.jpg,00193940928fa_sunaaxjpzcnxligjtjq.jpg,00978960627fa.jpg,sunbddbivbptlrlauhy.jpg,00193940928fa.jpg,sunaaxjpzcnxligjtjq.jpg,,,<,Place,,,,,1,,,,,,,o
107,jjjjj,Presentation,2,00752960620fa_sunafbwnojpqeyzssoe.jpg,00581940928fa_sunacvzhvcksnwqcqbw.jpg,00752960620fa.jpg,sunafbwnojpqeyzssoe.jpg,00581940928fa.jpg,sunacvzhvcksnwqcqbw.jpg,,,<,Place,,,,,1,,,,,,,x
108,jjjjj,Presentation,2,00921960627fa_sunapqkpqdfvxlbqwyo.jpg,00208940128fa_sunaazzyhbvqjpmazjq.jpg,00921960627fa.jpg,sunapqkpqdfvxlbqwyo.jpg,00208940128fa.jpg,sunaazzyhbvqjpmazjq.jpg,,,<,Place,,,,,1,,,,,,,x
109,jjjjj,Presentation,2,00915960620fa_sunapileznnbbmrwoei.jpg,00971960627fa_sunbbegcweqnetpdlrh.jpg,00915960620fa.jpg,sunapileznnbbmrwoei.jpg,00971960627fa.jpg,sunbbegcweqnetpdlrh.jpg,,,<,Place,,,,,1,,,,,,,o
110,jjjjj,Memory,2,,,,,,,00970960627fa.jpg,,,,,,,,,,,,,,,
111,jjjjj,Memory,2,,,,,,,00076931230fa.jpg,,,,,,,,,,,,,,,
112,jjjjj,Memory,2,,,,,,,sunajrujcsdxmfbssmc.jpg,,,,,,,,,,,,,,,
113,jjjjj,Memory,2,,,,,,,00871940307.jpg,,,,,,,,,,,,,,,
114,jjjjj,Memory,2,,,,,,,sunbwdrdvsweerwsdrj.jpg,,,,,,,,,,,,,,,
115,jjjjj,Memory,2,,,,,,,00208940128fa.jpg,,,,,,,,,,,,,,,
116,jjjjj,Memory,2,,,,,,,sunbasypfgzjtomktmu.jpg,,,,,,,,,,,,,,,
117,jjjjj,Memory,2,,,,,,,00906960530fa.jpg,,,,,,,,,,,,,,,
118,jjjjj,Memory,2,,,,,,,00858940307fa.jpg,,,,,,,,,,,,,,,
119,jjjjj,Memory,2,,,,,,,sunapqkpqdfvxlbqwyo.jpg,,,,,,,,,,,,,,,
120,jjjjj,Memory,2,,,,,,,00752960620fa.jpg,,,,,,,,,,,,,,,
121,jjjjj,Memory,2,,,,,,,00838940307fa.jpg,,,,,,,,,,,,,,,
122,jjjjj,Memory,2,,,,,,,00144931230fb.jpg,,,,,,,,,,,,,,,
123,jjjjj,Memory,2,,,,,,,sunaazzyhbvqjpmazjq.jpg,,,,,,,,,,,,,,,
124,jjjjj,Memory,2,,,,,,,sunafbwnojpqeyzssoe.jpg,,,,,,,,,,,,,,,
125,jjjjj,Memory,2,,,,,,,01003960627fb.jpg,,,,,,,,,,,,,,,
126,jjjjj,Memory,2,,,,,,,sunaaeplwsfslcbtojr.jpg,,,,,,,,,,,,,,,
127,jjjjj,Memory,2,,,,,,,00971960627fa.jpg,,,,,,,,,,,,,,,
128,jjjjj,Memory,2,,,,,,,00815941205fa.jpg,,,,,,,,,,,,,,,
129,jjjjj,Memory,2,,,,,,,sunbbegcweqnetpdlrh.jpg,,,,,,,,,,,,,,,
130,jjjjj,Memory,2,,,,,,,sunaixpqndlwhwjtjek.jpg,,,,,,,,,,,,,,,
131,jjjjj,Memory,2,,,,,,,00988960627fa.jpg,,,,,,,,,,,,,,,
132,jjjjj,Memory,2,,,,,,,sunantryfbloeaomfta.jpg,,,,,,,,,,,,,,,
133,jjjjj,Memory,2,,,,,,,00119931230fb.jpg,,,,,,,,,,,,,,,
134,jjjjj,Memory,2,,,,,,,sunbddbivbptlrlauhy.jpg,,,,,,,,,,,,,,,
135,jjjjj,Memory,2,,,,,,,sunaozisvwfbmlkfhzv.jpg,,,,,,,,,,,,,,,
136,jjjjj,Memory,2,,,,,,,sunaathajvxrgptwhoj.jpg,,,,,,,,,,,,,,,
137,jjjjj,Memory,2,,,,,,,sunaiozxhxgtfrmoagh.jpg,,,,,,,,,,,,,,,
138,jjjjj,Memory,2,,,,,,,sunaaxjpzcnxligjtjq.jpg,,,,,,,,,,,,,,,
139,jjjjj,Memory,2,,,,,,,sunaafewhewbxmjiurz.jpg,,,,,,,,,,,,,,,
140,jjjjj,Memory,2,,,,,,,00978960627fa.jpg,,,,,,,,,,,,,,,
141,jjjjj,Memory,2,,,,,,,00921960627fa.jpg,,,,,,,,,,,,,,,
142,jjjjj,Memory,2,,,,,,,00070940307fa.jpg,,,,,,,,,,,,,,,
143,jjjjj,Memory,2,,,,,,,00931960627fa.jpg,,,,,,,,,,,,,,,
144,jjjjj,Memory,2,,,,,,,sunaakvmbftkrgqhjun.jpg,,,,,,,,,,,,,,,
145,jjjjj,Memory,2,,,,,,,00193940928fa.jpg,,,,,,,,,,,,,,,
146,jjjjj,Memory,2,,,,,,,sunahiphsekjihkafsl.jpg,,,,,,,,,,,,,,,
147,jjjjj,Memory,2,,,,,,,sunaptrqvaooxfvktvw.jpg,,,,,,,,,,,,,,,
148,jjjjj,Memory,2,,,,,,,sunbmaiocftdtvnzgap.jpg,,,,,,,,,,,,,,,
149,jjjjj,Memory,2,,,,,,,00914960620fa.jpg,,,,,,,,,,,,,,,
150,jjjjj,Presentation,3,00847940307fa_sunaivdjruhkrfywfed.jpg,00777941205fa_sunagcinxkccdtrjmlv.jpg,00847940307fa.jpg,sunaivdjruhkrfywfed.jpg,00777941205fa.jpg,sunagcinxkccdtrjmlv.jpg,,,<,Face,,,,,1,,,,,,,x
151,jjjjj,Presentation,3,00834940307fa_sunaibnpvhkdpdnzcnz.jpg,00197940128fa_sunaaylzyqlqrsmfwif.jpg,00834940307fa.jpg,sunaibnpvhkdpdnzcnz.jpg,00197940128fa.jpg,sunaaylzyqlqrsmfwif.jpg,,,<,Face,,,,,1,,,,,,,x
152,jjjjj,Presentation,3,00776941205fa_sunafxokyavhgptyfye.jpg,00947960627fa_sunasmmcxdddtmtazwx.jpg,00776941205fa.jpg,sunafxokyavhgptyfye.jpg,00947960627fa.jpg,sunasmmcxdddtmtazwx.jpg,,,<,Face,,,,,1,,,,,,,x
153,jjjjj,Presentation,3,00983960627fa_sunbfyvfqiimvdaxlqn.jpg,00965960627fa_sunaydywdmvlfddbxbk.jpg,00983960627fa.jpg,sunbfyvfqiimvdaxlqn.jpg,00965960627fa.jpg,sunaydywdmvlfddbxbk.jpg,,,<,Face,,,,,1,,,,,,,x
154,jjjjj,Presentation,3,00532960627fa_sunaccdtpgenvcbcbcf.jpg,00996960627fa_sunbpvgllfdejxcpjqp.jpg,00532960627fa.jpg,sunaccdtpgenvcbcbcf.jpg,00996960627fa.jpg,sunbpvgllfdejxcpjqp.jpg,,,<,Face,,,,,1,,,,,,,o
155,jjjjj,Presentation,3,00728941205fa_sunaejnvnpltdmhbcsi.jpg,00209940128fb_sunabaergayifsgacxt.jpg,00728941205fa.jpg,sunaejnvnpltdmhbcsi.jpg,00209940128fb.jpg,sunabaergayifsgacxt.jpg,,,<,Face,,,,,1,,,,,,,x
156,jjjjj,Presentation,3,00893960530Fa_sunaloffvbvysigxent.jpg,00158931230fb_sunaavchcbptaerhcfy.jpg,00893960530Fa.jpg,sunaloffvbvysigxent.jpg,00158931230fb.jpg,sunaavchcbptaerhcfy.jpg,,,<,Face,,,,,1,,,,,,,o
157,jjjjj,Presentation,3,00138931230fa_sunaapfaivxqoynnwwp.jpg,00126931230fb_sunaamdjwemxpmmtypi.jpg,00138931230fa.jpg,sunaapfaivxqoynnwwp.jpg,00126931230fb.jpg,sunaamdjwemxpmmtypi.jpg,,,<,Face,,,,,1,,,,,,,x
158,jjjjj,Presentation,3,00892960530fa_sunalntxqqadigcletd.jpg,00080931230fb_sunaafjszryxyavjzln.jpg,00892960530fa.jpg,sunalntxqqadigcletd.jpg,00080931230fb.jpg,sunaafjszryxyavjzln.jpg,,,<,Face,,,,,1,,,,,,,o
159,jjjjj,Presentation,3,00062931230fb_sunaaelotvjgibjtjhs.jpg,00564940928fa_sunacmpqqfbsvlzinzl.jpg,00062931230fb.jpg,sunaaelotvjgibjtjhs.jpg,00564940928fa.jpg,sunacmpqqfbsvlzinzl.jpg,,,<,Face,,,,,1,,,,,,,x
160,jjjjj,Memory,3,,,,,,,sunagjzcrjvmxzqzljx.jpg,,,,,,,,,,,,,,,
161,jjjjj,Memory,3,,,,,,,00564940928fa.jpg,,,,,,,,,,,,,,,
162,jjjjj,Memory,3,,,,,,,sunabyvpwkgsjtijdwj.jpg,,,,,,,,,,,,,,,
163,jjjjj,Memory,3,,,,,,,00096931230fa.jpg,,,,,,,,,,,,,,,
164,jjjjj,Memory,3,,,,,,,sunbxzweleltykebgan.jpg,,,,,,,,,,,,,,,
165,jjjjj,Memory,3,,,,,,,sunakgbnzxmfohgehnu.jpg,,,,,,,,,,,,,,,
166,jjjjj,Memory,3,,,,,,,sunaakqepfoeqomfgxf.jpg,,,,,,,,,,,,,,,
167,jjjjj,Memory,3,,,,,,,00116931230fa.jpg,,,,,,,,,,,,,,,
168,jjjjj,Memory,3,,,,,,,00878960530fa.jpg,,,,,,,,,,,,,,,
169,jjjjj,Memory,3,,,,,,,sunaajpqmulidejvjsr.jpg,,,,,,,,,,,,,,,
170,jjjjj,Memory,3,,,,,,,00197940128fa.jpg,,,,,,,,,,,,,,,
171,jjjjj,Memory,3,,,,,,,suncnkvbhypnivcohyx.jpg,,,,,,,,,,,,,,,
172,jjjjj,Memory,3,,,,,,,00947960627fa.jpg,,,,,,,,,,,,,,,
173,jjjjj,Memory,3,,,,,,,sunaatjesvdupctftmn.jpg,,,,,,,,,,,,,,,
174,jjjjj,Memory,3,,,,,,,00776941205fa.jpg,,,,,,,,,,,,,,,
175,jjjjj,Memory,3,,,,,,,sunabaergayifsgacxt.jpg,,,,,,,,,,,,,,,
176,jjjjj,Memory,3,,,,,,,00532960627fa.jpg,,,,,,,,,,,,,,,
177,jjjjj,Memory,3,,,,,,,00098931230fa.jpg,,,,,,,,,,,,,,,
178,jjjjj,Memory,3,,,,,,,sunaaelotvjgibjtjhs.jpg,,,,,,,,,,,,,,,
179,jjjjj,Memory,3,,,,,,,00804960530fa.jpg,,,,,,,,,,,,,,,
180,jjjjj,Memory,3,,,,,,,00158931230fb.jpg,,,,,,,,,,,,,,,
181,jjjjj,Memory,3,,,,,,,sunagwswhkvnsmuszlz.jpg,,,,,,,,,,,,,,,
182,jjjjj,Memory,3,,,,,,,sunacmpqqfbsvlzinzl.jpg,,,,,,,,,,,,,,,
183,jjjjj,Memory,3,,,,,,,01010960627fa.jpg,,,,,,,,,,,,,,,
184,jjjjj,Memory,3,,,,,,,sunaaiqiqcggrskoqgy.jpg,,,,,,,,,,,,,,,
185,jjjjj,Memory,3,,,,,,,sunalntxqqadigcletd.jpg,,,,,,,,,,,,,,,
186,jjjjj,Memory,3,,,,,,,00892960530fa.jpg,,,,,,,,,,,,,,,
187,jjjjj,Memory,3,,,,,,,sunaavchcbptaerhcfy.jpg,,,,,,,,,,,,,,,
188,jjjjj,Memory,3,,,,,,,00209940128fb.jpg,,,,,,,,,,,,,,,
189,jjjjj,Memory,3,,,,,,,00145931230fb.jpg,,,,,,,,,,,,,,,
190,jjjjj,Memory,3,,,,,,,sunasmmcxdddtmtazwx.jpg,,,,,,,,,,,,,,,
191,jjjjj,Memory,3,,,,,,,sunaaylzyqlqrsmfwif.jpg,,,,,,,,,,,,,,,
192,jjjjj,Memory,3,,,,,,,00893960530Fa.jpg,,,,,,,,,,,,,,,
193,jjjjj,Memory,3,,,,,,,sunafxokyavhgptyfye.jpg,,,,,,,,,,,,,,,
194,jjjjj,Memory,3,,,,,,,00062931230fb.jpg,,,,,,,,,,,,,,,
195,jjjjj,Memory,3,,,,,,,01009960627fa.jpg,,,,,,,,,,,,,,,
196,jjjjj,Memory,3,,,,,,,00483940519fa.jpg,,,,,,,,,,,,,,,
197,jjjjj,Memory,3,,,,,,,sunaccdtpgenvcbcbcf.jpg,,,,,,,,,,,,,,,
198,jjjjj,Memory,3,,,,,,,sunaloffvbvysigxent.jpg,,,,,,,,,,,,,,,
199,jjjjj,Memory,3,,,,,,,00784941205fb.jpg,,,,,,,,,,,,,,,
200,jjjjj,Presentation,4,00885960530fa_sunakwlvxjpddialozd.jpg,00576941031fa_sunacvjlsylseoghjup.jpg,00885960530fa.jpg,sunakwlvxjpddialozd.jpg,00576941031fa.jpg,sunacvjlsylseoghjup.jpg,,,<,Place,,,,,1,,,,,,,o
201,jjjjj,Presentation,4,00262940128fa_sunabizydfotqddlnjp.jpg,00902960530fa_sunanaacmmosxrfwmvl.jpg,00262940128fa.jpg,sunabizydfotqddlnjp.jpg,00902960530fa.jpg,sunanaacmmosxrfwmvl.jpg,,,<,Place,,,,,1,,,,,,,o
202,jjjjj,Presentation,4,00267940128fb_sunablfqiwfqomjarht.jpg,00749941201fa_sunaeuvjbmdpknaqqaj.jpg,00267940128fb.jpg,sunablfqiwfqomjarht.jpg,00749941201fa.jpg,sunaeuvjbmdpknaqqaj.jpg,,,<,Place,,,,,0,,,,,,,o
203,jjjjj,Presentation,4,00663941121fa_sunadnjjzohjhbohlwq.jpg,00077931230fb_sunaafgqutfaishsxyu.jpg,00663941121fa.jpg,sunadnjjzohjhbohlwq.jpg,00077931230fb.jpg,sunaafgqutfaishsxyu.jpg,,,<,Place,,,,,1,,,,,,,o
204,jjjjj,Presentation,4,00884960530fa_sunakodkcslgqhqlgwl.jpg,00263940128fb_sunabjuovqvyfuzvqwt.jpg,00884960530fa.jpg,sunakodkcslgqhqlgwl.jpg,00263940128fb.jpg,sunabjuovqvyfuzvqwt.jpg,,,<,Place,,,,,1,,,,,,,x
205,jjjjj,Presentation,4,00559940519fa_sunacjkmnpawfzbyvae.jpg,00227940128fa_sunabckqabszusgcykj.jpg,00559940519fa.jpg,sunacjkmnpawfzbyvae.jpg,00227940128fa.jpg,sunabckqabszusgcykj.jpg,,,<,Place,,,,,1,,,,,,,o
206,jjjjj,Presentation,4,00786941205fa_sunagmhildamktmqjss.jpg,00866940307fa_sunajbwkywmsqkldfml.jpg,00786941205fa.jpg,sunagmhildamktmqjss.jpg,00866940307fa.jpg,sunajbwkywmsqkldfml.jpg,,,<,Place,,,,,1,,,,,,,x
207,jjjjj,Presentation,4,00730960620fa_sunaekgzpfilgjxpeyq.jpg,00876960620fa_sunajwqkfsykceonyig.jpg,00730960620fa.jpg,sunaekgzpfilgjxpeyq.jpg,00876960620fa.jpg,sunajwqkfsykceonyig.jpg,,,<,Place,,,,,1,,,,,,,o
208,jjjjj,Presentation,4,00063931230fa_sunaaelyvurpntclgau.jpg,00887960530_sunalcrtwiycqobgelp.jpg,00063931230fa.jpg,sunaaelyvurpntclgau.jpg,00887960530.jpg,sunalcrtwiycqobgelp.jpg,,,<,Place,,,,,1,,,,,,,x
209,jjjjj,Presentation,4,00966960627fa_sunaygrtwrwfezqjizr.jpg,00136931230fb_sunaanptmsknhirrzed.jpg,00966960627fa.jpg,sunaygrtwrwfezqjizr.jpg,00136931230fb.jpg,sunaanptmsknhirrzed.jpg,,,<,Place,,,,,0,,,,,,,o
210,jjjjj,Memory,4,,,,,,,sunaapxkpvrhpjplsok.jpg,,,,,,,,,,,,,,,
211,jjjjj,Memory,4,,,,,,,00163931230fb.jpg,,,,,,,,,,,,,,,
212,jjjjj,Memory,4,,,,,,,sunaavodbcpygkggnfp.jpg,,,,,,,,,,,,,,,
213,jjjjj,Memory,4,,,,,,,00902960530fa.jpg,,,,,,,,,,,,,,,
214,jjjjj,Memory,4,,,,,,,00267940128fb.jpg,,,,,,,,,,,,,,,
215,jjjjj,Memory,4,,,,,,,sunaayehfdqcyxggsej.jpg,,,,,,,,,,,,,,,
216,jjjjj,Memory,4,,,,,,,sunaobtizabegtwfwul.jpg,,,,,,,,,,,,,,,
217,jjjjj,Memory,4,,,,,,,sunaekgzpfilgjxpeyq.jpg,,,,,,,,,,,,,,,
218,jjjjj,Memory,4,,,,,,,00887960530.jpg,,,,,,,,,,,,,,,
219,jjjjj,Memory,4,,,,,,,sunakodkcslgqhqlgwl.jpg,,,,,,,,,,,,,,,
220,jjjjj,Memory,4,,,,,,,sunabjuovqvyfuzvqwt.jpg,,,,,,,,,,,,,,,
221,jjjjj,Memory,4,,,,,,,sunagountlxpzkytsmp.jpg,,,,,,,,,,,,,,,
222,jjjjj,Memory,4,,,,,,,sunacycdoztxoluxjyk.jpg,,,,,,,,,,,,,,,
223,jjjjj,Memory,4,,,,,,,00884960530fa.jpg,,,,,,,,,,,,,,,
224,jjjjj,Memory,4,,,,,,,00942960627fa.jpg,,,,,,,,,,,,,,,
225,jjjjj,Memory,4,,,,,,,00663941121fa.jpg,,,,,,,,,,,,,,,
226,jjjjj,Memory,4,,,,,,,sunadnjjzohjhbohlwq.jpg,,,,,,,,,,,,,,,
227,jjjjj,Memory,4,,,,,,,sunaeuvjbmdpknaqqaj.jpg,,,,,,,,,,,,,,,
228,jjjjj,Memory,4,,,,,,,00730960620fa.jpg,,,,,,,,,,,,,,,
229,jjjjj,Memory,4,,,,,,,00194940128fb.jpg,,,,,,,,,,,,,,,
230,jjjjj,Memory,4,,,,,,,00786941205fa.jpg,,,,,,,,,,,,,,,
231,jjjjj,Memory,4,,,,,,,00909960530.jpg,,,,,,,,,,,,,,,
232,jjjjj,Memory,4,,,,,,,00999960627fa.jpg,,,,,,,,,,,,,,,
233,jjjjj,Memory,4,,,,,,,00749941201fa.jpg,,,,,,,,,,,,,,,
234,jjjjj,Memory,4,,,,,,,sunarfdklgdnjgeqfjg.jpg,,,,,,,,,,,,,,,
235,jjjjj,Memory,4,,,,,,,sunamczizlzavhzhpay.jpg,,,,,,,,,,,,,,,
236,jjjjj,Memory,4,,,,,,,00788941205fa.jpg,,,,,,,,,,,,,,,
237,jjjjj,Memory,4,,,,,,,sunaqyylsngywqzwfmx.jpg,,,,,,,,,,,,,,,
238,jjjjj,Memory,4,,,,,,,sunbvbrvgbpanfrawft.jpg,,,,,,,,,,,,,,,
239,jjjjj,Memory,4,,,,,,,00895960530fa.jpg,,,,,,,,,,,,,,,
240,jjjjj,Memory,4,,,,,,,sunagmhildamktmqjss.jpg,,,,,,,,,,,,,,,
241,jjjjj,Memory,4,,,,,,,00142931230fb.jpg,,,,,,,,,,,,,,,
242,jjjjj,Memory,4,,,,,,,00938960627fa.jpg,,,,,,,,,,,,,,,
243,jjjjj,Memory,4,,,,,,,sunablfqiwfqomjarht.jpg,,,,,,,,,,,,,,,
244,jjjjj,Memory,4,,,,,,,sunanaacmmosxrfwmvl.jpg,,,,,,,,,,,,,,,
245,jjjjj,Memory,4,,,,,,,00609940928fa.jpg,,,,,,,,,,,,,,,
246,jjjjj,Memory,4,,,,,,,00263940128fb.jpg,,,,,,,,,,,,,,,
247,jjjjj,Memory,4,,,,,,,sunalcrtwiycqobgelp.jpg,,,,,,,,,,,,,,,
248,jjjjj,Memory,4,,,,,,,sunacvjlsylseoghjup.jpg,,,,,,,,,,,,,,,
249,jjjjj,Memory,4,,,,,,,00576941031fa.jpg,,,,,,,,,,,,,,,
250,jjjjj,Presentation,5,00869940307fa_sunajoveqhiprwqgoco.jpg,00835940307fa_sunaijsqpvodplbwxkf.jpg,00869940307fa.jpg,sunajoveqhiprwqgoco.jpg,00835940307fa.jpg,sunaijsqpvodplbwxkf.jpg,,,>,Face,,,,,1,,,,,,,o
251,jjjjj,Presentation,5,00985960627fa_sunbgklxeqjhdbyfhhy.jpg,00792941205fa_sunagsiwrmuixqgdimb.jpg,00985960627fa.jpg,sunbgklxeqjhdbyfhhy.jpg,00792941205fa.jpg,sunagsiwrmuixqgdimb.jpg,,,>,Face,,,,,1,,,,,,,x
252,jjjjj,Presentation,5,00984960627fa_sunbfzchmomnvzhbxdg.jpg,00479940519fa_sunabxsbfwjccqxxzxq.jpg,00984960627fa.jpg,sunbfzchmomnvzhbxdg.jpg,00479940519fa.jpg,sunabxsbfwjccqxxzxq.jpg,,,>,Face,,,,,1,,,,,,,x
253,jjjjj,Presentation,5,00127931230fa_sunaampvucecsfbdafn.jpg,00937960627fa_sunaqsolmfydodnakub.jpg,00127931230fa.jpg,sunaampvucecsfbdafn.jpg,00937960627fa.jpg,sunaqsolmfydodnakub.jpg,,,>,Face,,,,,0,,,,,,,x
254,jjjjj,Presentation,5,00745941205fa_sunaeouogqolxvggaoq.jpg,00245940128fa_sunabeyhmxodahoieyk.jpg,00745941205fa.jpg,sunaeouogqolxvggaoq.jpg,00245940128fa.jpg,sunabeyhmxodahoieyk.jpg,,,>,Face,,,,,1,,,,,,,x
255,jjjjj,Presentation,5,00791941205fa_sunagrmyoovzukhxmlo.jpg,00154931230fa_sunaauueuhhvklldjik.jpg,00791941205fa.jpg,sunagrmyoovzukhxmlo.jpg,00154931230fa.jpg,sunaauueuhhvklldjik.jpg,,,>,Face,,,,,1,,,,,,,o
256,jjjjj,Presentation,5,00979960627fa_sunbdycacjfaujxitbw.jpg,00221940128fa_sunabcfpwlpolnutyju.jpg,00979960627fa.jpg,sunbdycacjfaujxitbw.jpg,00221940128fa.jpg,sunabcfpwlpolnutyju.jpg,,,>,Face,,,,,0,,,,,,,x
257,jjjjj,Presentation,5,00102931230fa_sunaajspcoepticvplv.jpg,00960960627fa_sunawksfbacycuhbrsc.jpg,00102931230fa.jpg,sunaajspcoepticvplv.jpg,00960960627fa.jpg,sunawksfbacycuhbrsc.jpg,,,>,Face,,,,,1,,,,,,,o
258,jjjjj,Presentation,5,00620940928fa_sunacypmnujalygkunp.jpg,00670941121fa_sunadochqcucscehsgk.jpg,00620940928fa.jpg,sunacypmnujalygkunp.jpg,00670941121fa.jpg,sunadochqcucscehsgk.jpg,,,>,Face,,,,,1,,,,,,,x
259,jjjjj,Presentation,5,00929960627fa_sunaprnrbmgkomdbchr.jpg,00977960627fa_sunbbxkanhzjgbwyxqs.jpg,00929960627fa.jpg,sunaprnrbmgkomdbchr.jpg,00977960627fa.jpg,sunbbxkanhzjgbwyxqs.jpg,,,>,Face,,,,,1,,,,,,,x
260,jjjjj,Memory,5,,,,,,,sunagrmyoovzukhxmlo.jpg,,,,,,,,,,,,,,,
261,jjjjj,Memory,5,,,,,,,sunaauueuhhvklldjik.jpg,,,,,,,,,,,,,,,
262,jjjjj,Memory,5,,,,,,,sunaaehaikpckyjsety.jpg,,,,,,,,,,,,,,,
263,jjjjj,Memory,5,,,,,,,sunaqsolmfydodnakub.jpg,,,,,,,,,,,,,,,
264,jjjjj,Memory,5,,,,,,,00127931230fa.jpg,,,,,,,,,,,,,,,
265,jjjjj,Memory,5,,,,,,,00065931230fb.jpg,,,,,,,,,,,,,,,
266,jjjjj,Memory,5,,,,,,,00242940128fa.jpg,,,,,,,,,,,,,,,
267,jjjjj,Memory,5,,,,,,,sunacypmnujalygkunp.jpg,,,,,,,,,,,,,,,
268,jjjjj,Memory,5,,,,,,,sunadochqcucscehsgk.jpg,,,,,,,,,,,,,,,
269,jjjjj,Memory,5,,,,,,,00675941121fa.jpg,,,,,,,,,,,,,,,
270,jjjjj,Memory,5,,,,,,,00102931230fa.jpg,,,,,,,,,,,,,,,
271,jjjjj,Memory,5,,,,,,,sunabcuurugvxwparpk.jpg,,,,,,,,,,,,,,,
272,jjjjj,Memory,5,,,,,,,sunadoxcchtmsxewsau.jpg,,,,,,,,,,,,,,,
273,jjjjj,Memory,5,,,,,,,00791941205fa.jpg,,,,,,,,,,,,,,,
274,jjjjj,Memory,5,,,,,,,00835940307fa.jpg,,,,,,,,,,,,,,,
275,jjjjj,Memory,5,,,,,,,sunahctntqrunhdxhtb.jpg,,,,,,,,,,,,,,,
276,jjjjj,Memory,5,,,,,,,00620940928fa.jpg,,,,,,,,,,,,,,,
277,jjjjj,Memory,5,,,,,,,00937960627fa.jpg,,,,,,,,,,,,,,,
278,jjjjj,Memory,5,,,,,,,00797960620fa.jpg,,,,,,,,,,,,,,,
279,jjjjj,Memory,5,,,,,,,sunaijsqpvodplbwxkf.jpg,,,,,,,,,,,,,,,
280,jjjjj,Memory,5,,,,,,,sunaeomlfaabhpswasy.jpg,,,,,,,,,,,,,,,
281,jjjjj,Memory,5,,,,,,,sunaampvucecsfbdafn.jpg,,,,,,,,,,,,,,,
282,jjjjj,Memory,5,,,,,,,sunaaemixhfquhnxxlm.jpg,,,,,,,,,,,,,,,
283,jjjjj,Memory,5,,,,,,,sunaajspcoepticvplv.jpg,,,,,,,,,,,,,,,
284,jjjjj,Memory,5,,,,,,,sunabcfpwlpolnutyju.jpg,,,,,,,,,,,,,,,
285,jjjjj,Memory,5,,,,,,,00745941205fa.jpg,,,,,,,,,,,,,,,
286,jjjjj,Memory,5,,,,,,,00810941205fa.jpg,,,,,,,,,,,,,,,
287,jjjjj,Memory,5,,,,,,,00670941121fa.jpg,,,,,,,,,,,,,,,
288,jjjjj,Memory,5,,,,,,,00648941031fa.jpg,,,,,,,,,,,,,,,
289,jjjjj,Memory,5,,,,,,,sunaeouogqolxvggaoq.jpg,,,,,,,,,,,,,,,
290,jjjjj,Memory,5,,,,,,,00060931230fa.jpg,,,,,,,,,,,,,,,
291,jjjjj,Memory,5,,,,,,,01000960627fa.jpg,,,,,,,,,,,,,,,
292,jjjjj,Memory,5,,,,,,,sunagufzbeteqdjxais.jpg,,,,,,,,,,,,,,,
293,jjjjj,Memory,5,,,,,,,sunbvzmgrdvaakxusbu.jpg,,,,,,,,,,,,,,,
294,jjjjj,Memory,5,,,,,,,sunanwjjyqqwzqrqagd.jpg,,,,,,,,,,,,,,,
295,jjjjj,Memory,5,,,,,,,sunadfndyrtqqiasoig.jpg,,,,,,,,,,,,,,,
296,jjjjj,Memory,5,,,,,,,00221940128fa.jpg,,,,,,,,,,,,,,,
297,jjjjj,Memory,5,,,,,,,00744941201fa.jpg,,,,,,,,,,,,,,,
298,jjjjj,Memory,5,,,,,,,00154931230fa.jpg,,,,,,,,,,,,,,,
299,jjjjj,Memory,5,,,,,,,00908960530fa.jpg,,,,,,,,,,,,,,,
300,jjjjj,Presentation,6,00598941031fa_sunacxtcahkymosigud.jpg,00069931230fb_sunaaeowapdkwzqpgqr.jpg,00598941031fa.jpg,sunacxtcahkymosigud.jpg,00069931230fb.jpg,sunaaeowapdkwzqpgqr.jpg,,,>,Face,,,,,1,,,,,,,o
301,jjjjj,Presentation,6,00936960627fa_sunaqgjuuwvdcyiccjt.jpg,00507940519fa_sunacacflqoyxhsqzhe.jpg,00936960627fa.jpg,sunaqgjuuwvdcyiccjt.jpg,00507940519fa.jpg,sunacacflqoyxhsqzhe.jpg,,,>,Face,,,,,1,,,,,,,o
302,jjjjj,Presentation,6,00280940422fb_sunabohxbskznglnrhv.jpg,00086931230fa_sunaafynehyrzpsoaml.jpg,00280940422fb.jpg,sunabohxbskznglnrhv.jpg,00086931230fa.jpg,sunaafynehyrzpsoaml.jpg,,,>,Face,,,,,1,,,,,,,o
303,jjjjj,Presentation,6,00973960627fa_sunbbgtoeuzierkkajt.jpg,00505960627fa_sunabzuqsrgcsonqlkz.jpg,00973960627fa.jpg,sunbbgtoeuzierkkajt.jpg,00505960627fa.jpg,sunabzuqsrgcsonqlkz.jpg,,,>,Face,,,,,1,,,,,,,x
304,jjjjj,Presentation,6,00239940128fa_sunabctlikybqabezjv.jpg,00092931230fa_sunaaheqzstzxuadglu.jpg,00239940128fa.jpg,sunabctlikybqabezjv.jpg,00092931230fa.jpg,sunaaheqzstzxuadglu.jpg,,,>,Face,,,,,1,,,,,,,x
305,jjjjj,Presentation,6,00266940128fb_sunabkngeblodihjvbk.jpg,00129931230fb_sunaamsdyakblkfoydx.jpg,00266940128fb.jpg,sunabkngeblodihjvbk.jpg,00129931230fb.jpg,sunaamsdyakblkfoydx.jpg,,,>,Face,,,,,1,,,,,,,o
306,jjjjj,Presentation,6,00868960307fa_sunajjxttslobudoqbv.jpg,00540940519fa_sunacdnquypmsshhsbk.jpg,00868960307fa.jpg,sunajjxttslobudoqbv.jpg,00540940519fa.jpg,sunacdnquypmsshhsbk.jpg,,,>,Face,,,,,1,,,,,,,o
307,jjjjj,Presentation,6,00968960627fa_sunbagfpovqwbuexqdn.jpg,00071941031fa_sunaaexqbtdswxrqjvz.jpg,00968960627fa.jpg,sunbagfpovqwbuexqdn.jpg,00071941031fa.jpg,sunaaexqbtdswxrqjvz.jpg,,,>,Face,,,,,1,,,,,,,x
308,jjjjj,Presentation,6,00294940422fb_sunabrlndkruqokhury.jpg,00857940307fa_sunaiwfobocrruqznsv.jpg,00294940422fb.jpg,sunabrlndkruqokhury.jpg,00857940307fa.jpg,sunaiwfobocrruqznsv.jpg,,,>,Face,,,,,1,,,,,,,x
309,jjjjj,Presentation,6,00071940128fa_sunaaexpnawiehinlpy.jpg,00959960627fa_sunavxokzybtomhbmvm.jpg,00071940128fa.jpg,sunaaexpnawiehinlpy.jpg,00959960627fa.jpg,sunavxokzybtomhbmvm.jpg,,,>,Face,,,,,1,,,,,,,x
310,jjjjj,Memory,6,,,,,,,sunaanlwnpqndclffxt.jpg,,,,,,,,,,,,,,,
311,jjjjj,Memory,6,,,,,,,sunaaexpnawiehinlpy.jpg,,,,,,,,,,,,,,,
312,jjjjj,Memory,6,,,,,,,00754941201fa.jpg,,,,,,,,,,,,,,,
313,jjjjj,Memory,6,,,,,,,sunadfktsqjthoglcsm.jpg,,,,,,,,,,,,,,,
314,jjjjj,Memory,6,,,,,,,00133931230fa.jpg,,,,,,,,,,,,,,,
315,jjjjj,Memory,6,,,,,,,sunafvwfsmqkjrutjta.jpg,,,,,,,,,,,,,,,
316,jjjjj,Memory,6,,,,,,,sunaffgsyyvoqdlkmnk.jpg,,,,,,,,,,,,,,,
317,jjjjj,Memory,6,,,,,,,sunbxarcshsnqsefemx.jpg,,,,,,,,,,,,,,,
318,jjjjj,Memory,6,,,,,,,sunabrwnslxalcohfre.jpg,,,,,,,,,,,,,,,
319,jjjjj,Memory,6,,,,,,,00092931230fa.jpg,,,,,,,,,,,,,,,
320,jjjjj,Memory,6,,,,,,,00294940422fb.jpg,,,,,,,,,,,,,,,
321,jjjjj,Memory,6,,,,,,,01007960627fa.jpg,,,,,,,,,,,,,,,
322,jjjjj,Memory,6,,,,,,,sunbagfpovqwbuexqdn.jpg,,,,,,,,,,,,,,,
323,jjjjj,Memory,6,,,,,,,00505960627fa.jpg,,,,,,,,,,,,,,,
324,jjjjj,Memory,6,,,,,,,00973960627fa.jpg,,,,,,,,,,,,,,,
325,jjjjj,Memory,6,,,,,,,00184940128fa.jpg,,,,,,,,,,,,,,,
326,jjjjj,Memory,6,,,,,,,00638941031fa.jpg,,,,,,,,,,,,,,,
327,jjjjj,Memory,6,,,,,,,sunbbgtoeuzierkkajt.jpg,,,,,,,,,,,,,,,
328,jjjjj,Memory,6,,,,,,,sunagoufulkpsxrmklt.jpg,,,,,,,,,,,,,,,
329,jjjjj,Memory,6,,,,,,,00959960627fa.jpg,,,,,,,,,,,,,,,
330,jjjjj,Memory,6,,,,,,,00775941205fa.jpg,,,,,,,,,,,,,,,
331,jjjjj,Memory,6,,,,,,,sunaafynehyrzpsoaml.jpg,,,,,,,,,,,,,,,
332,jjjjj,Memory,6,,,,,,,00069931230fb.jpg,,,,,,,,,,,,,,,
333,jjjjj,Memory,6,,,,,,,00968960627fa.jpg,,,,,,,,,,,,,,,
334,jjjjj,Memory,6,,,,,,,00266940128fb.jpg,,,,,,,,,,,,,,,
335,jjjjj,Memory,6,,,,,,,00296940422fa.jpg,,,,,,,,,,,,,,,
336,jjjjj,Memory,6,,,,,,,00787960620fa.jpg,,,,,,,,,,,,,,,
337,jjjjj,Memory,6,,,,,,,sunabzuqsrgcsonqlkz.jpg,,,,,,,,,,,,,,,
338,jjjjj,Memory,6,,,,,,,sunawotxrevnqvamsfp.jpg,,,,,,,,,,,,,,,
339,jjjjj,Memory,6,,,,,,,sunabkngeblodihjvbk.jpg,,,,,,,,,,,,,,,
340,jjjjj,Memory,6,,,,,,,sunaaeowapdkwzqpgqr.jpg,,,,,,,,,,,,,,,
341,jjjjj,Memory,6,,,,,,,sunaavtbadenwnzeutj.jpg,,,,,,,,,,,,,,,
342,jjjjj,Memory,6,,,,,,,00086931230fa.jpg,,,,,,,,,,,,,,,
343,jjjjj,Memory,6,,,,,,,00071940128fa.jpg,,,,,,,,,,,,,,,
344,jjjjj,Memory,6,,,,,,,00807941205fa.jpg,,,,,,,,,,,,,,,
345,jjjjj,Memory,6,,,,,,,sunahawfngukizslzsd.jpg,,,,,,,,,,,,,,,
346,jjjjj,Memory,6,,,,,,,sunabrlndkruqokhury.jpg,,,,,,,,,,,,,,,
347,jjjjj,Memory,6,,,,,,,sunavxokzybtomhbmvm.jpg,,,,,,,,,,,,,,,
348,jjjjj,Memory,6,,,,,,,sunaaheqzstzxuadglu.jpg,,,,,,,,,,,,,,,
349,jjjjj,Memory,6,,,,,,,00961960627fa.jpg,,,,,,,,,,,,,,,
350,jjjjj,Presentation,7,00198940128fb_sunaazezcsunmhttzxz.jpg,00543940519fa_sunacepzfrmtkiqonpy.jpg,00198940128fb.jpg,sunaazezcsunmhttzxz.jpg,00543940519fa.jpg,sunacepzfrmtkiqonpy.jpg,,,>,Place,,,,,1,,,,,,,x
351,jjjjj,Presentation,7,00210940128fb_sunabanoxjtqxamkucc.jpg,00950960627fa_sunasrjlmglmjzbmqxb.jpg,00210940128fb.jpg,sunabanoxjtqxamkucc.jpg,00950960627fa.jpg,sunasrjlmglmjzbmqxb.jpg,,,>,Place,,,,,0,,,,,,,o
352,jjjjj,Presentation,7,00288940422fa_sunabppokiyglaxpcha.jpg,00111931230fb_sunaakgekhjklxmvulj.jpg,00288940422fa.jpg,sunabppokiyglaxpcha.jpg,00111931230fb.jpg,sunaakgekhjklxmvulj.jpg,,,>,Place,,,,,1,,,,,,,o
353,jjjjj,Presentation,7,00922960627fa_sunapqkyghktgtosuuk.jpg,00891960530fa_sunalkiibhqpxfamlll.jpg,00922960627fa.jpg,sunapqkyghktgtosuuk.jpg,00891960530fa.jpg,sunalkiibhqpxfamlll.jpg,,,>,Place,,,,,1,,,,,,,o
354,jjjjj,Presentation,7,00634940928fa_sunadcphrizvfpljiqt.jpg,00760960620fa_sunaffstbkappprzxnv.jpg,00634940928fa.jpg,sunadcphrizvfpljiqt.jpg,00760960620fa.jpg,sunaffstbkappprzxnv.jpg,,,>,Place,,,,,1,,,,,,,x
355,jjjjj,Presentation,7,00933960627fa_sunapwjkcxdaeqehfql.jpg,00109931230fa_sunaajuzribjrizdshh.jpg,00933960627fa.jpg,sunapwjkcxdaeqehfql.jpg,00109931230fa.jpg,sunaajuzribjrizdshh.jpg,,,>,Place,,,,,1,,,,,,,o
356,jjjjj,Presentation,7,00089931230fa_sunaagcpoejbuzyvddd.jpg,00185940422fb_sunaawqdbpihmlbwyyn.jpg,00089931230fa.jpg,sunaagcpoejbuzyvddd.jpg,00185940422fb.jpg,sunaawqdbpihmlbwyyn.jpg,,,>,Place,,,,,1,,,,,,,o
357,jjjjj,Presentation,7,00635941031fa_sunaddsaeicthrfbkhe.jpg,00969960627fa_sunbaoizrfijvhpnnjn.jpg,00635941031fa.jpg,sunaddsaeicthrfbkhe.jpg,00969960627fa.jpg,sunbaoizrfijvhpnnjn.jpg,,,>,Place,,,,,1,,,,,,,o
358,jjjjj,Presentation,7,00993960627fa_sunbprywzqxjcezkbch.jpg,00898960530fa_sunamkmeblgteyggink.jpg,00993960627fa.jpg,sunbprywzqxjcezkbch.jpg,00898960530fa.jpg,sunamkmeblgteyggink.jpg,,,>,Place,,,,,1,,,,,,,x
359,jjjjj,Presentation,7,00705941205fa_sunadtlxenqqxsyjvix.jpg,00264940128fb_sunabjzyxcjnmztdonj.jpg,00705941205fa.jpg,sunadtlxenqqxsyjvix.jpg,00264940128fb.jpg,sunabjzyxcjnmztdonj.jpg,,,>,Place,,,,,1,,,,,,,x
360,jjjjj,Memory,7,,,,,,,sunaanjcbzdvtvblsdy.jpg,,,,,,,,,,,,,,,
361,jjjjj,Memory,7,,,,,,,00313940422fa.jpg,,,,,,,,,,,,,,,
362,jjjjj,Memory,7,,,,,,,sunasrjlmglmjzbmqxb.jpg,,,,,,,,,,,,,,,
363,jjjjj,Memory,7,,,,,,,00705941205fa.jpg,,,,,,,,,,,,,,,
364,jjjjj,Memory,7,,,,,,,00761960627fa.jpg,,,,,,,,,,,,,,,
365,jjjjj,Memory,7,,,,,,,sunahwgbqkqcrwprgvh.jpg,,,,,,,,,,,,,,,
366,jjjjj,Memory,7,,,,,,,00210940128fb.jpg,,,,,,,,,,,,,,,
367,jjjjj,Memory,7,,,,,,,sunaamvxnvouicstkjb.jpg,,,,,,,,,,,,,,,
368,jjjjj,Memory,7,,,,,,,00124931230fa.jpg,,,,,,,,,,,,,,,
369,jjjjj,Memory,7,,,,,,,sunabueyoajufbkraki.jpg,,,,,,,,,,,,,,,
370,jjjjj,Memory,7,,,,,,,00825940307fa.jpg,,,,,,,,,,,,,,,
371,jjjjj,Memory,7,,,,,,,sunaalhlvzmjmitybdn.jpg,,,,,,,,,,,,,,,
372,jjjjj,Memory,7,,,,,,,00634940928fa.jpg,,,,,,,,,,,,,,,
373,jjjjj,Memory,7,,,,,,,sunabwjvmoaddlyxfjr.jpg,,,,,,,,,,,,,,,
374,jjjjj,Memory,7,,,,,,,sunahrltmuwbiehihpe.jpg,,,,,,,,,,,,,,,
375,jjjjj,Memory,7,,,,,,,00829940307fa.jpg,,,,,,,,,,,,,,,
376,jjjjj,Memory,7,,,,,,,00943960627fa.jpg,,,,,,,,,,,,,,,
377,jjjjj,Memory,7,,,,,,,sunbprywzqxjcezkbch.jpg,,,,,,,,,,,,,,,
378,jjjjj,Memory,7,,,,,,,00993960627fa.jpg,,,,,,,,,,,,,,,
379,jjjjj,Memory,7,,,,,,,sunarpsxqkduedrrzyi.jpg,,,,,,,,,,,,,,,
380,jjjjj,Memory,7,,,,,,,00132931230fb.jpg,,,,,,,,,,,,,,,
381,jjjjj,Memory,7,,,,,,,00543940519fa.jpg,,,,,,,,,,,,,,,
382,jjjjj,Memory,7,,,,,,,00306940422fa.jpg,,,,,,,,,,,,,,,
383,jjjjj,Memory,7,,,,,,,sunaazezcsunmhttzxz.jpg,,,,,,,,,,,,,,,
384,jjjjj,Memory,7,,,,,,,sunacepzfrmtkiqonpy.jpg,,,,,,,,,,,,,,,
385,jjjjj,Memory,7,,,,,,,sunathzzbcwjykldrem.jpg,,,,,,,,,,,,,,,
386,jjjjj,Memory,7,,,,,,,sunafgdqbclkwfocdhg.jpg,,,,,,,,,,,,,,,
387,jjjjj,Memory,7,,,,,,,sunadcphrizvfpljiqt.jpg,,,,,,,,,,,,,,,
388,jjjjj,Memory,7,,,,,,,00109931230fa.jpg,,,,,,,,,,,,,,,
389,jjjjj,Memory,7,,,,,,,sunadtlxenqqxsyjvix.jpg,,,,,,,,,,,,,,,
390,jjjjj,Memory,7,,,,,,,00891960530fa.jpg,,,,,,,,,,,,,,,
391,jjjjj,Memory,7,,,,,,,sunbaoizrfijvhpnnjn.jpg,,,,,,,,,,,,,,,
392,jjjjj,Memory,7,,,,,,,sunalkiibhqpxfamlll.jpg,,,,,,,,,,,,,,,
393,jjjjj,Memory,7,,,,,,,00950960627fa.jpg,,,,,,,,,,,,,,,
394,jjjjj,Memory,7,,,,,,,00952960627fa.jpg,,,,,,,,,,,,,,,
395,jjjjj,Memory,7,,,,,,,00198940128fb.jpg,,,,,,,,,,,,,,,
396,jjjjj,Memory,7,,,,,,,00130931230fa.jpg,,,,,,,,,,,,,,,
397,jjjjj,Memory,7,,,,,,,sunabanoxjtqxamkucc.jpg,,,,,,,,,,,,,,,
398,jjjjj,Memory,7,,,,,,,sunaajuzribjrizdshh.jpg,,,,,,,,,,,,,,,
399,jjjjj,Memory,7,,,,,,,00969960627fa.jpg,,,,,,,,,,,,,,,
