,Subject,Trial Type,Run,Cued Composite,Uncued Composite,Cued Face,Cued Place,Uncued Face,Uncued Place,Memory Image,Category,Cued Side,Cued Category,Attention Reaction Time (s),Familiarity Reaction Time (s),Familiarity Rating,Attention Level,Cue Validity,Post Invalid Cue,Pre Invalid Cue,Attention Button,Rating History,Stimulus Onset,Stimulus End
0,tsk,Presentation,0,00071941031fa_sunaaexqbtdswxrqjvz.jpg,00825940307fa_sunahrltmuwbiehihpe.jpg,00071941031fa.jpg,sunaaexqbtdswxrqjvz.jpg,00825940307fa.jpg,sunahrltmuwbiehihpe.jpg,,,>,Face,,,,,1,,,,,,
1,tsk,Presentation,0,00866940307fa_sunajbwkywmsqkldfml.jpg,00092931230fa_sunaaheqzstzxuadglu.jpg,00866940307fa.jpg,sunajbwkywmsqkldfml.jpg,00092931230fa.jpg,sunaaheqzstzxuadglu.jpg,,,>,Face,,,,,1,,,,,,
2,tsk,Presentation,0,00788941205fa_sunagountlxpzkytsmp.jpg,00834940307fa_sunaibnpvhkdpdnzcnz.jpg,00788941205fa.jpg,sunagountlxpzkytsmp.jpg,00834940307fa.jpg,sunaibnpvhkdpdnzcnz.jpg,,,>,Face,,,,,1,,,,,,
3,tsk,Presentation,0,00848940307fa_sunaivdylrawbmhryfp.jpg,00876960620fa_sunajwqkfsykceonyig.jpg,00848940307fa.jpg,sunaivdylrawbmhryfp.jpg,00876960620fa.jpg,sunajwqkfsykceonyig.jpg,,,>,Face,,,,,1,,,,,,
4,tsk,Presentation,0,00540940519fa_sunacdnquypmsshhsbk.jpg,00827940307fa_sunahtfxgsrmkiulnwk.jpg,00540940519fa.jpg,sunacdnquypmsshhsbk.jpg,00827940307fa.jpg,sunahtfxgsrmkiulnwk.jpg,,,>,Face,,,,,1,,,,,,
5,tsk,Presentation,0,00636941031fa_sunaddtdkycxbqlpfqa.jpg,00308940422fb_sunabwfvcqqidycwypa.jpg,00636941031fa.jpg,sunaddtdkycxbqlpfqa.jpg,00308940422fb.jpg,sunabwfvcqqidycwypa.jpg,,,>,Face,,,,,1,,,,,,
6,tsk,Presentation,0,00858940307fa_sunaixpqndlwhwjtjek.jpg,00124931230fa_sunaalhlvzmjmitybdn.jpg,00858940307fa.jpg,sunaixpqndlwhwjtjek.jpg,00124931230fa.jpg,sunaalhlvzmjmitybdn.jpg,,,>,Face,,,,,1,,,,,,
7,tsk,Presentation,0,00065931230fb_sunaaemixhfquhnxxlm.jpg,00218940128fa_sunabbwggenhfbftyvi.jpg,00065931230fb.jpg,sunaaemixhfquhnxxlm.jpg,00218940128fa.jpg,sunabbwggenhfbftyvi.jpg,,,>,Face,,,,,1,,,,,,
8,tsk,Presentation,0,00101931230fb_sunaajqmsaavkmgbsth.jpg,00797960620fa_sunagufzbeteqdjxais.jpg,00101931230fb.jpg,sunaajqmsaavkmgbsth.jpg,00797960620fa.jpg,sunagufzbeteqdjxais.jpg,,,>,Face,,,,,1,,,,,,
9,tsk,Presentation,0,00999960627fa_sunbvbrvgbpanfrawft.jpg,00681941121fa_sunadqmjrhfjyuzyvdd.jpg,00999960627fa.jpg,sunbvbrvgbpanfrawft.jpg,00681941121fa.jpg,sunadqmjrhfjyuzyvdd.jpg,,,>,Face,,,,,1,,,,,,
10,tsk,Memory,0,,,,,,,sunbtpilbhhbmhmeuzq.jpg,,,,,,,,,,,,,,
11,tsk,Memory,0,,,,,,,00308940422fb.jpg,,,,,,,,,,,,,,
12,tsk,Memory,0,,,,,,,sunaletopenvvozhpxc.jpg,,,,,,,,,,,,,,
13,tsk,Memory,0,,,,,,,00746941201fa.jpg,,,,,,,,,,,,,,
14,tsk,Memory,0,,,,,,,00221940128fa.jpg,,,,,,,,,,,,,,
15,tsk,Memory,0,,,,,,,sunaenwuebvlpdmntju.jpg,,,,,,,,,,,,,,
16,tsk,Memory,0,,,,,,,sunahtfxgsrmkiulnwk.jpg,,,,,,,,,,,,,,
17,tsk,Memory,0,,,,,,,sunaffgsyyvoqdlkmnk.jpg,,,,,,,,,,,,,,
18,tsk,Memory,0,,,,,,,sunaaexqbtdswxrqjvz.jpg,,,,,,,,,,,,,,
19,tsk,Memory,0,,,,,,,00834940307fa.jpg,,,,,,,,,,,,,,
20,tsk,Memory,0,,,,,,,sunagsiwrmuixqgdimb.jpg,,,,,,,,,,,,,,
21,tsk,Memory,0,,,,,,,00792941205fa.jpg,,,,,,,,,,,,,,
22,tsk,Memory,0,,,,,,,sunaetydippjxikifsb.jpg,,,,,,,,,,,,,,
23,tsk,Memory,0,,,,,,,00242940128fa.jpg,,,,,,,,,,,,,,
24,tsk,Memory,0,,,,,,,sunabcfpwlpolnutyju.jpg,,,,,,,,,,,,,,
25,tsk,Memory,0,,,,,,,00938960627fa.jpg,,,,,,,,,,,,,,
26,tsk,Memory,0,,,,,,,sunabgfhvifeijihhjw.jpg,,,,,,,,,,,,,,
27,tsk,Memory,0,,,,,,,00260940128fa.jpg,,,,,,,,,,,,,,
28,tsk,Memory,0,,,,,,,00754941201fa.jpg,,,,,,,,,,,,,,
29,tsk,Memory,0,,,,,,,sunaajqmsaavkmgbsth.jpg,,,,,,,,,,,,,,
30,tsk,Memory,0,,,,,,,sunaaheqzstzxuadglu.jpg,,,,,,,,,,,,,,
31,tsk,Memory,0,,,,,,,00101931230fb.jpg,,,,,,,,,,,,,,
32,tsk,Memory,0,,,,,,,sunaalhlvzmjmitybdn.jpg,,,,,,,,,,,,,,
33,tsk,Memory,0,,,,,,,00071941031fa.jpg,,,,,,,,,,,,,,
34,tsk,Memory,0,,,,,,,00124931230fa.jpg,,,,,,,,,,,,,,
35,tsk,Memory,0,,,,,,,00889960530fa.jpg,,,,,,,,,,,,,,
36,tsk,Memory,0,,,,,,,sunaaemixhfquhnxxlm.jpg,,,,,,,,,,,,,,
37,tsk,Memory,0,,,,,,,sunajbwkywmsqkldfml.jpg,,,,,,,,,,,,,,
38,tsk,Memory,0,,,,,,,00540940519fa.jpg,,,,,,,,,,,,,,
39,tsk,Memory,0,,,,,,,00827940307fa.jpg,,,,,,,,,,,,,,
40,tsk,Memory,0,,,,,,,sunabcuurugvxwparpk.jpg,,,,,,,,,,,,,,
41,tsk,Memory,0,,,,,,,sunaqyylsngywqzwfmx.jpg,,,,,,,,,,,,,,
42,tsk,Memory,0,,,,,,,00866940307fa.jpg,,,,,,,,,,,,,,
43,tsk,Memory,0,,,,,,,sunacdnquypmsshhsbk.jpg,,,,,,,,,,,,,,
44,tsk,Memory,0,,,,,,,00065931230fb.jpg,,,,,,,,,,,,,,
45,tsk,Memory,0,,,,,,,sunaibnpvhkdpdnzcnz.jpg,,,,,,,,,,,,,,
46,tsk,Memory,0,,,,,,,00742941201fa.jpg,,,,,,,,,,,,,,
47,tsk,Memory,0,,,,,,,00997960627fa.jpg,,,,,,,,,,,,,,
48,tsk,Memory,0,,,,,,,sunabwfvcqqidycwypa.jpg,,,,,,,,,,,,,,
49,tsk,Memory,0,,,,,,,00092931230fa.jpg,,,,,,,,,,,,,,
50,tsk,Presentation,1,00939960627fa_sunarceibpcyacbmfga.jpg,00926960627Fa_sunapqwoeotxshkukbh.jpg,00939960627fa.jpg,sunarceibpcyacbmfga.jpg,00926960627Fa.jpg,sunapqwoeotxshkukbh.jpg,,,>,Face,,,,,1,,,,,,
51,tsk,Presentation,1,00812941205fa_sunahgtbwgsmtqeodwh.jpg,00111931230fb_sunaakgekhjklxmvulj.jpg,00812941205fa.jpg,sunahgtbwgsmtqeodwh.jpg,00111931230fb.jpg,sunaakgekhjklxmvulj.jpg,,,>,Face,,,,,1,,,,,,
52,tsk,Presentation,1,00158931230fb_sunaavchcbptaerhcfy.jpg,00483940519fa_sunabyvpwkgsjtijdwj.jpg,00158931230fb.jpg,sunaavchcbptaerhcfy.jpg,00483940519fa.jpg,sunabyvpwkgsjtijdwj.jpg,,,>,Face,,,,,0,,,,,,
53,tsk,Presentation,1,00306940422fa_sunabueyoajufbkraki.jpg,00959960627fa_sunavxokzybtomhbmvm.jpg,00306940422fa.jpg,sunabueyoajufbkraki.jpg,00959960627fa.jpg,sunavxokzybtomhbmvm.jpg,,,>,Face,,,,,1,,,,,,
54,tsk,Presentation,1,00818940307fa_sunahpblecxtmuzkmxb.jpg,00982960627fa_sunbesrwkdsffeogeqq.jpg,00818940307fa.jpg,sunahpblecxtmuzkmxb.jpg,00982960627fa.jpg,sunbesrwkdsffeogeqq.jpg,,,>,Face,,,,,1,,,,,,
55,tsk,Presentation,1,00778941205fa_sunagcthdfirrcawoic.jpg,00198940128fb_sunaazezcsunmhttzxz.jpg,00778941205fa.jpg,sunagcthdfirrcawoic.jpg,00198940128fb.jpg,sunaazezcsunmhttzxz.jpg,,,>,Face,,,,,1,,,,,,
56,tsk,Presentation,1,00836940307fa_sunainqelldeebvxtcz.jpg,00543940519fa_sunacepzfrmtkiqonpy.jpg,00836940307fa.jpg,sunainqelldeebvxtcz.jpg,00543940519fa.jpg,sunacepzfrmtkiqonpy.jpg,,,>,Face,,,,,1,,,,,,
57,tsk,Presentation,1,00864940307fa_sunajawzbrlrwafowen.jpg,00893960530Fa_sunaloffvbvysigxent.jpg,00864940307fa.jpg,sunajawzbrlrwafowen.jpg,00893960530Fa.jpg,sunaloffvbvysigxent.jpg,,,>,Face,,,,,1,,,,,,
58,tsk,Presentation,1,00109931230fa_sunaajuzribjrizdshh.jpg,00280940422fb_sunabohxbskznglnrhv.jpg,00109931230fa.jpg,sunaajuzribjrizdshh.jpg,00280940422fb.jpg,sunabohxbskznglnrhv.jpg,,,>,Face,,,,,1,,,,,,
59,tsk,Presentation,1,00313940422fa_sunabwjvmoaddlyxfjr.jpg,00529940519fa_sunacbeefkxpymwevpk.jpg,00313940422fa.jpg,sunabwjvmoaddlyxfjr.jpg,00529940519fa.jpg,sunacbeefkxpymwevpk.jpg,,,>,Face,,,,,0,,,,,,
60,tsk,Memory,1,,,,,,,sunainqelldeebvxtcz.jpg,,,,,,,,,,,,,,
61,tsk,Memory,1,,,,,,,sunaazezcsunmhttzxz.jpg,,,,,,,,,,,,,,
62,tsk,Memory,1,,,,,,,sunaauueuhhvklldjik.jpg,,,,,,,,,,,,,,
63,tsk,Memory,1,,,,,,,sunabwjvmoaddlyxfjr.jpg,,,,,,,,,,,,,,
64,tsk,Memory,1,,,,,,,sunbpflsdaxnddnwcqi.jpg,,,,,,,,,,,,,,
65,tsk,Memory,1,,,,,,,sunabyvpwkgsjtijdwj.jpg,,,,,,,,,,,,,,
66,tsk,Memory,1,,,,,,,sunaaeowapdkwzqpgqr.jpg,,,,,,,,,,,,,,
67,tsk,Memory,1,,,,,,,sunaagcpoejbuzyvddd.jpg,,,,,,,,,,,,,,
68,tsk,Memory,1,,,,,,,00990960627fa.jpg,,,,,,,,,,,,,,
69,tsk,Memory,1,,,,,,,00154931230fa.jpg,,,,,,,,,,,,,,
70,tsk,Memory,1,,,,,,,sunadoxcchtmsxewsau.jpg,,,,,,,,,,,,,,
71,tsk,Memory,1,,,,,,,00926960627Fa.jpg,,,,,,,,,,,,,,
72,tsk,Memory,1,,,,,,,sunaooffzffbhcpirmm.jpg,,,,,,,,,,,,,,
73,tsk,Memory,1,,,,,,,sunbwtlihsuptkrckid.jpg,,,,,,,,,,,,,,
74,tsk,Memory,1,,,,,,,00809960620fa.jpg,,,,,,,,,,,,,,
75,tsk,Memory,1,,,,,,,00913960530fa.jpg,,,,,,,,,,,,,,
76,tsk,Memory,1,,,,,,,sunaajuzribjrizdshh.jpg,,,,,,,,,,,,,,
77,tsk,Memory,1,,,,,,,00893960530Fa.jpg,,,,,,,,,,,,,,
78,tsk,Memory,1,,,,,,,00158931230fb.jpg,,,,,,,,,,,,,,
79,tsk,Memory,1,,,,,,,00245940128fa.jpg,,,,,,,,,,,,,,
80,tsk,Memory,1,,,,,,,00864940307fa.jpg,,,,,,,,,,,,,,
81,tsk,Memory,1,,,,,,,00836940307fa.jpg,,,,,,,,,,,,,,
82,tsk,Memory,1,,,,,,,sunabeyhmxodahoieyk.jpg,,,,,,,,,,,,,,
83,tsk,Memory,1,,,,,,,01004960627fa.jpg,,,,,,,,,,,,,,
84,tsk,Memory,1,,,,,,,00982960627fa.jpg,,,,,,,,,,,,,,
85,tsk,Memory,1,,,,,,,00933960627fa.jpg,,,,,,,,,,,,,,
86,tsk,Memory,1,,,,,,,sunapqwoeotxshkukbh.jpg,,,,,,,,,,,,,,
87,tsk,Memory,1,,,,,,,00313940422fa.jpg,,,,,,,,,,,,,,
88,tsk,Memory,1,,,,,,,00109931230fa.jpg,,,,,,,,,,,,,,
89,tsk,Memory,1,,,,,,,00675941121fa.jpg,,,,,,,,,,,,,,
90,tsk,Memory,1,,,,,,,00089931230fa.jpg,,,,,,,,,,,,,,
91,tsk,Memory,1,,,,,,,sunajawzbrlrwafowen.jpg,,,,,,,,,,,,,,
92,tsk,Memory,1,,,,,,,sunapwjkcxdaeqehfql.jpg,,,,,,,,,,,,,,
93,tsk,Memory,1,,,,,,,sunaloffvbvysigxent.jpg,,,,,,,,,,,,,,
94,tsk,Memory,1,,,,,,,sunahbvlpavurqoxdeq.jpg,,,,,,,,,,,,,,
95,tsk,Memory,1,,,,,,,sunbesrwkdsffeogeqq.jpg,,,,,,,,,,,,,,
96,tsk,Memory,1,,,,,,,00069931230fb.jpg,,,,,,,,,,,,,,
97,tsk,Memory,1,,,,,,,00198940128fb.jpg,,,,,,,,,,,,,,
98,tsk,Memory,1,,,,,,,00483940519fa.jpg,,,,,,,,,,,,,,
99,tsk,Memory,1,,,,,,,sunaavchcbptaerhcfy.jpg,,,,,,,,,,,,,,
100,tsk,Presentation,2,00136931230fb_sunaanptmsknhirrzed.jpg,00093931230fa_sunaahwnmtqsrhocysw.jpg,00136931230fb.jpg,sunaanptmsknhirrzed.jpg,00093931230fa.jpg,sunaahwnmtqsrhocysw.jpg,,,<,Face,,,,,1,,,,,,
101,tsk,Presentation,2,00211940128fa_sunabasphceswhwwqvv.jpg,00062931230fb_sunaaelotvjgibjtjhs.jpg,00211940128fa.jpg,sunabasphceswhwwqvv.jpg,00062931230fb.jpg,sunaaelotvjgibjtjhs.jpg,,,<,Face,,,,,1,,,,,,
102,tsk,Presentation,2,00762941201fa_sunafgzgbisbopcyslr.jpg,00662941121fa_sunadkazmlajmohnwfl.jpg,00762941201fa.jpg,sunafgzgbisbopcyslr.jpg,00662941121fa.jpg,sunadkazmlajmohnwfl.jpg,,,<,Face,,,,,0,,,,,,
103,tsk,Presentation,2,00909960530_sunaobtizabegtwfwul.jpg,00647941031fa_sunadflbrkckmepztql.jpg,00909960530.jpg,sunaobtizabegtwfwul.jpg,00647941031fa.jpg,sunadflbrkckmepztql.jpg,,,<,Face,,,,,1,,,,,,
104,tsk,Presentation,2,00743941201fa_sunaeoghzrjarigmwua.jpg,00973960627fa_sunbbgtoeuzierkkajt.jpg,00743941201fa.jpg,sunaeoghzrjarigmwua.jpg,00973960627fa.jpg,sunbbgtoeuzierkkajt.jpg,,,<,Face,,,,,1,,,,,,
105,tsk,Presentation,2,00194940128fb_sunaayehfdqcyxggsej.jpg,00620940928fa_sunacypmnujalygkunp.jpg,00194940128fb.jpg,sunaayehfdqcyxggsej.jpg,00620940928fa.jpg,sunacypmnujalygkunp.jpg,,,<,Face,,,,,1,,,,,,
106,tsk,Presentation,2,00914960620fa_sunaozisvwfbmlkfhzv.jpg,00749941201fa_sunaeuvjbmdpknaqqaj.jpg,00914960620fa.jpg,sunaozisvwfbmlkfhzv.jpg,00749941201fa.jpg,sunaeuvjbmdpknaqqaj.jpg,,,<,Face,,,,,1,,,,,,
107,tsk,Presentation,2,00481940519fa_sunabxsuqbleluwczoy.jpg,00898960530fa_sunamkmeblgteyggink.jpg,00481940519fa.jpg,sunabxsuqbleluwczoy.jpg,00898960530fa.jpg,sunamkmeblgteyggink.jpg,,,<,Face,,,,,0,,,,,,
108,tsk,Presentation,2,00961960627fa_sunawotxrevnqvamsfp.jpg,00803941205fa_sunagvxkjokqimstxpe.jpg,00961960627fa.jpg,sunawotxrevnqvamsfp.jpg,00803941205fa.jpg,sunagvxkjokqimstxpe.jpg,,,<,Face,,,,,1,,,,,,
109,tsk,Presentation,2,00847940307fa_sunaivdjruhkrfywfed.jpg,00719941201fa_sunadvithllcgmfxsrn.jpg,00847940307fa.jpg,sunaivdjruhkrfywfed.jpg,00719941201fa.jpg,sunadvithllcgmfxsrn.jpg,,,<,Face,,,,,1,,,,,,
110,tsk,Memory,2,,,,,,,00133931230fa.jpg,,,,,,,,,,,,,,
111,tsk,Memory,2,,,,,,,sunamkmeblgteyggink.jpg,,,,,,,,,,,,,,
112,tsk,Memory,2,,,,,,,sunabxsuqbleluwczoy.jpg,,,,,,,,,,,,,,
113,tsk,Memory,2,,,,,,,00961960627fa.jpg,,,,,,,,,,,,,,
114,tsk,Memory,2,,,,,,,sunaaeplwsfslcbtojr.jpg,,,,,,,,,,,,,,
115,tsk,Memory,2,,,,,,,00264940128fb.jpg,,,,,,,,,,,,,,
116,tsk,Memory,2,,,,,,,sunaakjaacuzulqckgl.jpg,,,,,,,,,,,,,,
117,tsk,Memory,2,,,,,,,sunaahwnmtqsrhocysw.jpg,,,,,,,,,,,,,,
118,tsk,Memory,2,,,,,,,00481940519fa.jpg,,,,,,,,,,,,,,
119,tsk,Memory,2,,,,,,,sunadflbrkckmepztql.jpg,,,,,,,,,,,,,,
120,tsk,Memory,2,,,,,,,00112931230fa.jpg,,,,,,,,,,,,,,
121,tsk,Memory,2,,,,,,,00194940128fb.jpg,,,,,,,,,,,,,,
122,tsk,Memory,2,,,,,,,sunaayehfdqcyxggsej.jpg,,,,,,,,,,,,,,
123,tsk,Memory,2,,,,,,,00063931230fa.jpg,,,,,,,,,,,,,,
124,tsk,Memory,2,,,,,,,00630940928fa.jpg,,,,,,,,,,,,,,
125,tsk,Memory,2,,,,,,,00302940422fa.jpg,,,,,,,,,,,,,,
126,tsk,Memory,2,,,,,,,sunaczwgyukesaajxnx.jpg,,,,,,,,,,,,,,
127,tsk,Memory,2,,,,,,,00782941205fa.jpg,,,,,,,,,,,,,,
128,tsk,Memory,2,,,,,,,00062931230fb.jpg,,,,,,,,,,,,,,
129,tsk,Memory,2,,,,,,,sunaozisvwfbmlkfhzv.jpg,,,,,,,,,,,,,,
130,tsk,Memory,2,,,,,,,00914960620fa.jpg,,,,,,,,,,,,,,
131,tsk,Memory,2,,,,,,,sunbbgtoeuzierkkajt.jpg,,,,,,,,,,,,,,
132,tsk,Memory,2,,,,,,,sunabtlfmiwtljmoues.jpg,,,,,,,,,,,,,,
133,tsk,Memory,2,,,,,,,00973960627fa.jpg,,,,,,,,,,,,,,
134,tsk,Memory,2,,,,,,,00898960530fa.jpg,,,,,,,,,,,,,,
135,tsk,Memory,2,,,,,,,sunaanlwnpqndclffxt.jpg,,,,,,,,,,,,,,
136,tsk,Memory,2,,,,,,,sunagfvluwixdsozaql.jpg,,,,,,,,,,,,,,
137,tsk,Memory,2,,,,,,,00070940307fa.jpg,,,,,,,,,,,,,,
138,tsk,Memory,2,,,,,,,00647941031fa.jpg,,,,,,,,,,,,,,
139,tsk,Memory,2,,,,,,,00847940307fa.jpg,,,,,,,,,,,,,,
140,tsk,Memory,2,,,,,,,sunajoveqhiprwqgoco.jpg,,,,,,,,,,,,,,
141,tsk,Memory,2,,,,,,,00869940307fa.jpg,,,,,,,,,,,,,,
142,tsk,Memory,2,,,,,,,sunaivdjruhkrfywfed.jpg,,,,,,,,,,,,,,
143,tsk,Memory,2,,,,,,,sunaaelyvurpntclgau.jpg,,,,,,,,,,,,,,
144,tsk,Memory,2,,,,,,,00700941121fa.jpg,,,,,,,,,,,,,,
145,tsk,Memory,2,,,,,,,sunabjzyxcjnmztdonj.jpg,,,,,,,,,,,,,,
146,tsk,Memory,2,,,,,,,sunadsgmtznewzyasnk.jpg,,,,,,,,,,,,,,
147,tsk,Memory,2,,,,,,,sunawotxrevnqvamsfp.jpg,,,,,,,,,,,,,,
148,tsk,Memory,2,,,,,,,sunaaelotvjgibjtjhs.jpg,,,,,,,,,,,,,,
149,tsk,Memory,2,,,,,,,00093931230fa.jpg,,,,,,,,,,,,,,
150,tsk,Presentation,3,00153931230fa_sunaauhozyxzeeqstxi.jpg,00209940128fb_sunabaergayifsgacxt.jpg,00153931230fa.jpg,sunaauhozyxzeeqstxi.jpg,00209940128fb.jpg,sunabaergayifsgacxt.jpg,,,<,Place,,,,,1,,,,,,
151,tsk,Presentation,3,00822940307fa_sunahqrxievfeusiqlt.jpg,00892960530fa_sunalntxqqadigcletd.jpg,00822940307fa.jpg,sunahqrxievfeusiqlt.jpg,00892960530fa.jpg,sunalntxqqadigcletd.jpg,,,<,Place,,,,,1,,,,,,
152,tsk,Presentation,3,00993960627fa_sunbprywzqxjcezkbch.jpg,00968960627fa_sunbagfpovqwbuexqdn.jpg,00993960627fa.jpg,sunbprywzqxjcezkbch.jpg,00968960627fa.jpg,sunbagfpovqwbuexqdn.jpg,,,<,Place,,,,,1,,,,,,
153,tsk,Presentation,3,00548940519fa_sunacerqowiaeoqkmsq.jpg,00807941205fa_sunahawfngukizslzsd.jpg,00548940519fa.jpg,sunacerqowiaeoqkmsq.jpg,00807941205fa.jpg,sunahawfngukizslzsd.jpg,,,<,Place,,,,,1,,,,,,
154,tsk,Presentation,3,00979960627fa_sunbdycacjfaujxitbw.jpg,00905960530fa_sunanmoqeyprjjjfxjt.jpg,00979960627fa.jpg,sunbdycacjfaujxitbw.jpg,00905960530fa.jpg,sunanmoqeyprjjjfxjt.jpg,,,<,Place,,,,,1,,,,,,
155,tsk,Presentation,3,00777941205fa_sunagcinxkccdtrjmlv.jpg,00235940128fb_sunabclssnoeuigtawp.jpg,00777941205fa.jpg,sunagcinxkccdtrjmlv.jpg,00235940128fb.jpg,sunabclssnoeuigtawp.jpg,,,<,Place,,,,,1,,,,,,
156,tsk,Presentation,3,01010960627fa_suncnkvbhypnivcohyx.jpg,00266940128fb_sunabkngeblodihjvbk.jpg,01010960627fa.jpg,suncnkvbhypnivcohyx.jpg,00266940128fb.jpg,sunabkngeblodihjvbk.jpg,,,<,Place,,,,,1,,,,,,
157,tsk,Presentation,3,00132931230fb_sunaanjcbzdvtvblsdy.jpg,00895960530fa_sunamczizlzavhzhpay.jpg,00132931230fb.jpg,sunaanjcbzdvtvblsdy.jpg,00895960530fa.jpg,sunamczizlzavhzhpay.jpg,,,<,Place,,,,,1,,,,,,
158,tsk,Presentation,3,00482940519fa_sunabyfxcxhdebvdyfd.jpg,00142931230fb_sunaapxkpvrhpjplsok.jpg,00482940519fa.jpg,sunabyfxcxhdebvdyfd.jpg,00142931230fb.jpg,sunaapxkpvrhpjplsok.jpg,,,<,Place,,,,,1,,,,,,
159,tsk,Presentation,3,00145931230fb_sunaatjesvdupctftmn.jpg,00720960620fa_sunaecpkgfewqqreqwe.jpg,00145931230fb.jpg,sunaatjesvdupctftmn.jpg,00720960620fa.jpg,sunaecpkgfewqqreqwe.jpg,,,<,Place,,,,,1,,,,,,
160,tsk,Memory,3,,,,,,,sunaecpkgfewqqreqwe.jpg,,,,,,,,,,,,,,
161,tsk,Memory,3,,,,,,,sunamczizlzavhzhpay.jpg,,,,,,,,,,,,,,
162,tsk,Memory,3,,,,,,,sunaauhozyxzeeqstxi.jpg,,,,,,,,,,,,,,
163,tsk,Memory,3,,,,,,,00887960530.jpg,,,,,,,,,,,,,,
164,tsk,Memory,3,,,,,,,00822940307fa.jpg,,,,,,,,,,,,,,
165,tsk,Memory,3,,,,,,,sunadbdqzigzwipuipr.jpg,,,,,,,,,,,,,,
166,tsk,Memory,3,,,,,,,sunahqrxievfeusiqlt.jpg,,,,,,,,,,,,,,
167,tsk,Memory,3,,,,,,,00905960530fa.jpg,,,,,,,,,,,,,,
168,tsk,Memory,3,,,,,,,sunaapxkpvrhpjplsok.jpg,,,,,,,,,,,,,,
169,tsk,Memory,3,,,,,,,sunaavtbadenwnzeutj.jpg,,,,,,,,,,,,,,
170,tsk,Memory,3,,,,,,,sunacjkmnpawfzbyvae.jpg,,,,,,,,,,,,,,
171,tsk,Memory,3,,,,,,,sunanainkqdvktzoxyl.jpg,,,,,,,,,,,,,,
172,tsk,Memory,3,,,,,,,00922960627fa.jpg,,,,,,,,,,,,,,
173,tsk,Memory,3,,,,,,,00140931230fb.jpg,,,,,,,,,,,,,,
174,tsk,Memory,3,,,,,,,01010960627fa.jpg,,,,,,,,,,,,,,
175,tsk,Memory,3,,,,,,,suncnkvbhypnivcohyx.jpg,,,,,,,,,,,,,,
176,tsk,Memory,3,,,,,,,sunapqkyghktgtosuuk.jpg,,,,,,,,,,,,,,
177,tsk,Memory,3,,,,,,,sunagcinxkccdtrjmlv.jpg,,,,,,,,,,,,,,
178,tsk,Memory,3,,,,,,,00184940128fa.jpg,,,,,,,,,,,,,,
179,tsk,Memory,3,,,,,,,sunaivflshbyfrfzhqb.jpg,,,,,,,,,,,,,,
180,tsk,Memory,3,,,,,,,sunacerqowiaeoqkmsq.jpg,,,,,,,,,,,,,,
181,tsk,Memory,3,,,,,,,00153931230fa.jpg,,,,,,,,,,,,,,
182,tsk,Memory,3,,,,,,,sunanmoqeyprjjjfxjt.jpg,,,,,,,,,,,,,,
183,tsk,Memory,3,,,,,,,sunaeouogqolxvggaoq.jpg,,,,,,,,,,,,,,
184,tsk,Memory,3,,,,,,,00777941205fa.jpg,,,,,,,,,,,,,,
185,tsk,Memory,3,,,,,,,00720960620fa.jpg,,,,,,,,,,,,,,
186,tsk,Memory,3,,,,,,,00631940928fa.jpg,,,,,,,,,,,,,,
187,tsk,Memory,3,,,,,,,sunabaergayifsgacxt.jpg,,,,,,,,,,,,,,
188,tsk,Memory,3,,,,,,,sunaapllqyqlykszopd.jpg,,,,,,,,,,,,,,
189,tsk,Memory,3,,,,,,,00895960530fa.jpg,,,,,,,,,,,,,,
190,tsk,Memory,3,,,,,,,00120931230fa.jpg,,,,,,,,,,,,,,
191,tsk,Memory,3,,,,,,,sunaakxgygjfqrzpyoz.jpg,,,,,,,,,,,,,,
192,tsk,Memory,3,,,,,,,00851940307fa.jpg,,,,,,,,,,,,,,
193,tsk,Memory,3,,,,,,,00209940128fb.jpg,,,,,,,,,,,,,,
194,tsk,Memory,3,,,,,,,00559940519fa.jpg,,,,,,,,,,,,,,
195,tsk,Memory,3,,,,,,,00745941205fa.jpg,,,,,,,,,,,,,,
196,tsk,Memory,3,,,,,,,00903960620fa.jpg,,,,,,,,,,,,,,
197,tsk,Memory,3,,,,,,,00548940519fa.jpg,,,,,,,,,,,,,,
198,tsk,Memory,3,,,,,,,sunalcrtwiycqobgelp.jpg,,,,,,,,,,,,,,
199,tsk,Memory,3,,,,,,,00142931230fb.jpg,,,,,,,,,,,,,,
200,tsk,Presentation,4,00988960627fa_sunbmaiocftdtvnzgap.jpg,00984960627fa_sunbfzchmomnvzhbxdg.jpg,00988960627fa.jpg,sunbmaiocftdtvnzgap.jpg,00984960627fa.jpg,sunbfzchmomnvzhbxdg.jpg,,,>,Place,,,,,1,,,,,,
201,tsk,Presentation,4,00841940307fa_sunaisiwfgppimtnmxl.jpg,00931960627fa_sunaptrqvaooxfvktvw.jpg,00841940307fa.jpg,sunaisiwfgppimtnmxl.jpg,00931960627fa.jpg,sunaptrqvaooxfvktvw.jpg,,,>,Place,,,,,1,,,,,,
202,tsk,Presentation,4,00126931230fb_sunaamdjwemxpmmtypi.jpg,00791941205fa_sunagrmyoovzukhxmlo.jpg,00126931230fb.jpg,sunaamdjwemxpmmtypi.jpg,00791941205fa.jpg,sunagrmyoovzukhxmlo.jpg,,,>,Place,,,,,1,,,,,,
203,tsk,Presentation,4,00978960627fa_sunbddbivbptlrlauhy.jpg,00862940307fa_sunaizgnnplsvajzhkc.jpg,00978960627fa.jpg,sunbddbivbptlrlauhy.jpg,00862940307fa.jpg,sunaizgnnplsvajzhkc.jpg,,,>,Place,,,,,1,,,,,,
204,tsk,Presentation,4,00131931230fb_sunaangbuylfvckqqoo.jpg,00884960530fa_sunakodkcslgqhqlgwl.jpg,00131931230fb.jpg,sunaangbuylfvckqqoo.jpg,00884960530fa.jpg,sunakodkcslgqhqlgwl.jpg,,,>,Place,,,,,0,,,,,,
205,tsk,Presentation,4,00838940307fa_sunaiozxhxgtfrmoagh.jpg,00705960530fa_sunaduslxfzlbxlllnz.jpg,00838940307fa.jpg,sunaiozxhxgtfrmoagh.jpg,00705960530fa.jpg,sunaduslxfzlbxlllnz.jpg,,,>,Place,,,,,1,,,,,,
206,tsk,Presentation,4,01005960627fa_sunbwyuesflwdpqtgoy.jpg,00772941201fa_sunafpfpiiujzoesnqg.jpg,01005960627fa.jpg,sunbwyuesflwdpqtgoy.jpg,00772941201fa.jpg,sunafpfpiiujzoesnqg.jpg,,,>,Place,,,,,1,,,,,,
207,tsk,Presentation,4,00564940928fa_sunacmpqqfbsvlzinzl.jpg,00095931230fa_sunaahzooisqkwlxwoz.jpg,00564940928fa.jpg,sunacmpqqfbsvlzinzl.jpg,00095931230fa.jpg,sunaahzooisqkwlxwoz.jpg,,,>,Place,,,,,1,,,,,,
208,tsk,Presentation,4,00725941201fa_sunaefgzwiramypjvtd.jpg,00227940128fa_sunabckqabszusgcykj.jpg,00725941201fa.jpg,sunaefgzwiramypjvtd.jpg,00227940128fa.jpg,sunabckqabszusgcykj.jpg,,,>,Place,,,,,1,,,,,,
209,tsk,Presentation,4,00768941205fa_sunafkmnlytenlsywia.jpg,00144931230fb_sunaathajvxrgptwhoj.jpg,00768941205fa.jpg,sunafkmnlytenlsywia.jpg,00144931230fb.jpg,sunaathajvxrgptwhoj.jpg,,,>,Place,,,,,1,,,,,,
210,tsk,Memory,4,,,,,,,00791941205fa.jpg,,,,,,,,,,,,,,
211,tsk,Memory,4,,,,,,,sunaaiqiqcggrskoqgy.jpg,,,,,,,,,,,,,,
212,tsk,Memory,4,,,,,,,00562941031fa.jpg,,,,,,,,,,,,,,
213,tsk,Memory,4,,,,,,,00239940128fa.jpg,,,,,,,,,,,,,,
214,tsk,Memory,4,,,,,,,sunaccdtpgenvcbcbcf.jpg,,,,,,,,,,,,,,
215,tsk,Memory,4,,,,,,,sunafkmnlytenlsywia.jpg,,,,,,,,,,,,,,
216,tsk,Memory,4,,,,,,,00790941205fa.jpg,,,,,,,,,,,,,,
217,tsk,Memory,4,,,,,,,sunaduslxfzlbxlllnz.jpg,,,,,,,,,,,,,,
218,tsk,Memory,4,,,,,,,00723941201fa.jpg,,,,,,,,,,,,,,
219,tsk,Memory,4,,,,,,,00144931230fb.jpg,,,,,,,,,,,,,,
220,tsk,Memory,4,,,,,,,00316940422fa.jpg,,,,,,,,,,,,,,
221,tsk,Memory,4,,,,,,,sunaahzooisqkwlxwoz.jpg,,,,,,,,,,,,,,
222,tsk,Memory,4,,,,,,,00532960627fa.jpg,,,,,,,,,,,,,,
223,tsk,Memory,4,,,,,,,sunabxmguapjekttvwm.jpg,,,,,,,,,,,,,,
224,tsk,Memory,4,,,,,,,00096931230fa.jpg,,,,,,,,,,,,,,
225,tsk,Memory,4,,,,,,,sunagrmyoovzukhxmlo.jpg,,,,,,,,,,,,,,
226,tsk,Memory,4,,,,,,,00705960530fa.jpg,,,,,,,,,,,,,,
227,tsk,Memory,4,,,,,,,sunaathajvxrgptwhoj.jpg,,,,,,,,,,,,,,
228,tsk,Memory,4,,,,,,,00271940422fa.jpg,,,,,,,,,,,,,,
229,tsk,Memory,4,,,,,,,sunbddbivbptlrlauhy.jpg,,,,,,,,,,,,,,
230,tsk,Memory,4,,,,,,,00564940928fa.jpg,,,,,,,,,,,,,,
231,tsk,Memory,4,,,,,,,00768941205fa.jpg,,,,,,,,,,,,,,
232,tsk,Memory,4,,,,,,,sunabmbnddafmywtjjj.jpg,,,,,,,,,,,,,,
233,tsk,Memory,4,,,,,,,01002960627fb.jpg,,,,,,,,,,,,,,
234,tsk,Memory,4,,,,,,,sunaaxjpzcnxligjtjq.jpg,,,,,,,,,,,,,,
235,tsk,Memory,4,,,,,,,00095931230fa.jpg,,,,,,,,,,,,,,
236,tsk,Memory,4,,,,,,,00126931230fb.jpg,,,,,,,,,,,,,,
237,tsk,Memory,4,,,,,,,sunacjnahdmqfnjfwqx.jpg,,,,,,,,,,,,,,
238,tsk,Memory,4,,,,,,,00984960627fa.jpg,,,,,,,,,,,,,,
239,tsk,Memory,4,,,,,,,00978960627fa.jpg,,,,,,,,,,,,,,
240,tsk,Memory,4,,,,,,,sunagpjzsbltchlwvou.jpg,,,,,,,,,,,,,,
241,tsk,Memory,4,,,,,,,sunaedtgwjvvziytspa.jpg,,,,,,,,,,,,,,
242,tsk,Memory,4,,,,,,,00193940928fa.jpg,,,,,,,,,,,,,,
243,tsk,Memory,4,,,,,,,sunbwaafjdebjzttuvq.jpg,,,,,,,,,,,,,,
244,tsk,Memory,4,,,,,,,sunabctlikybqabezjv.jpg,,,,,,,,,,,,,,
245,tsk,Memory,4,,,,,,,sunaefgzwiramypjvtd.jpg,,,,,,,,,,,,,,
246,tsk,Memory,4,,,,,,,00725941201fa.jpg,,,,,,,,,,,,,,
247,tsk,Memory,4,,,,,,,sunaamdjwemxpmmtypi.jpg,,,,,,,,,,,,,,
248,tsk,Memory,4,,,,,,,sunacmpqqfbsvlzinzl.jpg,,,,,,,,,,,,,,
249,tsk,Memory,4,,,,,,,sunbfzchmomnvzhbxdg.jpg,,,,,,,,,,,,,,
250,tsk,Presentation,5,00507940519fa_sunacacflqoyxhsqzhe.jpg,00816941205fa_sunahmhrncocyhsjpxk.jpg,00507940519fa.jpg,sunacacflqoyxhsqzhe.jpg,00816941205fa.jpg,sunahmhrncocyhsjpxk.jpg,,,<,Face,,,,,1,,,,,,
251,tsk,Presentation,5,00676941121fa_sunadpnqovzckyikrjo.jpg,00794960620fa_sunagtqhhwxjeuxdebe.jpg,00676941121fa.jpg,sunadpnqovzckyikrjo.jpg,00794960620fa.jpg,sunagtqhhwxjeuxdebe.jpg,,,<,Face,,,,,1,,,,,,
252,tsk,Presentation,5,00163931230fb_sunaavodbcpygkggnfp.jpg,00882960530fa_sunaknlirqjqiwbbeeg.jpg,00163931230fb.jpg,sunaavodbcpygkggnfp.jpg,00882960530fa.jpg,sunaknlirqjqiwbbeeg.jpg,,,<,Face,,,,,1,,,,,,
253,tsk,Presentation,5,00835940307fa_sunaijsqpvodplbwxkf.jpg,00771941205fa_sunafowswglhxcsufpo.jpg,00835940307fa.jpg,sunaijsqpvodplbwxkf.jpg,00771941205fa.jpg,sunafowswglhxcsufpo.jpg,,,<,Face,,,,,1,,,,,,
254,tsk,Presentation,5,00972960627fa_sunbbfqwjpdxniyhies.jpg,00267940128fb_sunablfqiwfqomjarht.jpg,00972960627fa.jpg,sunbbfqwjpdxniyhies.jpg,00267940128fb.jpg,sunablfqiwfqomjarht.jpg,,,<,Face,,,,,1,,,,,,
255,tsk,Presentation,5,00752960620fa_sunafbwnojpqeyzssoe.jpg,00770941201fa_sunaflojskatpeqyzqp.jpg,00752960620fa.jpg,sunafbwnojpqeyzssoe.jpg,00770941201fa.jpg,sunaflojskatpeqyzqp.jpg,,,<,Face,,,,,1,,,,,,
256,tsk,Presentation,5,00162931230fb_sunaavjinpnkappuonm.jpg,00970960627fa_sunbasypfgzjtomktmu.jpg,00162931230fb.jpg,sunaavjinpnkappuonm.jpg,00970960627fa.jpg,sunbasypfgzjtomktmu.jpg,,,<,Face,,,,,1,,,,,,
257,tsk,Presentation,5,00949960627fb_sunasnqkkyhilqkxiqm.jpg,00766960620fa_sunafijbgncijwykrnl.jpg,00949960627fb.jpg,sunasnqkkyhilqkxiqm.jpg,00766960620fa.jpg,sunafijbgncijwykrnl.jpg,,,<,Face,,,,,1,,,,,,
258,tsk,Presentation,5,00077931230fb_sunaafgqutfaishsxyu.jpg,00763941205fa_sunafhmnhsdurlvddpw.jpg,00077931230fb.jpg,sunaafgqutfaishsxyu.jpg,00763941205fa.jpg,sunafhmnhsdurlvddpw.jpg,,,<,Face,,,,,0,,,,,,
259,tsk,Presentation,5,00908960530fa_sunanwjjyqqwzqrqagd.jpg,00839940307fa_sunaipyohrqlwngaqif.jpg,00908960530fa.jpg,sunanwjjyqqwzqrqagd.jpg,00839940307fa.jpg,sunaipyohrqlwngaqif.jpg,,,<,Face,,,,,1,,,,,,
260,tsk,Memory,5,,,,,,,00574940928fa.jpg,,,,,,,,,,,,,,
261,tsk,Memory,5,,,,,,,00919960620fa.jpg,,,,,,,,,,,,,,
262,tsk,Memory,5,,,,,,,sunaawqdbpihmlbwyyn.jpg,,,,,,,,,,,,,,
263,tsk,Memory,5,,,,,,,sunaaekxzjzrfgtkwjf.jpg,,,,,,,,,,,,,,
264,tsk,Memory,5,,,,,,,sunanwjjyqqwzqrqagd.jpg,,,,,,,,,,,,,,
265,tsk,Memory,5,,,,,,,sunaafgqutfaishsxyu.jpg,,,,,,,,,,,,,,
266,tsk,Memory,5,,,,,,,00147931230fb.jpg,,,,,,,,,,,,,,
267,tsk,Memory,5,,,,,,,sunavhxgmgrqsaptynb.jpg,,,,,,,,,,,,,,
268,tsk,Memory,5,,,,,,,00770941201fa.jpg,,,,,,,,,,,,,,
269,tsk,Memory,5,,,,,,,sunbbfqwjpdxniyhies.jpg,,,,,,,,,,,,,,
270,tsk,Memory,5,,,,,,,00816941205fa.jpg,,,,,,,,,,,,,,
271,tsk,Memory,5,,,,,,,sunafowswglhxcsufpo.jpg,,,,,,,,,,,,,,
272,tsk,Memory,5,,,,,,,sunaavjinpnkappuonm.jpg,,,,,,,,,,,,,,
273,tsk,Memory,5,,,,,,,sunabppokiyglaxpcha.jpg,,,,,,,,,,,,,,
274,tsk,Memory,5,,,,,,,sunaajpqmulidejvjsr.jpg,,,,,,,,,,,,,,
275,tsk,Memory,5,,,,,,,sunaatpkocdkocwxpkb.jpg,,,,,,,,,,,,,,
276,tsk,Memory,5,,,,,,,00633940928fa.jpg,,,,,,,,,,,,,,
277,tsk,Memory,5,,,,,,,00162931230fb.jpg,,,,,,,,,,,,,,
278,tsk,Memory,5,,,,,,,sunapmfmzadmosuogaz.jpg,,,,,,,,,,,,,,
279,tsk,Memory,5,,,,,,,00794960620fa.jpg,,,,,,,,,,,,,,
280,tsk,Memory,5,,,,,,,00771941205fa.jpg,,,,,,,,,,,,,,
281,tsk,Memory,5,,,,,,,00185940422fb.jpg,,,,,,,,,,,,,,
282,tsk,Memory,5,,,,,,,00763941205fa.jpg,,,,,,,,,,,,,,
283,tsk,Memory,5,,,,,,,00077931230fb.jpg,,,,,,,,,,,,,,
284,tsk,Memory,5,,,,,,,sunaflojskatpeqyzqp.jpg,,,,,,,,,,,,,,
285,tsk,Memory,5,,,,,,,sunagtqhhwxjeuxdebe.jpg,,,,,,,,,,,,,,
286,tsk,Memory,5,,,,,,,00908960530fa.jpg,,,,,,,,,,,,,,
287,tsk,Memory,5,,,,,,,sunacvbrcejzwmcgnoq.jpg,,,,,,,,,,,,,,
288,tsk,Memory,5,,,,,,,00288940422fa.jpg,,,,,,,,,,,,,,
289,tsk,Memory,5,,,,,,,sunahmhrncocyhsjpxk.jpg,,,,,,,,,,,,,,
290,tsk,Memory,5,,,,,,,sunaavodbcpygkggnfp.jpg,,,,,,,,,,,,,,
291,tsk,Memory,5,,,,,,,00163931230fb.jpg,,,,,,,,,,,,,,
292,tsk,Memory,5,,,,,,,00098931230fa.jpg,,,,,,,,,,,,,,
293,tsk,Memory,5,,,,,,,sunagwzdbtlixdhgolm.jpg,,,,,,,,,,,,,,
294,tsk,Memory,5,,,,,,,sunadbhmrgrrpyzglxs.jpg,,,,,,,,,,,,,,
295,tsk,Memory,5,,,,,,,00061931230fb.jpg,,,,,,,,,,,,,,
296,tsk,Memory,5,,,,,,,00805941205fa.jpg,,,,,,,,,,,,,,
297,tsk,Memory,5,,,,,,,sunafhmnhsdurlvddpw.jpg,,,,,,,,,,,,,,
298,tsk,Memory,5,,,,,,,00972960627fa.jpg,,,,,,,,,,,,,,
299,tsk,Memory,5,,,,,,,00957960627fa.jpg,,,,,,,,,,,,,,
300,tsk,Presentation,6,00877960530fa_sunajxpkuhbizeveguy.jpg,00753941201fa_sunafcofuuzebuadceo.jpg,00877960530fa.jpg,sunajxpkuhbizeveguy.jpg,00753941201fa.jpg,sunafcofuuzebuadceo.jpg,,,<,Place,,,,,1,,,,,,
301,tsk,Presentation,6,00906960530fa_sunantryfbloeaomfta.jpg,00971960627fa_sunbbegcweqnetpdlrh.jpg,00906960530fa.jpg,sunantryfbloeaomfta.jpg,00971960627fa.jpg,sunbbegcweqnetpdlrh.jpg,,,<,Place,,,,,1,,,,,,
302,tsk,Presentation,6,00598940928fa_sunacxeheuiigkcgquf.jpg,00263940128fb_sunabjuovqvyfuzvqwt.jpg,00598940928fa.jpg,sunacxeheuiigkcgquf.jpg,00263940128fb.jpg,sunabjuovqvyfuzvqwt.jpg,,,<,Place,,,,,1,,,,,,
303,tsk,Presentation,6,00859940307fa_sunaiycurtqsfkvcaso.jpg,00589940928fa_sunacwggadqsfpovdjv.jpg,00859940307fa.jpg,sunaiycurtqsfkvcaso.jpg,00589940928fa.jpg,sunacwggadqsfpovdjv.jpg,,,<,Place,,,,,1,,,,,,
304,tsk,Presentation,6,00080931230fb_sunaafjszryxyavjzln.jpg,00730960620fa_sunaekgzpfilgjxpeyq.jpg,00080931230fb.jpg,sunaafjszryxyavjzln.jpg,00730960620fa.jpg,sunaekgzpfilgjxpeyq.jpg,,,<,Place,,,,,1,,,,,,
305,tsk,Presentation,6,00576941031fa_sunacvjlsylseoghjup.jpg,00115931230fa_sunaakmxzhuceuiryah.jpg,00576941031fa.jpg,sunacvjlsylseoghjup.jpg,00115931230fa.jpg,sunaakmxzhuceuiryah.jpg,,,<,Place,,,,,1,,,,,,
306,tsk,Presentation,6,00557940519fa_sunachtuarilwyqnvjx.jpg,00878960530fa_sunakgbnzxmfohgehnu.jpg,00557940519fa.jpg,sunachtuarilwyqnvjx.jpg,00878960530fa.jpg,sunakgbnzxmfohgehnu.jpg,,,<,Place,,,,,1,,,,,,
307,tsk,Presentation,6,00936960627fa_sunaqgjuuwvdcyiccjt.jpg,00910960530fa_sunaofikylqtxphvdem.jpg,00936960627fa.jpg,sunaqgjuuwvdcyiccjt.jpg,00910960530fa.jpg,sunaofikylqtxphvdem.jpg,,,<,Place,,,,,1,,,,,,
308,tsk,Presentation,6,00776941205fa_sunafxokyavhgptyfye.jpg,00747941201fa_sunaeutbrtswvsozxyk.jpg,00776941205fa.jpg,sunafxokyavhgptyfye.jpg,00747941201fa.jpg,sunaeutbrtswvsozxyk.jpg,,,<,Place,,,,,1,,,,,,
309,tsk,Presentation,6,00786941205fa_sunagmhildamktmqjss.jpg,00191940128fb_sunaawsdjisukbbginm.jpg,00786941205fa.jpg,sunagmhildamktmqjss.jpg,00191940128fb.jpg,sunaawsdjisukbbginm.jpg,,,<,Place,,,,,1,,,,,,
310,tsk,Memory,6,,,,,,,sunakwlvxjpddialozd.jpg,,,,,,,,,,,,,,
311,tsk,Memory,6,,,,,,,00191940128fb.jpg,,,,,,,,,,,,,,
312,tsk,Memory,6,,,,,,,sunabzjxlmkwnwzimua.jpg,,,,,,,,,,,,,,
313,tsk,Memory,6,,,,,,,00747941201fa.jpg,,,,,,,,,,,,,,
314,tsk,Memory,6,,,,,,,sunaqgjuuwvdcyiccjt.jpg,,,,,,,,,,,,,,
315,tsk,Memory,6,,,,,,,00080931230fb.jpg,,,,,,,,,,,,,,
316,tsk,Memory,6,,,,,,,00977960627fa.jpg,,,,,,,,,,,,,,
317,tsk,Memory,6,,,,,,,00786941205fa.jpg,,,,,,,,,,,,,,
318,tsk,Memory,6,,,,,,,sunaawsdjisukbbginm.jpg,,,,,,,,,,,,,,
319,tsk,Memory,6,,,,,,,00498960627fa.jpg,,,,,,,,,,,,,,
320,tsk,Memory,6,,,,,,,00936960627fa.jpg,,,,,,,,,,,,,,
321,tsk,Memory,6,,,,,,,00082931230fa.jpg,,,,,,,,,,,,,,
322,tsk,Memory,6,,,,,,,00800941205fb.jpg,,,,,,,,,,,,,,
323,tsk,Memory,6,,,,,,,sunaajtnvzzpsjdzres.jpg,,,,,,,,,,,,,,
324,tsk,Memory,6,,,,,,,sunaafvitpexrpvumsa.jpg,,,,,,,,,,,,,,
325,tsk,Memory,6,,,,,,,00859940307fa.jpg,,,,,,,,,,,,,,
326,tsk,Memory,6,,,,,,,sunbbxkanhzjgbwyxqs.jpg,,,,,,,,,,,,,,
327,tsk,Memory,6,,,,,,,00885960530fa.jpg,,,,,,,,,,,,,,
328,tsk,Memory,6,,,,,,,sunaeutbrtswvsozxyk.jpg,,,,,,,,,,,,,,
329,tsk,Memory,6,,,,,,,00910960530fa.jpg,,,,,,,,,,,,,,
330,tsk,Memory,6,,,,,,,sunajxpkuhbizeveguy.jpg,,,,,,,,,,,,,,
331,tsk,Memory,6,,,,,,,00795941205fa.jpg,,,,,,,,,,,,,,
332,tsk,Memory,6,,,,,,,sunaamvxnvouicstkjb.jpg,,,,,,,,,,,,,,
333,tsk,Memory,6,,,,,,,00819940307fa.jpg,,,,,,,,,,,,,,
334,tsk,Memory,6,,,,,,,00263940128fb.jpg,,,,,,,,,,,,,,
335,tsk,Memory,6,,,,,,,sunaafjszryxyavjzln.jpg,,,,,,,,,,,,,,
336,tsk,Memory,6,,,,,,,sunaiycurtqsfkvcaso.jpg,,,,,,,,,,,,,,
337,tsk,Memory,6,,,,,,,sunbaejotfklekvpxcz.jpg,,,,,,,,,,,,,,
338,tsk,Memory,6,,,,,,,00877960530fa.jpg,,,,,,,,,,,,,,
339,tsk,Memory,6,,,,,,,sunahqldjibofgsfdgb.jpg,,,,,,,,,,,,,,
340,tsk,Memory,6,,,,,,,00878960530fa.jpg,,,,,,,,,,,,,,
341,tsk,Memory,6,,,,,,,00130931230fa.jpg,,,,,,,,,,,,,,
342,tsk,Memory,6,,,,,,,sunabjuovqvyfuzvqwt.jpg,,,,,,,,,,,,,,
343,tsk,Memory,6,,,,,,,sunagtumacdlmciqamz.jpg,,,,,,,,,,,,,,
344,tsk,Memory,6,,,,,,,00967960627fa.jpg,,,,,,,,,,,,,,
345,tsk,Memory,6,,,,,,,sunagmhildamktmqjss.jpg,,,,,,,,,,,,,,
346,tsk,Memory,6,,,,,,,sunagvjurcwdbixvnyi.jpg,,,,,,,,,,,,,,
347,tsk,Memory,6,,,,,,,sunakgbnzxmfohgehnu.jpg,,,,,,,,,,,,,,
348,tsk,Memory,6,,,,,,,sunaofikylqtxphvdem.jpg,,,,,,,,,,,,,,
349,tsk,Memory,6,,,,,,,00108960530fa.jpg,,,,,,,,,,,,,,
350,tsk,Presentation,7,00630941031fa_sunadakkdovnuzlycvp.jpg,00891960530fa_sunalkiibhqpxfamlll.jpg,00630941031fa.jpg,sunadakkdovnuzlycvp.jpg,00891960530fa.jpg,sunalkiibhqpxfamlll.jpg,,,>,Place,,,,,0,,,,,,
351,tsk,Presentation,7,00294940422fb_sunabrlndkruqokhury.jpg,00122931230fa_sunaakxjfbrrequcjmx.jpg,00294940422fb.jpg,sunabrlndkruqokhury.jpg,00122931230fa.jpg,sunaakxjfbrrequcjmx.jpg,,,>,Place,,,,,1,,,,,,
352,tsk,Presentation,7,00811960530fa_sunahedfrhtcwpneund.jpg,00773941201fa_sunafvcflzhlqloapyo.jpg,00811960530fa.jpg,sunahedfrhtcwpneund.jpg,00773941201fa.jpg,sunafvcflzhlqloapyo.jpg,,,>,Place,,,,,1,,,,,,
353,tsk,Presentation,7,00149931230fa_sunaauglwmctnkxyird.jpg,00815941205fa_sunahiphsekjihkafsl.jpg,00149931230fa.jpg,sunaauglwmctnkxyird.jpg,00815941205fa.jpg,sunahiphsekjihkafsl.jpg,,,>,Place,,,,,1,,,,,,
354,tsk,Presentation,7,00262940128fa_sunabizydfotqddlnjp.jpg,00925960627fa_sunapqwnqzxlsfvgsjm.jpg,00262940128fa.jpg,sunabizydfotqddlnjp.jpg,00925960627fa.jpg,sunapqwnqzxlsfvgsjm.jpg,,,>,Place,,,,,1,,,,,,
355,tsk,Presentation,7,00796941205fa_sunaguchqqnrtodtezq.jpg,00952960627fa_sunathzzbcwjykldrem.jpg,00796941205fa.jpg,sunaguchqqnrtodtezq.jpg,00952960627fa.jpg,sunathzzbcwjykldrem.jpg,,,>,Place,,,,,1,,,,,,
356,tsk,Presentation,7,00119931230fb_sunaakvmbftkrgqhjun.jpg,00950960627fa_sunasrjlmglmjzbmqxb.jpg,00119931230fb.jpg,sunaakvmbftkrgqhjun.jpg,00950960627fa.jpg,sunasrjlmglmjzbmqxb.jpg,,,>,Place,,,,,0,,,,,,
357,tsk,Presentation,7,00996960627fa_sunbpvgllfdejxcpjqp.jpg,00210940128fb_sunabanoxjtqxamkucc.jpg,00996960627fa.jpg,sunbpvgllfdejxcpjqp.jpg,00210940128fb.jpg,sunabanoxjtqxamkucc.jpg,,,>,Place,,,,,1,,,,,,
358,tsk,Presentation,7,00719960620fa_sunadzuvtmtmgupotmf.jpg,00799941205fa_sunagutjvdvnhxejerz.jpg,00719960620fa.jpg,sunadzuvtmtmgupotmf.jpg,00799941205fa.jpg,sunagutjvdvnhxejerz.jpg,,,>,Place,,,,,1,,,,,,
359,tsk,Presentation,7,00663941121fa_sunadnjjzohjhbohlwq.jpg,00670941121fa_sunadochqcucscehsgk.jpg,00663941121fa.jpg,sunadnjjzohjhbohlwq.jpg,00670941121fa.jpg,sunadochqcucscehsgk.jpg,,,>,Place,,,,,1,,,,,,
360,tsk,Memory,7,,,,,,,00149931230fa.jpg,,,,,,,,,,,,,,
361,tsk,Memory,7,,,,,,,sunahedfrhtcwpneund.jpg,,,,,,,,,,,,,,
362,tsk,Memory,7,,,,,,,sunadzuvtmtmgupotmf.jpg,,,,,,,,,,,,,,
363,tsk,Memory,7,,,,,,,00081941031fa.jpg,,,,,,,,,,,,,,
364,tsk,Memory,7,,,,,,,sunadfktsqjthoglcsm.jpg,,,,,,,,,,,,,,
365,tsk,Memory,7,,,,,,,sunaauglwmctnkxyird.jpg,,,,,,,,,,,,,,
366,tsk,Memory,7,,,,,,,00925960627fa.jpg,,,,,,,,,,,,,,
367,tsk,Memory,7,,,,,,,sunabzuqsrgcsonqlkz.jpg,,,,,,,,,,,,,,
368,tsk,Memory,7,,,,,,,00815941205fa.jpg,,,,,,,,,,,,,,
369,tsk,Memory,7,,,,,,,sunabkmdplkdbvxriff.jpg,,,,,,,,,,,,,,
370,tsk,Memory,7,,,,,,,sunahiphsekjihkafsl.jpg,,,,,,,,,,,,,,
371,tsk,Memory,7,,,,,,,sunbvzmgrdvaakxusbu.jpg,,,,,,,,,,,,,,
372,tsk,Memory,7,,,,,,,sunaaftlyfudyzuhqzf.jpg,,,,,,,,,,,,,,
373,tsk,Memory,7,,,,,,,00911960530fa.jpg,,,,,,,,,,,,,,
374,tsk,Memory,7,,,,,,,00505960627fa.jpg,,,,,,,,,,,,,,
375,tsk,Memory,7,,,,,,,00122931230fa.jpg,,,,,,,,,,,,,,
376,tsk,Memory,7,,,,,,,00799941205fa.jpg,,,,,,,,,,,,,,
377,tsk,Memory,7,,,,,,,sunauburywlkjszngcq.jpg,,,,,,,,,,,,,,
378,tsk,Memory,7,,,,,,,sunadnjjzohjhbohlwq.jpg,,,,,,,,,,,,,,
379,tsk,Memory,7,,,,,,,00663941121fa.jpg,,,,,,,,,,,,,,
380,tsk,Memory,7,,,,,,,00638941031fa.jpg,,,,,,,,,,,,,,
381,tsk,Memory,7,,,,,,,sunaguchqqnrtodtezq.jpg,,,,,,,,,,,,,,
382,tsk,Memory,7,,,,,,,sunaakxjfbrrequcjmx.jpg,,,,,,,,,,,,,,
383,tsk,Memory,7,,,,,,,sunapqwnqzxlsfvgsjm.jpg,,,,,,,,,,,,,,
384,tsk,Memory,7,,,,,,,00857940307fa.jpg,,,,,,,,,,,,,,
385,tsk,Memory,7,,,,,,,00796941205fa.jpg,,,,,,,,,,,,,,
386,tsk,Memory,7,,,,,,,sunabbafjowbzcvbucc.jpg,,,,,,,,,,,,,,
387,tsk,Memory,7,,,,,,,00773941201fa.jpg,,,,,,,,,,,,,,
388,tsk,Memory,7,,,,,,,sunafvcflzhlqloapyo.jpg,,,,,,,,,,,,,,
389,tsk,Memory,7,,,,,,,sunaiwfobocrruqznsv.jpg,,,,,,,,,,,,,,
390,tsk,Memory,7,,,,,,,00965960627fa.jpg,,,,,,,,,,,,,,
391,tsk,Memory,7,,,,,,,00955960627fb.jpg,,,,,,,,,,,,,,
392,tsk,Memory,7,,,,,,,00214940128fa.jpg,,,,,,,,,,,,,,
393,tsk,Memory,7,,,,,,,00811960530fa.jpg,,,,,,,,,,,,,,
394,tsk,Memory,7,,,,,,,sunaydywdmvlfddbxbk.jpg,,,,,,,,,,,,,,
395,tsk,Memory,7,,,,,,,00719960620fa.jpg,,,,,,,,,,,,,,
396,tsk,Memory,7,,,,,,,01000960627fa.jpg,,,,,,,,,,,,,,
397,tsk,Memory,7,,,,,,,sunaooaqzputrowwbsw.jpg,,,,,,,,,,,,,,
398,tsk,Memory,7,,,,,,,sunagutjvdvnhxejerz.jpg,,,,,,,,,,,,,,
399,tsk,Memory,7,,,,,,,00265940128fb.jpg,,,,,,,,,,,,,,
