,Subject,Trial Type,Run,Cued Composite,Uncued Composite,Cued Face,Cued Place,Uncued Face,Uncued Place,Memory Image,Category,Cued Side,Cued Category,Attention Response Time (s),Familiarity Reaction Time (s),Familiarity Rating,Attention Level,Cue Validity,Post Invalid Cue,Pre Invalid Cue,Attention Button,Rating History,Stimulus Onset,Stimulus End,Attention Probe
0,8,Presentation,0,00700941121fa_sunadsgmtznewzyasnk.jpg,00906960530fa_sunantryfbloeaomfta.jpg,,,,,,,>,Place,,,,,1,,,,,,,o
1,8,Presentation,0,00785941205fa_sunaglqunwuycxydmyu.jpg,00162931230fb_sunaavjinpnkappuonm.jpg,,,,,,,<,Face,,,,,1,,,,,,,o
2,8,Presentation,0,00914960620fa_sunaozisvwfbmlkfhzv.jpg,00895960530fa_sunamczizlzavhzhpay.jpg,,,,,,,>,Face,,,,,1,,,,,,,o
3,8,Presentation,0,00132931230fb_sunaanjcbzdvtvblsdy.jpg,00800941205fb_sunagvjurcwdbixvnyi.jpg,,,,,,,<,Face,,,,,1,,,,,,,o
4,8,Presentation,0,00959960627fa_sunavxokzybtomhbmvm.jpg,00939960627fa_sunarceibpcyacbmfga.jpg,,,,,,,>,Place,,,,,1,,,,,,,o
5,8,Presentation,0,00936960627fa_sunaqgjuuwvdcyiccjt.jpg,00719941201fa_sunadvithllcgmfxsrn.jpg,,,,,,,<,Place,,,,,1,,,,,,,o
6,8,Presentation,0,00276940422fa_sunabmytpyhsgigllxu.jpg,00794960620fa_sunagtqhhwxjeuxdebe.jpg,,,,,,,<,Face,,,,,1,,,,,,,x
7,8,Presentation,0,01011960627fa_sundahdxwmcdluscvot.jpg,00505960627fa_sunabzuqsrgcsonqlkz.jpg,,,,,,,>,Face,,,,,1,,,,,,,o
8,8,Presentation,0,00568940928fa_sunacsdhbbsybcyxnel.jpg,00829940307fa_sunahwgbqkqcrwprgvh.jpg,,,,,,,>,Place,,,,,1,,,,,,,o
9,8,Presentation,0,00063931230fa_sunaaelyvurpntclgau.jpg,00787960620fa_sunagoufulkpsxrmklt.jpg,,,,,,,<,Place,,,,,1,,,,,,,x
10,8,Memory,0,,,,,,,sunamlotskmmsjeogby.jpg,,,,,,,,,,,,,,,
11,8,Memory,0,,,,,,,00296940422fa.jpg,,,,,,,,,,,,,,,
12,8,Memory,0,,,,,,,00700941121fa.jpg,,,,,,,,,,,,,,,
13,8,Memory,0,,,,,,,00829940307fa.jpg,,,,,,,,,,,,,,,
14,8,Memory,0,,,,,,,sunaanjcbzdvtvblsdy.jpg,,,,,,,,,,,,,,,
15,8,Memory,0,,,,,,,sunabmytpyhsgigllxu.jpg,,,,,,,,,,,,,,,
16,8,Memory,0,,,,,,,sunaqbmgkgqucajzrkp.jpg,,,,,,,,,,,,,,,
17,8,Memory,0,,,,,,,sunadsgmtznewzyasnk.jpg,,,,,,,,,,,,,,,
18,8,Memory,0,,,,,,,sunabzuqsrgcsonqlkz.jpg,,,,,,,,,,,,,,,
19,8,Memory,0,,,,,,,00132931230fb.jpg,,,,,,,,,,,,,,,
20,8,Memory,0,,,,,,,sunabgfhvifeijihhjw.jpg,,,,,,,,,,,,,,,
21,8,Memory,0,,,,,,,sunahwgbqkqcrwprgvh.jpg,,,,,,,,,,,,,,,
22,8,Memory,0,,,,,,,00728941205fa.jpg,,,,,,,,,,,,,,,
23,8,Memory,0,,,,,,,sunaejnvnpltdmhbcsi.jpg,,,,,,,,,,,,,,,
24,8,Memory,0,,,,,,,sunajoveqhiprwqgoco.jpg,,,,,,,,,,,,,,,
25,8,Memory,0,,,,,,,sunavxokzybtomhbmvm.jpg,,,,,,,,,,,,,,,
26,8,Memory,0,,,,,,,00900960530fa.jpg,,,,,,,,,,,,,,,
27,8,Memory,0,,,,,,,sunaavjinpnkappuonm.jpg,,,,,,,,,,,,,,,
28,8,Memory,0,,,,,,,sunaffstbkappprzxnv.jpg,,,,,,,,,,,,,,,
29,8,Memory,0,,,,,,,00959960627fa.jpg,,,,,,,,,,,,,,,
30,8,Memory,0,,,,,,,00631940928fa.jpg,,,,,,,,,,,,,,,
31,8,Memory,0,,,,,,,00260940128fa.jpg,,,,,,,,,,,,,,,
32,8,Memory,0,,,,,,,sunarceibpcyacbmfga.jpg,,,,,,,,,,,,,,,
33,8,Memory,0,,,,,,,00935960627fa.jpg,,,,,,,,,,,,,,,
34,8,Memory,0,,,,,,,sunabrwnslxalcohfre.jpg,,,,,,,,,,,,,,,
35,8,Memory,0,,,,,,,01011960627fa.jpg,,,,,,,,,,,,,,,
36,8,Memory,0,,,,,,,sunaeisnjeetzmkbuad.jpg,,,,,,,,,,,,,,,
37,8,Memory,0,,,,,,,00505960627fa.jpg,,,,,,,,,,,,,,,
38,8,Memory,0,,,,,,,sunabbafjowbzcvbucc.jpg,,,,,,,,,,,,,,,
39,8,Memory,0,,,,,,,00162931230fb.jpg,,,,,,,,,,,,,,,
40,8,Memory,0,,,,,,,00869940307fa.jpg,,,,,,,,,,,,,,,
41,8,Memory,0,,,,,,,00727941205fa.jpg,,,,,,,,,,,,,,,
42,8,Memory,0,,,,,,,00895960530fa.jpg,,,,,,,,,,,,,,,
43,8,Memory,0,,,,,,,00760960620fa.jpg,,,,,,,,,,,,,,,
44,8,Memory,0,,,,,,,00276940422fa.jpg,,,,,,,,,,,,,,,
45,8,Memory,0,,,,,,,00939960627fa.jpg,,,,,,,,,,,,,,,
46,8,Memory,0,,,,,,,sundahdxwmcdluscvot.jpg,,,,,,,,,,,,,,,
47,8,Memory,0,,,,,,,sunamczizlzavhzhpay.jpg,,,,,,,,,,,,,,,
48,8,Memory,0,,,,,,,sunadbdqzigzwipuipr.jpg,,,,,,,,,,,,,,,
49,8,Memory,0,,,,,,,00214940128fa.jpg,,,,,,,,,,,,,,,
50,8,Presentation,1,01010960627fa_suncnkvbhypnivcohyx.jpg,00788941205fa_sunagountlxpzkytsmp.jpg,,,,,,,<,Place,,,,,1,,,,,,,o
51,8,Presentation,1,00870940307fa_sunajrgtewnualfcerj.jpg,00860940307fa_sunaizeyhvjzknwjudw.jpg,,,,,,,<,Face,,,,,1,,,,,,,x
52,8,Presentation,1,00070940307fa_sunaaeplwsfslcbtojr.jpg,00894960620fa_sunalqmfgeadpqsyzpd.jpg,,,,,,,>,Face,,,,,0,,,,,,,x
53,8,Presentation,1,00957960627fa_sunavhxgmgrqsaptynb.jpg,00947960627fa_sunasmmcxdddtmtazwx.jpg,,,,,,,>,Place,,,,,1,,,,,,,o
54,8,Presentation,1,00825940307fa_sunahrltmuwbiehihpe.jpg,00125931230fa_sunaalltyvjhbzhkmvg.jpg,,,,,,,<,Place,,,,,1,,,,,,,x
55,8,Presentation,1,00095931230fa_sunaahzooisqkwlxwoz.jpg,00857940307fa_sunaiwfobocrruqznsv.jpg,,,,,,,<,Face,,,,,1,,,,,,,x
56,8,Presentation,1,00839940307fa_sunaipyohrqlwngaqif.jpg,00810941205fa_sunahctntqrunhdxhtb.jpg,,,,,,,>,Place,,,,,1,,,,,,,x
57,8,Presentation,1,00089931230fa_sunaagcpoejbuzyvddd.jpg,01003960627fb_sunbwdrdvsweerwsdrj.jpg,,,,,,,<,Face,,,,,0,,,,,,,o
58,8,Presentation,1,00880960530fa_sunakmnfgklupjijsgf.jpg,00705941205fa_sunadtlxenqqxsyjvix.jpg,,,,,,,>,Place,,,,,0,,,,,,,o
59,8,Presentation,1,00112931230fa_sunaakjaacuzulqckgl.jpg,00670941121fa_sunadochqcucscehsgk.jpg,,,,,,,>,Face,,,,,1,,,,,,,x
60,8,Memory,1,,,,,,,sunacepzfrmtkiqonpy.jpg,,,,,,,,,,,,,,,
61,8,Memory,1,,,,,,,00730960620fa.jpg,,,,,,,,,,,,,,,
62,8,Memory,1,,,,,,,00112931230fa.jpg,,,,,,,,,,,,,,,
63,8,Memory,1,,,,,,,01003960627fb.jpg,,,,,,,,,,,,,,,
64,8,Memory,1,,,,,,,sunaipyohrqlwngaqif.jpg,,,,,,,,,,,,,,,
65,8,Memory,1,,,,,,,01004960627fa.jpg,,,,,,,,,,,,,,,
66,8,Memory,1,,,,,,,sunbwtlihsuptkrckid.jpg,,,,,,,,,,,,,,,
67,8,Memory,1,,,,,,,sunahiphsekjihkafsl.jpg,,,,,,,,,,,,,,,
68,8,Memory,1,,,,,,,00815941205fa.jpg,,,,,,,,,,,,,,,
69,8,Memory,1,,,,,,,sunaakjaacuzulqckgl.jpg,,,,,,,,,,,,,,,
70,8,Memory,1,,,,,,,sunaizeyhvjzknwjudw.jpg,,,,,,,,,,,,,,,
71,8,Memory,1,,,,,,,00262940128fa.jpg,,,,,,,,,,,,,,,
72,8,Memory,1,,,,,,,01010960627fa.jpg,,,,,,,,,,,,,,,
73,8,Memory,1,,,,,,,sunbwdrdvsweerwsdrj.jpg,,,,,,,,,,,,,,,
74,8,Memory,1,,,,,,,sunavhxgmgrqsaptynb.jpg,,,,,,,,,,,,,,,
75,8,Memory,1,,,,,,,sunagountlxpzkytsmp.jpg,,,,,,,,,,,,,,,
76,8,Memory,1,,,,,,,sunabtlfmiwtljmoues.jpg,,,,,,,,,,,,,,,
77,8,Memory,1,,,,,,,00302940422fa.jpg,,,,,,,,,,,,,,,
78,8,Memory,1,,,,,,,00694941121fa.jpg,,,,,,,,,,,,,,,
79,8,Memory,1,,,,,,,00543940519fa.jpg,,,,,,,,,,,,,,,
80,8,Memory,1,,,,,,,00839940307fa.jpg,,,,,,,,,,,,,,,
81,8,Memory,1,,,,,,,00921960627fa.jpg,,,,,,,,,,,,,,,
82,8,Memory,1,,,,,,,00788941205fa.jpg,,,,,,,,,,,,,,,
83,8,Memory,1,,,,,,,00095931230fa.jpg,,,,,,,,,,,,,,,
84,8,Memory,1,,,,,,,00894960620fa.jpg,,,,,,,,,,,,,,,
85,8,Memory,1,,,,,,,00670941121fa.jpg,,,,,,,,,,,,,,,
86,8,Memory,1,,,,,,,00860940307fa.jpg,,,,,,,,,,,,,,,
87,8,Memory,1,,,,,,,sunawksfbacycuhbrsc.jpg,,,,,,,,,,,,,,,
88,8,Memory,1,,,,,,,sunaahzooisqkwlxwoz.jpg,,,,,,,,,,,,,,,
89,8,Memory,1,,,,,,,sunabizydfotqddlnjp.jpg,,,,,,,,,,,,,,,
90,8,Memory,1,,,,,,,sunadochqcucscehsgk.jpg,,,,,,,,,,,,,,,
91,8,Memory,1,,,,,,,sunalqmfgeadpqsyzpd.jpg,,,,,,,,,,,,,,,
92,8,Memory,1,,,,,,,sunapqkpqdfvxlbqwyo.jpg,,,,,,,,,,,,,,,
93,8,Memory,1,,,,,,,00960960627fa.jpg,,,,,,,,,,,,,,,
94,8,Memory,1,,,,,,,sunaekgzpfilgjxpeyq.jpg,,,,,,,,,,,,,,,
95,8,Memory,1,,,,,,,sunadrmfzmstgdjdcod.jpg,,,,,,,,,,,,,,,
96,8,Memory,1,,,,,,,00957960627fa.jpg,,,,,,,,,,,,,,,
97,8,Memory,1,,,,,,,00752960620fa.jpg,,,,,,,,,,,,,,,
98,8,Memory,1,,,,,,,sunafbwnojpqeyzssoe.jpg,,,,,,,,,,,,,,,
99,8,Memory,1,,,,,,,suncnkvbhypnivcohyx.jpg,,,,,,,,,,,,,,,
100,8,Presentation,2,00819940307fa_sunahqldjibofgsfdgb.jpg,00097931230fa_sunaajayojuslbbnneg.jpg,,,,,,,>,Place,,,,,1,,,,,,,x
101,8,Presentation,2,00827940307fa_sunahtfxgsrmkiulnwk.jpg,00753941201fa_sunafcofuuzebuadceo.jpg,,,,,,,>,Face,,,,,1,,,,,,,o
102,8,Presentation,2,00071941031fa_sunaaexqbtdswxrqjvz.jpg,00986960627fa_sunbgzjryivyczuvkvm.jpg,,,,,,,<,Face,,,,,1,,,,,,,o
103,8,Presentation,2,00598941031fa_sunacxtcahkymosigud.jpg,00818940307fa_sunahpblecxtmuzkmxb.jpg,,,,,,,<,Place,,,,,1,,,,,,,o
104,8,Presentation,2,00750941201fa_sunaeuzwggvibufclwf.jpg,00221940128fa_sunabcfpwlpolnutyju.jpg,,,,,,,<,Face,,,,,0,,,,,,,x
105,8,Presentation,2,00270940422fb_sunabllobxadqcyttej.jpg,00858940307fa_sunaixpqndlwhwjtjek.jpg,,,,,,,<,Place,,,,,1,,,,,,,o
106,8,Presentation,2,00598940928fa_sunacxeheuiigkcgquf.jpg,00060931230fa_sunaaehaikpckyjsety.jpg,,,,,,,>,Face,,,,,1,,,,,,,o
107,8,Presentation,2,00638941031fa_sunadfktsqjthoglcsm.jpg,00993960627fa_sunbprywzqxjcezkbch.jpg,,,,,,,<,Place,,,,,1,,,,,,,o
108,8,Presentation,2,01005960627fa_sunbwyuesflwdpqtgoy.jpg,00973960627fa_sunbbgtoeuzierkkajt.jpg,,,,,,,>,Face,,,,,1,,,,,,,x
109,8,Presentation,2,00554940519fa_sunacfdkbsrughwqwtt.jpg,00314940422fa_sunabwmcbaxwioksdgw.jpg,,,,,,,>,Place,,,,,1,,,,,,,x
110,8,Memory,2,,,,,,,sunaaehaikpckyjsety.jpg,,,,,,,,,,,,,,,
111,8,Memory,2,,,,,,,00993960627fa.jpg,,,,,,,,,,,,,,,
112,8,Memory,2,,,,,,,00108960530fa.jpg,,,,,,,,,,,,,,,
113,8,Memory,2,,,,,,,sunbtpilbhhbmhmeuzq.jpg,,,,,,,,,,,,,,,
114,8,Memory,2,,,,,,,00221940128fa.jpg,,,,,,,,,,,,,,,
115,8,Memory,2,,,,,,,sunacxeheuiigkcgquf.jpg,,,,,,,,,,,,,,,
116,8,Memory,2,,,,,,,sunabcfpwlpolnutyju.jpg,,,,,,,,,,,,,,,
117,8,Memory,2,,,,,,,sunbprywzqxjcezkbch.jpg,,,,,,,,,,,,,,,
118,8,Memory,2,,,,,,,00754941201fa.jpg,,,,,,,,,,,,,,,
119,8,Memory,2,,,,,,,00783941205fa.jpg,,,,,,,,,,,,,,,
120,8,Memory,2,,,,,,,00097931230fa.jpg,,,,,,,,,,,,,,,
121,8,Memory,2,,,,,,,sunaixpqndlwhwjtjek.jpg,,,,,,,,,,,,,,,
122,8,Memory,2,,,,,,,00210940128fb.jpg,,,,,,,,,,,,,,,
123,8,Memory,2,,,,,,,sunadfktsqjthoglcsm.jpg,,,,,,,,,,,,,,,
124,8,Memory,2,,,,,,,sunaajtnvzzpsjdzres.jpg,,,,,,,,,,,,,,,
125,8,Memory,2,,,,,,,00997960627fa.jpg,,,,,,,,,,,,,,,
126,8,Memory,2,,,,,,,00772941201fa.jpg,,,,,,,,,,,,,,,
127,8,Memory,2,,,,,,,sunaajqmsaavkmgbsth.jpg,,,,,,,,,,,,,,,
128,8,Memory,2,,,,,,,01005960627fa.jpg,,,,,,,,,,,,,,,
129,8,Memory,2,,,,,,,00966960627fa.jpg,,,,,,,,,,,,,,,
130,8,Memory,2,,,,,,,sunaaxjpzcnxligjtjq.jpg,,,,,,,,,,,,,,,
131,8,Memory,2,,,,,,,sunafpfpiiujzoesnqg.jpg,,,,,,,,,,,,,,,
132,8,Memory,2,,,,,,,00193940928fa.jpg,,,,,,,,,,,,,,,
133,8,Memory,2,,,,,,,sunaygrtwrwfezqjizr.jpg,,,,,,,,,,,,,,,
134,8,Memory,2,,,,,,,00905960530fa.jpg,,,,,,,,,,,,,,,
135,8,Memory,2,,,,,,,00598940928fa.jpg,,,,,,,,,,,,,,,
136,8,Memory,2,,,,,,,00819940307fa.jpg,,,,,,,,,,,,,,,
137,8,Memory,2,,,,,,,00060931230fa.jpg,,,,,,,,,,,,,,,
138,8,Memory,2,,,,,,,00638941031fa.jpg,,,,,,,,,,,,,,,
139,8,Memory,2,,,,,,,00858940307fa.jpg,,,,,,,,,,,,,,,
140,8,Memory,2,,,,,,,sunacfdkbsrughwqwtt.jpg,,,,,,,,,,,,,,,
141,8,Memory,2,,,,,,,sunagjeesomrwjsfqie.jpg,,,,,,,,,,,,,,,
142,8,Memory,2,,,,,,,sunabanoxjtqxamkucc.jpg,,,,,,,,,,,,,,,
143,8,Memory,2,,,,,,,sunaffgsyyvoqdlkmnk.jpg,,,,,,,,,,,,,,,
144,8,Memory,2,,,,,,,00554940519fa.jpg,,,,,,,,,,,,,,,
145,8,Memory,2,,,,,,,sunanmoqeyprjjjfxjt.jpg,,,,,,,,,,,,,,,
146,8,Memory,2,,,,,,,sunbwyuesflwdpqtgoy.jpg,,,,,,,,,,,,,,,
147,8,Memory,2,,,,,,,00101931230fb.jpg,,,,,,,,,,,,,,,
148,8,Memory,2,,,,,,,sunaajayojuslbbnneg.jpg,,,,,,,,,,,,,,,
149,8,Memory,2,,,,,,,sunahqldjibofgsfdgb.jpg,,,,,,,,,,,,,,,
150,8,Presentation,3,00633940928fa_sunadbhmrgrrpyzglxs.jpg,00766960620fa_sunafijbgncijwykrnl.jpg,,,,,,,<,Place,,,,,1,,,,,,,x
151,8,Presentation,3,00848940307fa_sunaivdylrawbmhryfp.jpg,00868960307fa_sunajjxttslobudoqbv.jpg,,,,,,,>,Place,,,,,1,,,,,,,o
152,8,Presentation,3,00245940128fa_sunabeyhmxodahoieyk.jpg,00507940519fa_sunacacflqoyxhsqzhe.jpg,,,,,,,>,Face,,,,,1,,,,,,,x
153,8,Presentation,3,00938960627fa_sunaqyylsngywqzwfmx.jpg,00803941205fa_sunagvxkjokqimstxpe.jpg,,,,,,,<,Face,,,,,1,,,,,,,x
154,8,Presentation,3,00111931230fb_sunaakgekhjklxmvulj.jpg,00789960620fa_sunagpancjmxqfazssf.jpg,,,,,,,>,Face,,,,,1,,,,,,,o
155,8,Presentation,3,00557940519fa_sunachtuarilwyqnvjx.jpg,01009960627fa_sunbxzweleltykebgan.jpg,,,,,,,>,Place,,,,,1,,,,,,,o
156,8,Presentation,3,00288940422fa_sunabppokiyglaxpcha.jpg,00926960627Fa_sunapqwoeotxshkukbh.jpg,,,,,,,<,Place,,,,,1,,,,,,,o
157,8,Presentation,3,00770941201fa_sunaflojskatpeqyzqp.jpg,00996960627fa_sunbpvgllfdejxcpjqp.jpg,,,,,,,>,Face,,,,,1,,,,,,,x
158,8,Presentation,3,00635941031fa_sunaddsaeicthrfbkhe.jpg,00119931230fb_sunaakvmbftkrgqhjun.jpg,,,,,,,<,Place,,,,,1,,,,,,,x
159,8,Presentation,3,00990960627fa_sunbpflsdaxnddnwcqi.jpg,00982960627fa_sunbesrwkdsffeogeqq.jpg,,,,,,,<,Face,,,,,1,,,,,,,x
160,8,Memory,3,,,,,,,00996960627fa.jpg,,,,,,,,,,,,,,,
161,8,Memory,3,,,,,,,00938960627fa.jpg,,,,,,,,,,,,,,,
162,8,Memory,3,,,,,,,00507940519fa.jpg,,,,,,,,,,,,,,,
163,8,Memory,3,,,,,,,00719960620fa.jpg,,,,,,,,,,,,,,,
164,8,Memory,3,,,,,,,00926960627Fa.jpg,,,,,,,,,,,,,,,
165,8,Memory,3,,,,,,,sunaivdylrawbmhryfp.jpg,,,,,,,,,,,,,,,
166,8,Memory,3,,,,,,,sunbpvgllfdejxcpjqp.jpg,,,,,,,,,,,,,,,
167,8,Memory,3,,,,,,,00741941201fa.jpg,,,,,,,,,,,,,,,
168,8,Memory,3,,,,,,,sunbgklxeqjhdbyfhhy.jpg,,,,,,,,,,,,,,,
169,8,Memory,3,,,,,,,00086931230fa.jpg,,,,,,,,,,,,,,,
170,8,Memory,3,,,,,,,sunacacflqoyxhsqzhe.jpg,,,,,,,,,,,,,,,
171,8,Memory,3,,,,,,,sunbmaiocftdtvnzgap.jpg,,,,,,,,,,,,,,,
172,8,Memory,3,,,,,,,sunaibnpvhkdpdnzcnz.jpg,,,,,,,,,,,,,,,
173,8,Memory,3,,,,,,,sunabeyhmxodahoieyk.jpg,,,,,,,,,,,,,,,
174,8,Memory,3,,,,,,,sunaemcowdozyphwknd.jpg,,,,,,,,,,,,,,,
175,8,Memory,3,,,,,,,01009960627fa.jpg,,,,,,,,,,,,,,,
176,8,Memory,3,,,,,,,sunbxzweleltykebgan.jpg,,,,,,,,,,,,,,,
177,8,Memory,3,,,,,,,sunaqyylsngywqzwfmx.jpg,,,,,,,,,,,,,,,
178,8,Memory,3,,,,,,,00093931230fa.jpg,,,,,,,,,,,,,,,
179,8,Memory,3,,,,,,,00288940422fa.jpg,,,,,,,,,,,,,,,
180,8,Memory,3,,,,,,,sunaafynehyrzpsoaml.jpg,,,,,,,,,,,,,,,
181,8,Memory,3,,,,,,,sunaflojskatpeqyzqp.jpg,,,,,,,,,,,,,,,
182,8,Memory,3,,,,,,,00985960627fa.jpg,,,,,,,,,,,,,,,
183,8,Memory,3,,,,,,,00848940307fa.jpg,,,,,,,,,,,,,,,
184,8,Memory,3,,,,,,,00197940128fa.jpg,,,,,,,,,,,,,,,
185,8,Memory,3,,,,,,,sunadzuvtmtmgupotmf.jpg,,,,,,,,,,,,,,,
186,8,Memory,3,,,,,,,00982960627fa.jpg,,,,,,,,,,,,,,,
187,8,Memory,3,,,,,,,sunaiozxhxgtfrmoagh.jpg,,,,,,,,,,,,,,,
188,8,Memory,3,,,,,,,sunabppokiyglaxpcha.jpg,,,,,,,,,,,,,,,
189,8,Memory,3,,,,,,,00245940128fa.jpg,,,,,,,,,,,,,,,
190,8,Memory,3,,,,,,,00770941201fa.jpg,,,,,,,,,,,,,,,
191,8,Memory,3,,,,,,,sunammbnoambmhdxdwd.jpg,,,,,,,,,,,,,,,
192,8,Memory,3,,,,,,,00838940307fa.jpg,,,,,,,,,,,,,,,
193,8,Memory,3,,,,,,,sunaaylzyqlqrsmfwif.jpg,,,,,,,,,,,,,,,
194,8,Memory,3,,,,,,,00901960530fa.jpg,,,,,,,,,,,,,,,
195,8,Memory,3,,,,,,,00834940307fa.jpg,,,,,,,,,,,,,,,
196,8,Memory,3,,,,,,,sunbesrwkdsffeogeqq.jpg,,,,,,,,,,,,,,,
197,8,Memory,3,,,,,,,00988960627fa.jpg,,,,,,,,,,,,,,,
198,8,Memory,3,,,,,,,sunaahwnmtqsrhocysw.jpg,,,,,,,,,,,,,,,
199,8,Memory,3,,,,,,,sunapqwoeotxshkukbh.jpg,,,,,,,,,,,,,,,
200,8,Presentation,4,00952960627fa_sunathzzbcwjykldrem.jpg,00976960627fa_sunbbhqyyzmsxhsbjmp.jpg,,,,,,,>,Face,,,,,1,,,,,,,o
201,8,Presentation,4,00790941205fa_sunagpjzsbltchlwvou.jpg,00675941121fa_sunadoxcchtmsxewsau.jpg,,,,,,,<,Face,,,,,1,,,,,,,o
202,8,Presentation,4,00090931230fa_sunaahedjlmtqekgyvj.jpg,00138931230fa_sunaapfaivxqoynnwwp.jpg,,,,,,,<,Place,,,,,1,,,,,,,x
203,8,Presentation,4,00069931230fb_sunaaeowapdkwzqpgqr.jpg,00953960627fa_sunatstrpjxhvtbaczf.jpg,,,,,,,<,Face,,,,,1,,,,,,,o
204,8,Presentation,4,00146960620fb_sunaatpeezlljqaxlhj.jpg,00109931230fa_sunaajuzribjrizdshh.jpg,,,,,,,>,Face,,,,,1,,,,,,,o
205,8,Presentation,4,00949960627fb_sunasnqkkyhilqkxiqm.jpg,00185940422fb_sunaawqdbpihmlbwyyn.jpg,,,,,,,>,Place,,,,,1,,,,,,,x
206,8,Presentation,4,00955960627fb_sunauburywlkjszngcq.jpg,00797960620fa_sunagufzbeteqdjxais.jpg,,,,,,,<,Place,,,,,0,,,,,,,o
207,8,Presentation,4,00919960620fa_sunapmfmzadmosuogaz.jpg,00786941205fa_sunagmhildamktmqjss.jpg,,,,,,,>,Face,,,,,1,,,,,,,o
208,8,Presentation,4,00836940307fa_sunainqelldeebvxtcz.jpg,00636941031fa_sunaddtdkycxbqlpfqa.jpg,,,,,,,<,Place,,,,,1,,,,,,,x
209,8,Presentation,4,00902960530fa_sunanaacmmosxrfwmvl.jpg,00129931230fb_sunaamsdyakblkfoydx.jpg,,,,,,,>,Place,,,,,1,,,,,,,x
210,8,Memory,4,,,,,,,00828940307fa.jpg,,,,,,,,,,,,,,,
211,8,Memory,4,,,,,,,sunasnqkkyhilqkxiqm.jpg,,,,,,,,,,,,,,,
212,8,Memory,4,,,,,,,sunaajuzribjrizdshh.jpg,,,,,,,,,,,,,,,
213,8,Memory,4,,,,,,,00773960620fa.jpg,,,,,,,,,,,,,,,
214,8,Memory,4,,,,,,,sunagmhildamktmqjss.jpg,,,,,,,,,,,,,,,
215,8,Memory,4,,,,,,,sunaawqdbpihmlbwyyn.jpg,,,,,,,,,,,,,,,
216,8,Memory,4,,,,,,,00194940128fb.jpg,,,,,,,,,,,,,,,
217,8,Memory,4,,,,,,,sunaguchqqnrtodtezq.jpg,,,,,,,,,,,,,,,
218,8,Memory,4,,,,,,,00952960627fa.jpg,,,,,,,,,,,,,,,
219,8,Memory,4,,,,,,,sunaatpeezlljqaxlhj.jpg,,,,,,,,,,,,,,,
220,8,Memory,4,,,,,,,sunaahedjlmtqekgyvj.jpg,,,,,,,,,,,,,,,
221,8,Memory,4,,,,,,,00761960627fa.jpg,,,,,,,,,,,,,,,
222,8,Memory,4,,,,,,,sunanaacmmosxrfwmvl.jpg,,,,,,,,,,,,,,,
223,8,Memory,4,,,,,,,sunaafewhewbxmjiurz.jpg,,,,,,,,,,,,,,,
224,8,Memory,4,,,,,,,00953960627fa.jpg,,,,,,,,,,,,,,,
225,8,Memory,4,,,,,,,00076931230fa.jpg,,,,,,,,,,,,,,,
226,8,Memory,4,,,,,,,sunaletopenvvozhpxc.jpg,,,,,,,,,,,,,,,
227,8,Memory,4,,,,,,,00185940422fb.jpg,,,,,,,,,,,,,,,
228,8,Memory,4,,,,,,,sunagmwxxwymwojbvgi.jpg,,,,,,,,,,,,,,,
229,8,Memory,4,,,,,,,00797960620fa.jpg,,,,,,,,,,,,,,,
230,8,Memory,4,,,,,,,sunaprnrbmgkomdbchr.jpg,,,,,,,,,,,,,,,
231,8,Memory,4,,,,,,,00109931230fa.jpg,,,,,,,,,,,,,,,
232,8,Memory,4,,,,,,,00787941205fa.jpg,,,,,,,,,,,,,,,
233,8,Memory,4,,,,,,,sunathzzbcwjykldrem.jpg,,,,,,,,,,,,,,,
234,8,Memory,4,,,,,,,sunafvsxtzaizojicxx.jpg,,,,,,,,,,,,,,,
235,8,Memory,4,,,,,,,00786941205fa.jpg,,,,,,,,,,,,,,,
236,8,Memory,4,,,,,,,00949960627fb.jpg,,,,,,,,,,,,,,,
237,8,Memory,4,,,,,,,00889960530fa.jpg,,,,,,,,,,,,,,,
238,8,Memory,4,,,,,,,00090931230fa.jpg,,,,,,,,,,,,,,,
239,8,Memory,4,,,,,,,00796941205fa.jpg,,,,,,,,,,,,,,,
240,8,Memory,4,,,,,,,sunahuynahneraqftyz.jpg,,,,,,,,,,,,,,,
241,8,Memory,4,,,,,,,sunagufzbeteqdjxais.jpg,,,,,,,,,,,,,,,
242,8,Memory,4,,,,,,,sunafgdqbclkwfocdhg.jpg,,,,,,,,,,,,,,,
243,8,Memory,4,,,,,,,00929960627fa.jpg,,,,,,,,,,,,,,,
244,8,Memory,4,,,,,,,00149931230fa.jpg,,,,,,,,,,,,,,,
245,8,Memory,4,,,,,,,00146960620fb.jpg,,,,,,,,,,,,,,,
246,8,Memory,4,,,,,,,sunaayehfdqcyxggsej.jpg,,,,,,,,,,,,,,,
247,8,Memory,4,,,,,,,sunatstrpjxhvtbaczf.jpg,,,,,,,,,,,,,,,
248,8,Memory,4,,,,,,,sunaauglwmctnkxyird.jpg,,,,,,,,,,,,,,,
249,8,Memory,4,,,,,,,00902960530fa.jpg,,,,,,,,,,,,,,,
250,8,Presentation,5,00263940128fb_sunabjuovqvyfuzvqwt.jpg,00987960627fa_sunbloeoiozwjjsiamp.jpg,,,,,,,<,Face,,,,,1,,,,,,,x
251,8,Presentation,5,00922960627fa_sunapqkyghktgtosuuk.jpg,00140931230fb_sunaapllqyqlykszopd.jpg,,,,,,,>,Place,,,,,1,,,,,,,x
252,8,Presentation,5,00805941205fa_sunagwzdbtlixdhgolm.jpg,00963960627fa_sunayaepykrqvenaqqy.jpg,,,,,,,<,Place,,,,,1,,,,,,,x
253,8,Presentation,5,00746941201fa_sunaetydippjxikifsb.jpg,00184940128fa_sunaavtbadenwnzeutj.jpg,,,,,,,>,Place,,,,,1,,,,,,,x
254,8,Presentation,5,00851940307fa_sunaivflshbyfrfzhqb.jpg,00145931230fb_sunaatjesvdupctftmn.jpg,,,,,,,<,Face,,,,,1,,,,,,,o
255,8,Presentation,5,00305940422fa_sunabtrnbvpppgczjim.jpg,00958960627fa_sunavspxmxubqaeidjt.jpg,,,,,,,>,Face,,,,,1,,,,,,,x
256,8,Presentation,5,00498960627fa_sunabzjxlmkwnwzimua.jpg,00239940128fa_sunabctlikybqabezjv.jpg,,,,,,,<,Place,,,,,1,,,,,,,x
257,8,Presentation,5,00965960627fa_sunaydywdmvlfddbxbk.jpg,00609940928fa_sunacycdoztxoluxjyk.jpg,,,,,,,>,Face,,,,,1,,,,,,,o
258,8,Presentation,5,00131931230fb_sunaangbuylfvckqqoo.jpg,00548940519fa_sunacerqowiaeoqkmsq.jpg,,,,,,,>,Place,,,,,1,,,,,,,o
259,8,Presentation,5,00280940422fb_sunabohxbskznglnrhv.jpg,00147931230fb_sunaatpkocdkocwxpkb.jpg,,,,,,,<,Face,,,,,1,,,,,,,x
260,8,Memory,5,,,,,,,sunaydywdmvlfddbxbk.jpg,,,,,,,,,,,,,,,
261,8,Memory,5,,,,,,,sunayaepykrqvenaqqy.jpg,,,,,,,,,,,,,,,
262,8,Memory,5,,,,,,,sunapqkyghktgtosuuk.jpg,,,,,,,,,,,,,,,
263,8,Memory,5,,,,,,,sunamkmeblgteyggink.jpg,,,,,,,,,,,,,,,
264,8,Memory,5,,,,,,,00131931230fb.jpg,,,,,,,,,,,,,,,
265,8,Memory,5,,,,,,,sunaampvucecsfbdafn.jpg,,,,,,,,,,,,,,,
266,8,Memory,5,,,,,,,00763941205fa.jpg,,,,,,,,,,,,,,,
267,8,Memory,5,,,,,,,00184940128fa.jpg,,,,,,,,,,,,,,,
268,8,Memory,5,,,,,,,00963960627fa.jpg,,,,,,,,,,,,,,,
269,8,Memory,5,,,,,,,sunabohxbskznglnrhv.jpg,,,,,,,,,,,,,,,
270,8,Memory,5,,,,,,,00127931230fa.jpg,,,,,,,,,,,,,,,
271,8,Memory,5,,,,,,,00280940422fb.jpg,,,,,,,,,,,,,,,
272,8,Memory,5,,,,,,,sunaangbuylfvckqqoo.jpg,,,,,,,,,,,,,,,
273,8,Memory,5,,,,,,,00676941121fa.jpg,,,,,,,,,,,,,,,
274,8,Memory,5,,,,,,,sunafkmnlytenlsywia.jpg,,,,,,,,,,,,,,,
275,8,Memory,5,,,,,,,sunabjuovqvyfuzvqwt.jpg,,,,,,,,,,,,,,,
276,8,Memory,5,,,,,,,sunaeouogqolxvggaoq.jpg,,,,,,,,,,,,,,,
277,8,Memory,5,,,,,,,00898960530fa.jpg,,,,,,,,,,,,,,,
278,8,Memory,5,,,,,,,sunabyvpwkgsjtijdwj.jpg,,,,,,,,,,,,,,,
279,8,Memory,5,,,,,,,00768941205fa.jpg,,,,,,,,,,,,,,,
280,8,Memory,5,,,,,,,00965960627fa.jpg,,,,,,,,,,,,,,,
281,8,Memory,5,,,,,,,00242940128fa.jpg,,,,,,,,,,,,,,,
282,8,Memory,5,,,,,,,00922960627fa.jpg,,,,,,,,,,,,,,,
283,8,Memory,5,,,,,,,00483940519fa.jpg,,,,,,,,,,,,,,,
284,8,Memory,5,,,,,,,sunadpnqovzckyikrjo.jpg,,,,,,,,,,,,,,,
285,8,Memory,5,,,,,,,sunacycdoztxoluxjyk.jpg,,,,,,,,,,,,,,,
286,8,Memory,5,,,,,,,sunafhmnhsdurlvddpw.jpg,,,,,,,,,,,,,,,
287,8,Memory,5,,,,,,,00745941205fa.jpg,,,,,,,,,,,,,,,
288,8,Memory,5,,,,,,,sunabcuurugvxwparpk.jpg,,,,,,,,,,,,,,,
289,8,Memory,5,,,,,,,00967960627fa.jpg,,,,,,,,,,,,,,,
290,8,Memory,5,,,,,,,00958960627fa.jpg,,,,,,,,,,,,,,,
291,8,Memory,5,,,,,,,00263940128fb.jpg,,,,,,,,,,,,,,,
292,8,Memory,5,,,,,,,sunavspxmxubqaeidjt.jpg,,,,,,,,,,,,,,,
293,8,Memory,5,,,,,,,sunaatjesvdupctftmn.jpg,,,,,,,,,,,,,,,
294,8,Memory,5,,,,,,,sunbaejotfklekvpxcz.jpg,,,,,,,,,,,,,,,
295,8,Memory,5,,,,,,,sunaenwuebvlpdmntju.jpg,,,,,,,,,,,,,,,
296,8,Memory,5,,,,,,,00742941201fa.jpg,,,,,,,,,,,,,,,
297,8,Memory,5,,,,,,,00609940928fa.jpg,,,,,,,,,,,,,,,
298,8,Memory,5,,,,,,,sunaavtbadenwnzeutj.jpg,,,,,,,,,,,,,,,
299,8,Memory,5,,,,,,,00145931230fb.jpg,,,,,,,,,,,,,,,
300,8,Presentation,6,00144931230fb_sunaathajvxrgptwhoj.jpg,00925960627fa_sunapqwnqzxlsfvgsjm.jpg,,,,,,,>,Face,,,,,1,,,,,,,o
301,8,Presentation,6,00650941031fa_sunadikxpvqeabxrvvc.jpg,00747941201fa_sunaeutbrtswvsozxyk.jpg,,,,,,,>,Place,,,,,1,,,,,,,x
302,8,Presentation,6,00795941205fa_sunagtumacdlmciqamz.jpg,00265940128fb_sunabkmdplkdbvxriff.jpg,,,,,,,<,Face,,,,,1,,,,,,,o
303,8,Presentation,6,00931960627fa_sunaptrqvaooxfvktvw.jpg,00564941031fa_sunacsaovnjezqwbykf.jpg,,,,,,,<,Place,,,,,1,,,,,,,x
304,8,Presentation,6,00154931230fa_sunaauueuhhvklldjik.jpg,00983960627fa_sunbfyvfqiimvdaxlqn.jpg,,,,,,,>,Place,,,,,0,,,,,,,x
305,8,Presentation,6,00804960530fa_sunagwswhkvnsmuszlz.jpg,00191940128fb_sunaawsdjisukbbginm.jpg,,,,,,,<,Face,,,,,1,,,,,,,x
306,8,Presentation,6,00235940128fb_sunabclssnoeuigtawp.jpg,00081941031fa_sunaaftlyfudyzuhqzf.jpg,,,,,,,<,Place,,,,,1,,,,,,,o
307,8,Presentation,6,00647941031fa_sunadflbrkckmepztql.jpg,00743941201fa_sunaeoghzrjarigmwua.jpg,,,,,,,<,Face,,,,,1,,,,,,,x
308,8,Presentation,6,00862940307fa_sunaizgnnplsvajzhkc.jpg,00532960627fa_sunaccdtpgenvcbcbcf.jpg,,,,,,,>,Place,,,,,1,,,,,,,o
309,8,Presentation,6,00725941201fa_sunaefgzwiramypjvtd.jpg,00854940307fa_sunaiwduelojtwaqeyh.jpg,,,,,,,>,Face,,,,,1,,,,,,,o
310,8,Memory,6,,,,,,,sunabkngeblodihjvbk.jpg,,,,,,,,,,,,,,,
311,8,Memory,6,,,,,,,00854940307fa.jpg,,,,,,,,,,,,,,,
312,8,Memory,6,,,,,,,00925960627fa.jpg,,,,,,,,,,,,,,,
313,8,Memory,6,,,,,,,00266940128fb.jpg,,,,,,,,,,,,,,,
314,8,Memory,6,,,,,,,00874940307fa.jpg,,,,,,,,,,,,,,,
315,8,Memory,6,,,,,,,00481940519fa.jpg,,,,,,,,,,,,,,,
316,8,Memory,6,,,,,,,00887960530.jpg,,,,,,,,,,,,,,,
317,8,Memory,6,,,,,,,sunaaftlyfudyzuhqzf.jpg,,,,,,,,,,,,,,,
318,8,Memory,6,,,,,,,sunacvjlsylseoghjup.jpg,,,,,,,,,,,,,,,
319,8,Memory,6,,,,,,,sunaeoghzrjarigmwua.jpg,,,,,,,,,,,,,,,
320,8,Memory,6,,,,,,,sunaizgnnplsvajzhkc.jpg,,,,,,,,,,,,,,,
321,8,Memory,6,,,,,,,00795941205fa.jpg,,,,,,,,,,,,,,,
322,8,Memory,6,,,,,,,sunajtrfunvzdfticna.jpg,,,,,,,,,,,,,,,
323,8,Memory,6,,,,,,,sunaiwduelojtwaqeyh.jpg,,,,,,,,,,,,,,,
324,8,Memory,6,,,,,,,sunaefgzwiramypjvtd.jpg,,,,,,,,,,,,,,,
325,8,Memory,6,,,,,,,sunadikxpvqeabxrvvc.jpg,,,,,,,,,,,,,,,
326,8,Memory,6,,,,,,,sunadnjjzohjhbohlwq.jpg,,,,,,,,,,,,,,,
327,8,Memory,6,,,,,,,sunabxsuqbleluwczoy.jpg,,,,,,,,,,,,,,,
328,8,Memory,6,,,,,,,sunabkmdplkdbvxriff.jpg,,,,,,,,,,,,,,,
329,8,Memory,6,,,,,,,00725941201fa.jpg,,,,,,,,,,,,,,,
330,8,Memory,6,,,,,,,00971960627fa.jpg,,,,,,,,,,,,,,,
331,8,Memory,6,,,,,,,00264940128fb.jpg,,,,,,,,,,,,,,,
332,8,Memory,6,,,,,,,sunalcrtwiycqobgelp.jpg,,,,,,,,,,,,,,,
333,8,Memory,6,,,,,,,00154931230fa.jpg,,,,,,,,,,,,,,,
334,8,Memory,6,,,,,,,sunaavodbcpygkggnfp.jpg,,,,,,,,,,,,,,,
335,8,Memory,6,,,,,,,00576941031fa.jpg,,,,,,,,,,,,,,,
336,8,Memory,6,,,,,,,00163931230fb.jpg,,,,,,,,,,,,,,,
337,8,Memory,6,,,,,,,00862940307fa.jpg,,,,,,,,,,,,,,,
338,8,Memory,6,,,,,,,sunapqwnqzxlsfvgsjm.jpg,,,,,,,,,,,,,,,
339,8,Memory,6,,,,,,,00081941031fa.jpg,,,,,,,,,,,,,,,
340,8,Memory,6,,,,,,,sunagtumacdlmciqamz.jpg,,,,,,,,,,,,,,,
341,8,Memory,6,,,,,,,00780960530fa.jpg,,,,,,,,,,,,,,,
342,8,Memory,6,,,,,,,sunaauueuhhvklldjik.jpg,,,,,,,,,,,,,,,
343,8,Memory,6,,,,,,,sunagetqixeypsysbpn.jpg,,,,,,,,,,,,,,,
344,8,Memory,6,,,,,,,00663941121fa.jpg,,,,,,,,,,,,,,,
345,8,Memory,6,,,,,,,00265940128fb.jpg,,,,,,,,,,,,,,,
346,8,Memory,6,,,,,,,sunabjzyxcjnmztdonj.jpg,,,,,,,,,,,,,,,
347,8,Memory,6,,,,,,,sunbbegcweqnetpdlrh.jpg,,,,,,,,,,,,,,,
348,8,Memory,6,,,,,,,00743941201fa.jpg,,,,,,,,,,,,,,,
349,8,Memory,6,,,,,,,00650941031fa.jpg,,,,,,,,,,,,,,,
350,8,Presentation,7,00809960620fa_sunahbvlpavurqoxdeq.jpg,00648941031fa_sunadfndyrtqqiasoig.jpg,,,,,,,>,Place,,,,,1,,,,,,,x
351,8,Presentation,7,00122931230fa_sunaakxjfbrrequcjmx.jpg,00910960530fa_sunaofikylqtxphvdem.jpg,,,,,,,>,Face,,,,,1,,,,,,,o
352,8,Presentation,7,00227940128fa_sunabckqabszusgcykj.jpg,00218940128fa_sunabbwggenhfbftyvi.jpg,,,,,,,<,Place,,,,,1,,,,,,,x
353,8,Presentation,7,00903960620fa_sunanainkqdvktzoxyl.jpg,00876960620fa_sunajwqkfsykceonyig.jpg,,,,,,,<,Face,,,,,1,,,,,,,o
354,8,Presentation,7,00662941121fa_sunadkazmlajmohnwfl.jpg,01000960627fa_sunbvzmgrdvaakxusbu.jpg,,,,,,,>,Face,,,,,1,,,,,,,x
355,8,Presentation,7,00892960530fa_sunalntxqqadigcletd.jpg,00634940928fa_sunadcphrizvfpljiqt.jpg,,,,,,,<,Face,,,,,0,,,,,,,o
356,8,Presentation,7,00589940928fa_sunacwggadqsfpovdjv.jpg,00807941205fa_sunahawfngukizslzsd.jpg,,,,,,,<,Place,,,,,1,,,,,,,x
357,8,Presentation,7,00620940928fa_sunacypmnujalygkunp.jpg,00771941205fa_sunafowswglhxcsufpo.jpg,,,,,,,>,Place,,,,,1,,,,,,,x
358,8,Presentation,7,00933960627fa_sunapwjkcxdaeqehfql.jpg,00749941201fa_sunaeuvjbmdpknaqqaj.jpg,,,,,,,<,Place,,,,,0,,,,,,,x
359,8,Presentation,7,00559940519fa_sunacjkmnpawfzbyvae.jpg,00841940307fa_sunaisiwfgppimtnmxl.jpg,,,,,,,>,Face,,,,,1,,,,,,,o
360,8,Memory,7,,,,,,,sunahbvlpavurqoxdeq.jpg,,,,,,,,,,,,,,,
361,8,Memory,7,,,,,,,sunaooffzffbhcpirmm.jpg,,,,,,,,,,,,,,,
362,8,Memory,7,,,,,,,01007960627fa.jpg,,,,,,,,,,,,,,,
363,8,Memory,7,,,,,,,sunadfndyrtqqiasoig.jpg,,,,,,,,,,,,,,,
364,8,Memory,7,,,,,,,sunaafgqutfaishsxyu.jpg,,,,,,,,,,,,,,,
365,8,Memory,7,,,,,,,00942960627fa.jpg,,,,,,,,,,,,,,,
366,8,Memory,7,,,,,,,sunaisiwfgppimtnmxl.jpg,,,,,,,,,,,,,,,
367,8,Memory,7,,,,,,,sunbdycacjfaujxitbw.jpg,,,,,,,,,,,,,,,
368,8,Memory,7,,,,,,,sunafowswglhxcsufpo.jpg,,,,,,,,,,,,,,,
369,8,Memory,7,,,,,,,00771941205fa.jpg,,,,,,,,,,,,,,,
370,8,Memory,7,,,,,,,sunaloffvbvysigxent.jpg,,,,,,,,,,,,,,,
371,8,Memory,7,,,,,,,00876960620fa.jpg,,,,,,,,,,,,,,,
372,8,Memory,7,,,,,,,00122931230fa.jpg,,,,,,,,,,,,,,,
373,8,Memory,7,,,,,,,sunbxarcshsnqsefemx.jpg,,,,,,,,,,,,,,,
374,8,Memory,7,,,,,,,01002960627fb.jpg,,,,,,,,,,,,,,,
375,8,Memory,7,,,,,,,00133931230fa.jpg,,,,,,,,,,,,,,,
376,8,Memory,7,,,,,,,00893960530Fa.jpg,,,,,,,,,,,,,,,
377,8,Memory,7,,,,,,,00648941031fa.jpg,,,,,,,,,,,,,,,
378,8,Memory,7,,,,,,,sunbwaafjdebjzttuvq.jpg,,,,,,,,,,,,,,,
379,8,Memory,7,,,,,,,sunapwjkcxdaeqehfql.jpg,,,,,,,,,,,,,,,
380,8,Memory,7,,,,,,,00559940519fa.jpg,,,,,,,,,,,,,,,
381,8,Memory,7,,,,,,,00142931230fb.jpg,,,,,,,,,,,,,,,
382,8,Memory,7,,,,,,,00979960627fa.jpg,,,,,,,,,,,,,,,
383,8,Memory,7,,,,,,,00271940422fa.jpg,,,,,,,,,,,,,,,
384,8,Memory,7,,,,,,,sunacjkmnpawfzbyvae.jpg,,,,,,,,,,,,,,,
385,8,Memory,7,,,,,,,00913960530fa.jpg,,,,,,,,,,,,,,,
386,8,Memory,7,,,,,,,sunaakxjfbrrequcjmx.jpg,,,,,,,,,,,,,,,
387,8,Memory,7,,,,,,,00227940128fa.jpg,,,,,,,,,,,,,,,
388,8,Memory,7,,,,,,,sunaapxkpvrhpjplsok.jpg,,,,,,,,,,,,,,,
389,8,Memory,7,,,,,,,sunarfdklgdnjgeqfjg.jpg,,,,,,,,,,,,,,,
390,8,Memory,7,,,,,,,00634940928fa.jpg,,,,,,,,,,,,,,,
391,8,Memory,7,,,,,,,00933960627fa.jpg,,,,,,,,,,,,,,,
392,8,Memory,7,,,,,,,00841940307fa.jpg,,,,,,,,,,,,,,,
393,8,Memory,7,,,,,,,00077931230fb.jpg,,,,,,,,,,,,,,,
394,8,Memory,7,,,,,,,sunadcphrizvfpljiqt.jpg,,,,,,,,,,,,,,,
395,8,Memory,7,,,,,,,sunabckqabszusgcykj.jpg,,,,,,,,,,,,,,,
396,8,Memory,7,,,,,,,00809960620fa.jpg,,,,,,,,,,,,,,,
397,8,Memory,7,,,,,,,sunajwqkfsykceonyig.jpg,,,,,,,,,,,,,,,
398,8,Memory,7,,,,,,,sunaanlwnpqndclffxt.jpg,,,,,,,,,,,,,,,
399,8,Memory,7,,,,,,,sunabmbnddafmywtjjj.jpg,,,,,,,,,,,,,,,
