,Subject,Trial Type,Run,Cued Composite,Uncued Composite,Cued Face,Cued Place,Uncued Face,Uncued Place,Memory Image,Category,Cued Side,Cued Category,Attention Response Time (s),Familiarity Reaction Time (s),Familiarity Rating,Attention Level,Cue Validity,Post Invalid Cue,Pre Invalid Cue,Attention Button,Rating History,Stimulus Onset,Stimulus End,Attention Probe
0,13,Presentation,0,00316940422fa_sunabxmguapjekttvwm.jpg,00990960627fa_sunbpflsdaxnddnwcqi.jpg,,,,,,,>,Place,,,,,1,,,,,,,x
1,13,Presentation,0,00554940519fa_sunacfdkbsrughwqwtt.jpg,00185940422fb_sunaawqdbpihmlbwyyn.jpg,,,,,,,<,Face,,,,,1,,,,,,,o
2,13,Presentation,0,00481940519fa_sunabxsuqbleluwczoy.jpg,00983960627fa_sunbfyvfqiimvdaxlqn.jpg,,,,,,,>,Place,,,,,1,,,,,,,o
3,13,Presentation,0,00146960620fb_sunaatpeezlljqaxlhj.jpg,00648941031fa_sunadfndyrtqqiasoig.jpg,,,,,,,<,Face,,,,,1,,,,,,,o
4,13,Presentation,0,00970960627fa_sunbasypfgzjtomktmu.jpg,00838940307fa_sunaiozxhxgtfrmoagh.jpg,,,,,,,<,Place,,,,,0,,,,,,,o
5,13,Presentation,0,00082931230fa_sunaafvitpexrpvumsa.jpg,00122931230fa_sunaakxjfbrrequcjmx.jpg,,,,,,,>,Place,,,,,1,,,,,,,x
6,13,Presentation,0,00719960620fa_sunadzuvtmtmgupotmf.jpg,00747941201fa_sunaeutbrtswvsozxyk.jpg,,,,,,,>,Face,,,,,1,,,,,,,o
7,13,Presentation,0,00090931230fa_sunaahedjlmtqekgyvj.jpg,00153931230fa_sunaauhozyxzeeqstxi.jpg,,,,,,,<,Face,,,,,1,,,,,,,o
8,13,Presentation,0,00910960530fa_sunaofikylqtxphvdem.jpg,00193940928fa_sunaaxjpzcnxligjtjq.jpg,,,,,,,<,Place,,,,,1,,,,,,,x
9,13,Presentation,0,00809960620fa_sunahbvlpavurqoxdeq.jpg,00963960627fa_sunayaepykrqvenaqqy.jpg,,,,,,,>,Face,,,,,1,,,,,,,x
10,13,Memory,0,,,,,,,00146960620fb.jpg,,,,,,,,,,,,,,,
11,13,Memory,0,,,,,,,sunabxsuqbleluwczoy.jpg,,,,,,,,,,,,,,,
12,13,Memory,0,,,,,,,sunbwyuesflwdpqtgoy.jpg,,,,,,,,,,,,,,,
13,13,Memory,0,,,,,,,sunadqmjrhfjyuzyvdd.jpg,,,,,,,,,,,,,,,
14,13,Memory,0,,,,,,,sunaatpeezlljqaxlhj.jpg,,,,,,,,,,,,,,,
15,13,Memory,0,,,,,,,00532960627fa.jpg,,,,,,,,,,,,,,,
16,13,Memory,0,,,,,,,sunayaepykrqvenaqqy.jpg,,,,,,,,,,,,,,,
17,13,Memory,0,,,,,,,sunbfzchmomnvzhbxdg.jpg,,,,,,,,,,,,,,,
18,13,Memory,0,,,,,,,00681941121fa.jpg,,,,,,,,,,,,,,,
19,13,Memory,0,,,,,,,00809960620fa.jpg,,,,,,,,,,,,,,,
20,13,Memory,0,,,,,,,00193940928fa.jpg,,,,,,,,,,,,,,,
21,13,Memory,0,,,,,,,00221940128fa.jpg,,,,,,,,,,,,,,,
22,13,Memory,0,,,,,,,00090931230fa.jpg,,,,,,,,,,,,,,,
23,13,Memory,0,,,,,,,00316940422fa.jpg,,,,,,,,,,,,,,,
24,13,Memory,0,,,,,,,sunaaxjpzcnxligjtjq.jpg,,,,,,,,,,,,,,,
25,13,Memory,0,,,,,,,sunabcfpwlpolnutyju.jpg,,,,,,,,,,,,,,,
26,13,Memory,0,,,,,,,00770941201fa.jpg,,,,,,,,,,,,,,,
27,13,Memory,0,,,,,,,00984960627fa.jpg,,,,,,,,,,,,,,,
28,13,Memory,0,,,,,,,00747941201fa.jpg,,,,,,,,,,,,,,,
29,13,Memory,0,,,,,,,00481940519fa.jpg,,,,,,,,,,,,,,,
30,13,Memory,0,,,,,,,00754941201fa.jpg,,,,,,,,,,,,,,,
31,13,Memory,0,,,,,,,sunaeutbrtswvsozxyk.jpg,,,,,,,,,,,,,,,
32,13,Memory,0,,,,,,,00122931230fa.jpg,,,,,,,,,,,,,,,
33,13,Memory,0,,,,,,,sunaalhlvzmjmitybdn.jpg,,,,,,,,,,,,,,,
34,13,Memory,0,,,,,,,00124931230fa.jpg,,,,,,,,,,,,,,,
35,13,Memory,0,,,,,,,sunahbvlpavurqoxdeq.jpg,,,,,,,,,,,,,,,
36,13,Memory,0,,,,,,,00753941201fa.jpg,,,,,,,,,,,,,,,
37,13,Memory,0,,,,,,,sunaffgsyyvoqdlkmnk.jpg,,,,,,,,,,,,,,,
38,13,Memory,0,,,,,,,sunafcofuuzebuadceo.jpg,,,,,,,,,,,,,,,
39,13,Memory,0,,,,,,,00870940307fa.jpg,,,,,,,,,,,,,,,
40,13,Memory,0,,,,,,,00990960627fa.jpg,,,,,,,,,,,,,,,
41,13,Memory,0,,,,,,,sunbpflsdaxnddnwcqi.jpg,,,,,,,,,,,,,,,
42,13,Memory,0,,,,,,,sunaakxjfbrrequcjmx.jpg,,,,,,,,,,,,,,,
43,13,Memory,0,,,,,,,01005960627fa.jpg,,,,,,,,,,,,,,,
44,13,Memory,0,,,,,,,sunabxmguapjekttvwm.jpg,,,,,,,,,,,,,,,
45,13,Memory,0,,,,,,,sunaflojskatpeqyzqp.jpg,,,,,,,,,,,,,,,
46,13,Memory,0,,,,,,,00963960627fa.jpg,,,,,,,,,,,,,,,
47,13,Memory,0,,,,,,,sunaahedjlmtqekgyvj.jpg,,,,,,,,,,,,,,,
48,13,Memory,0,,,,,,,sunaccdtpgenvcbcbcf.jpg,,,,,,,,,,,,,,,
49,13,Memory,0,,,,,,,sunajrgtewnualfcerj.jpg,,,,,,,,,,,,,,,
50,13,Presentation,1,00288940422fa_sunabppokiyglaxpcha.jpg,00700941121fa_sunadsgmtznewzyasnk.jpg,,,,,,,<,Face,,,,,0,,,,,,,x
51,13,Presentation,1,00071940128fa_sunaaexpnawiehinlpy.jpg,00836940307fa_sunainqelldeebvxtcz.jpg,,,,,,,>,Place,,,,,1,,,,,,,o
52,13,Presentation,1,00815941205fa_sunahiphsekjihkafsl.jpg,00720960620fa_sunaecpkgfewqqreqwe.jpg,,,,,,,>,Face,,,,,1,,,,,,,x
53,13,Presentation,1,00630940928fa_sunaczwgyukesaajxnx.jpg,00598941031fa_sunacxtcahkymosigud.jpg,,,,,,,<,Place,,,,,1,,,,,,,o
54,13,Presentation,1,00828940307fa_sunahuynahneraqftyz.jpg,00989960627fa_sunbondbduabvijnmch.jpg,,,,,,,>,Place,,,,,1,,,,,,,x
55,13,Presentation,1,00131931230fb_sunaangbuylfvckqqoo.jpg,00878960530fa_sunakgbnzxmfohgehnu.jpg,,,,,,,>,Face,,,,,1,,,,,,,x
56,13,Presentation,1,01010960627fa_suncnkvbhypnivcohyx.jpg,00095931230fa_sunaahzooisqkwlxwoz.jpg,,,,,,,<,Face,,,,,1,,,,,,,o
57,13,Presentation,1,00306940422fa_sunabueyoajufbkraki.jpg,01011960627fa_sundahdxwmcdluscvot.jpg,,,,,,,<,Place,,,,,1,,,,,,,o
58,13,Presentation,1,00903960620fa_sunanainkqdvktzoxyl.jpg,00773941201fa_sunafvcflzhlqloapyo.jpg,,,,,,,<,Face,,,,,0,,,,,,,o
59,13,Presentation,1,00893960530Fa_sunaloffvbvysigxent.jpg,00638941031fa_sunadfktsqjthoglcsm.jpg,,,,,,,>,Place,,,,,1,,,,,,,x
60,13,Memory,1,,,,,,,sunakgbnzxmfohgehnu.jpg,,,,,,,,,,,,,,,
61,13,Memory,1,,,,,,,sunaivdylrawbmhryfp.jpg,,,,,,,,,,,,,,,
62,13,Memory,1,,,,,,,00773941201fa.jpg,,,,,,,,,,,,,,,
63,13,Memory,1,,,,,,,00211940128fa.jpg,,,,,,,,,,,,,,,
64,13,Memory,1,,,,,,,sunaangbuylfvckqqoo.jpg,,,,,,,,,,,,,,,
65,13,Memory,1,,,,,,,sunaecpkgfewqqreqwe.jpg,,,,,,,,,,,,,,,
66,13,Memory,1,,,,,,,00720960620fa.jpg,,,,,,,,,,,,,,,
67,13,Memory,1,,,,,,,sunaahzooisqkwlxwoz.jpg,,,,,,,,,,,,,,,
68,13,Memory,1,,,,,,,sunaczwgyukesaajxnx.jpg,,,,,,,,,,,,,,,
69,13,Memory,1,,,,,,,sunadochqcucscehsgk.jpg,,,,,,,,,,,,,,,
70,13,Memory,1,,,,,,,sunaloffvbvysigxent.jpg,,,,,,,,,,,,,,,
71,13,Memory,1,,,,,,,00921960627fa.jpg,,,,,,,,,,,,,,,
72,13,Memory,1,,,,,,,sunadpnqovzckyikrjo.jpg,,,,,,,,,,,,,,,
73,13,Memory,1,,,,,,,00893960530Fa.jpg,,,,,,,,,,,,,,,
74,13,Memory,1,,,,,,,00848940307fa.jpg,,,,,,,,,,,,,,,
75,13,Memory,1,,,,,,,00290940422fa.jpg,,,,,,,,,,,,,,,
76,13,Memory,1,,,,,,,sunapqkpqdfvxlbqwyo.jpg,,,,,,,,,,,,,,,
77,13,Memory,1,,,,,,,00746941201fa.jpg,,,,,,,,,,,,,,,
78,13,Memory,1,,,,,,,sunabasphceswhwwqvv.jpg,,,,,,,,,,,,,,,
79,13,Memory,1,,,,,,,00858940307fa.jpg,,,,,,,,,,,,,,,
80,13,Memory,1,,,,,,,00242940128fa.jpg,,,,,,,,,,,,,,,
81,13,Memory,1,,,,,,,sunahiphsekjihkafsl.jpg,,,,,,,,,,,,,,,
82,13,Memory,1,,,,,,,sunabcuurugvxwparpk.jpg,,,,,,,,,,,,,,,
83,13,Memory,1,,,,,,,00878960530fa.jpg,,,,,,,,,,,,,,,
84,13,Memory,1,,,,,,,sunaixpqndlwhwjtjek.jpg,,,,,,,,,,,,,,,
85,13,Memory,1,,,,,,,sunabtrnbvpppgczjim.jpg,,,,,,,,,,,,,,,
86,13,Memory,1,,,,,,,00131931230fb.jpg,,,,,,,,,,,,,,,
87,13,Memory,1,,,,,,,00828940307fa.jpg,,,,,,,,,,,,,,,
88,13,Memory,1,,,,,,,sunahuynahneraqftyz.jpg,,,,,,,,,,,,,,,
89,13,Memory,1,,,,,,,00095931230fa.jpg,,,,,,,,,,,,,,,
90,13,Memory,1,,,,,,,sunadfktsqjthoglcsm.jpg,,,,,,,,,,,,,,,
91,13,Memory,1,,,,,,,sunaetydippjxikifsb.jpg,,,,,,,,,,,,,,,
92,13,Memory,1,,,,,,,00815941205fa.jpg,,,,,,,,,,,,,,,
93,13,Memory,1,,,,,,,sunafvcflzhlqloapyo.jpg,,,,,,,,,,,,,,,
94,13,Memory,1,,,,,,,00305940422fa.jpg,,,,,,,,,,,,,,,
95,13,Memory,1,,,,,,,00670941121fa.jpg,,,,,,,,,,,,,,,
96,13,Memory,1,,,,,,,sunabqowuarvqqcnipn.jpg,,,,,,,,,,,,,,,
97,13,Memory,1,,,,,,,00638941031fa.jpg,,,,,,,,,,,,,,,
98,13,Memory,1,,,,,,,00676941121fa.jpg,,,,,,,,,,,,,,,
99,13,Memory,1,,,,,,,00630940928fa.jpg,,,,,,,,,,,,,,,
100,13,Presentation,2,00874940307fa_sunajtrfunvzdfticna.jpg,00292940422fb_sunabrjdpmoedcdjbpo.jpg,,,,,,,>,Place,,,,,1,,,,,,,o
101,13,Presentation,2,00162931230fb_sunaavjinpnkappuonm.jpg,00276940422fa_sunabmytpyhsgigllxu.jpg,,,,,,,>,Face,,,,,1,,,,,,,o
102,13,Presentation,2,00772941201fa_sunafpfpiiujzoesnqg.jpg,00794960620fa_sunagtqhhwxjeuxdebe.jpg,,,,,,,<,Face,,,,,1,,,,,,,o
103,13,Presentation,2,00112931230fa_sunaakjaacuzulqckgl.jpg,00889960530fa_sunaletopenvvozhpxc.jpg,,,,,,,<,Place,,,,,1,,,,,,,o
104,13,Presentation,2,00265940128fb_sunabkmdplkdbvxriff.jpg,00776941205fa_sunafxokyavhgptyfye.jpg,,,,,,,>,Face,,,,,0,,,,,,,x
105,13,Presentation,2,00908960530fa_sunanwjjyqqwzqrqagd.jpg,00163931230fb_sunaavodbcpygkggnfp.jpg,,,,,,,<,Place,,,,,1,,,,,,,x
106,13,Presentation,2,00635941031fa_sunaddsaeicthrfbkhe.jpg,00953960627fa_sunatstrpjxhvtbaczf.jpg,,,,,,,>,Face,,,,,1,,,,,,,x
107,13,Presentation,2,00884960530fa_sunakodkcslgqhqlgwl.jpg,00663941121fa_sunadnjjzohjhbohlwq.jpg,,,,,,,<,Place,,,,,0,,,,,,,o
108,13,Presentation,2,00807941205fa_sunahawfngukizslzsd.jpg,00799941205fa_sunagutjvdvnhxejerz.jpg,,,,,,,<,Face,,,,,1,,,,,,,o
109,13,Presentation,2,00788941205fa_sunagountlxpzkytsmp.jpg,00140931230fb_sunaapllqyqlykszopd.jpg,,,,,,,>,Place,,,,,1,,,,,,,x
110,13,Memory,2,,,,,,,00776941205fa.jpg,,,,,,,,,,,,,,,
111,13,Memory,2,,,,,,,sunbddbivbptlrlauhy.jpg,,,,,,,,,,,,,,,
112,13,Memory,2,,,,,,,00922960627fa.jpg,,,,,,,,,,,,,,,
113,13,Memory,2,,,,,,,sunadnjjzohjhbohlwq.jpg,,,,,,,,,,,,,,,
114,13,Memory,2,,,,,,,00788941205fa.jpg,,,,,,,,,,,,,,,
115,13,Memory,2,,,,,,,sunanmoqeyprjjjfxjt.jpg,,,,,,,,,,,,,,,
116,13,Memory,2,,,,,,,sunaakjaacuzulqckgl.jpg,,,,,,,,,,,,,,,
117,13,Memory,2,,,,,,,sunaamdjwemxpmmtypi.jpg,,,,,,,,,,,,,,,
118,13,Memory,2,,,,,,,sunafxokyavhgptyfye.jpg,,,,,,,,,,,,,,,
119,13,Memory,2,,,,,,,sunagountlxpzkytsmp.jpg,,,,,,,,,,,,,,,
120,13,Memory,2,,,,,,,sunagpancjmxqfazssf.jpg,,,,,,,,,,,,,,,
121,13,Memory,2,,,,,,,00789960620fa.jpg,,,,,,,,,,,,,,,
122,13,Memory,2,,,,,,,00663941121fa.jpg,,,,,,,,,,,,,,,
123,13,Memory,2,,,,,,,00276940422fa.jpg,,,,,,,,,,,,,,,
124,13,Memory,2,,,,,,,00905960530fa.jpg,,,,,,,,,,,,,,,
125,13,Memory,2,,,,,,,00938960627fa.jpg,,,,,,,,,,,,,,,
126,13,Memory,2,,,,,,,00162931230fb.jpg,,,,,,,,,,,,,,,
127,13,Memory,2,,,,,,,00807941205fa.jpg,,,,,,,,,,,,,,,
128,13,Memory,2,,,,,,,00978960627fa.jpg,,,,,,,,,,,,,,,
129,13,Memory,2,,,,,,,00874940307fa.jpg,,,,,,,,,,,,,,,
130,13,Memory,2,,,,,,,sunaaheqzstzxuadglu.jpg,,,,,,,,,,,,,,,
131,13,Memory,2,,,,,,,00292940422fb.jpg,,,,,,,,,,,,,,,
132,13,Memory,2,,,,,,,sunabrjdpmoedcdjbpo.jpg,,,,,,,,,,,,,,,
133,13,Memory,2,,,,,,,01009960627fa.jpg,,,,,,,,,,,,,,,
134,13,Memory,2,,,,,,,sunaavodbcpygkggnfp.jpg,,,,,,,,,,,,,,,
135,13,Memory,2,,,,,,,00092931230fa.jpg,,,,,,,,,,,,,,,
136,13,Memory,2,,,,,,,00163931230fb.jpg,,,,,,,,,,,,,,,
137,13,Memory,2,,,,,,,01003960627fb.jpg,,,,,,,,,,,,,,,
138,13,Memory,2,,,,,,,sunajtrfunvzdfticna.jpg,,,,,,,,,,,,,,,
139,13,Memory,2,,,,,,,sunahawfngukizslzsd.jpg,,,,,,,,,,,,,,,
140,13,Memory,2,,,,,,,sunablfqiwfqomjarht.jpg,,,,,,,,,,,,,,,
141,13,Memory,2,,,,,,,sunaqyylsngywqzwfmx.jpg,,,,,,,,,,,,,,,
142,13,Memory,2,,,,,,,sunabmytpyhsgigllxu.jpg,,,,,,,,,,,,,,,
143,13,Memory,2,,,,,,,00126931230fb.jpg,,,,,,,,,,,,,,,
144,13,Memory,2,,,,,,,sunaavjinpnkappuonm.jpg,,,,,,,,,,,,,,,
145,13,Memory,2,,,,,,,00112931230fa.jpg,,,,,,,,,,,,,,,
146,13,Memory,2,,,,,,,00267940128fb.jpg,,,,,,,,,,,,,,,
147,13,Memory,2,,,,,,,sunbwdrdvsweerwsdrj.jpg,,,,,,,,,,,,,,,
148,13,Memory,2,,,,,,,sunbxzweleltykebgan.jpg,,,,,,,,,,,,,,,
149,13,Memory,2,,,,,,,sunapqkyghktgtosuuk.jpg,,,,,,,,,,,,,,,
150,13,Presentation,3,00997960627fa_sunbtpilbhhbmhmeuzq.jpg,00891960530fa_sunalkiibhqpxfamlll.jpg,,,,,,,<,Face,,,,,1,,,,,,,x
151,13,Presentation,3,00191940128fb_sunaawsdjisukbbginm.jpg,00939960627fa_sunarceibpcyacbmfga.jpg,,,,,,,>,Face,,,,,0,,,,,,,o
152,13,Presentation,3,00294940422fb_sunabrlndkruqokhury.jpg,00835940307fa_sunaijsqpvodplbwxkf.jpg,,,,,,,<,Face,,,,,1,,,,,,,x
153,13,Presentation,3,00892960530fa_sunalntxqqadigcletd.jpg,00877960530fa_sunajxpkuhbizeveguy.jpg,,,,,,,>,Place,,,,,1,,,,,,,x
154,13,Presentation,3,00803941205fa_sunagvxkjokqimstxpe.jpg,00825940307fa_sunahrltmuwbiehihpe.jpg,,,,,,,>,Face,,,,,1,,,,,,,x
155,13,Presentation,3,00568940928fa_sunacsdhbbsybcyxnel.jpg,00911960530fa_sunaooaqzputrowwbsw.jpg,,,,,,,>,Place,,,,,1,,,,,,,o
156,13,Presentation,3,00909960530_sunaobtizabegtwfwul.jpg,00296940422fa_sunabrwnslxalcohfre.jpg,,,,,,,<,Place,,,,,1,,,,,,,x
157,13,Presentation,3,00999960627fa_sunbvbrvgbpanfrawft.jpg,00581940928fa_sunacvzhvcksnwqcqbw.jpg,,,,,,,<,Face,,,,,1,,,,,,,x
158,13,Presentation,3,00895960530fa_sunamczizlzavhzhpay.jpg,00744941201fa_sunaeomlfaabhpswasy.jpg,,,,,,,<,Place,,,,,1,,,,,,,o
159,13,Presentation,3,00263940128fb_sunabjuovqvyfuzvqwt.jpg,00070940307fa_sunaaeplwsfslcbtojr.jpg,,,,,,,>,Place,,,,,1,,,,,,,x
160,13,Memory,3,,,,,,,00263940128fb.jpg,,,,,,,,,,,,,,,
161,13,Memory,3,,,,,,,00745941205fa.jpg,,,,,,,,,,,,,,,
162,13,Memory,3,,,,,,,sunaaeplwsfslcbtojr.jpg,,,,,,,,,,,,,,,
163,13,Memory,3,,,,,,,sunbbfqwjpdxniyhies.jpg,,,,,,,,,,,,,,,
164,13,Memory,3,,,,,,,sunaijsqpvodplbwxkf.jpg,,,,,,,,,,,,,,,
165,13,Memory,3,,,,,,,00728941205fa.jpg,,,,,,,,,,,,,,,
166,13,Memory,3,,,,,,,00982960627fa.jpg,,,,,,,,,,,,,,,
167,13,Memory,3,,,,,,,00633940928fa.jpg,,,,,,,,,,,,,,,
168,13,Memory,3,,,,,,,sunalkiibhqpxfamlll.jpg,,,,,,,,,,,,,,,
169,13,Memory,3,,,,,,,sunasmmcxdddtmtazwx.jpg,,,,,,,,,,,,,,,
170,13,Memory,3,,,,,,,sunabgfhvifeijihhjw.jpg,,,,,,,,,,,,,,,
171,13,Memory,3,,,,,,,00260940128fa.jpg,,,,,,,,,,,,,,,
172,13,Memory,3,,,,,,,sunalntxqqadigcletd.jpg,,,,,,,,,,,,,,,
173,13,Memory,3,,,,,,,sunagvxkjokqimstxpe.jpg,,,,,,,,,,,,,,,
174,13,Memory,3,,,,,,,00997960627fa.jpg,,,,,,,,,,,,,,,
175,13,Memory,3,,,,,,,00825940307fa.jpg,,,,,,,,,,,,,,,
176,13,Memory,3,,,,,,,sunaooaqzputrowwbsw.jpg,,,,,,,,,,,,,,,
177,13,Memory,3,,,,,,,01000960627fa.jpg,,,,,,,,,,,,,,,
178,13,Memory,3,,,,,,,sunbvzmgrdvaakxusbu.jpg,,,,,,,,,,,,,,,
179,13,Memory,3,,,,,,,sunapileznnbbmrwoei.jpg,,,,,,,,,,,,,,,
180,13,Memory,3,,,,,,,sunaeouogqolxvggaoq.jpg,,,,,,,,,,,,,,,
181,13,Memory,3,,,,,,,sunaejnvnpltdmhbcsi.jpg,,,,,,,,,,,,,,,
182,13,Memory,3,,,,,,,00911960530fa.jpg,,,,,,,,,,,,,,,
183,13,Memory,3,,,,,,,sunbesrwkdsffeogeqq.jpg,,,,,,,,,,,,,,,
184,13,Memory,3,,,,,,,sunabjuovqvyfuzvqwt.jpg,,,,,,,,,,,,,,,
185,13,Memory,3,,,,,,,00891960530fa.jpg,,,,,,,,,,,,,,,
186,13,Memory,3,,,,,,,sunahrltmuwbiehihpe.jpg,,,,,,,,,,,,,,,
187,13,Memory,3,,,,,,,sunbtpilbhhbmhmeuzq.jpg,,,,,,,,,,,,,,,
188,13,Memory,3,,,,,,,sunadbhmrgrrpyzglxs.jpg,,,,,,,,,,,,,,,
189,13,Memory,3,,,,,,,sunabrlndkruqokhury.jpg,,,,,,,,,,,,,,,
190,13,Memory,3,,,,,,,00144931230fb.jpg,,,,,,,,,,,,,,,
191,13,Memory,3,,,,,,,00947960627fa.jpg,,,,,,,,,,,,,,,
192,13,Memory,3,,,,,,,00915960620fa.jpg,,,,,,,,,,,,,,,
193,13,Memory,3,,,,,,,00070940307fa.jpg,,,,,,,,,,,,,,,
194,13,Memory,3,,,,,,,00803941205fa.jpg,,,,,,,,,,,,,,,
195,13,Memory,3,,,,,,,00835940307fa.jpg,,,,,,,,,,,,,,,
196,13,Memory,3,,,,,,,00294940422fb.jpg,,,,,,,,,,,,,,,
197,13,Memory,3,,,,,,,sunaathajvxrgptwhoj.jpg,,,,,,,,,,,,,,,
198,13,Memory,3,,,,,,,00892960530fa.jpg,,,,,,,,,,,,,,,
199,13,Memory,3,,,,,,,00972960627fa.jpg,,,,,,,,,,,,,,,
200,13,Presentation,4,00763941205fa_sunafhmnhsdurlvddpw.jpg,00959960627fa_sunavxokzybtomhbmvm.jpg,,,,,,,<,Place,,,,,1,,,,,,,o
201,13,Presentation,4,00839940307fa_sunaipyohrqlwngaqif.jpg,00120931230fa_sunaakxgygjfqrzpyoz.jpg,,,,,,,>,Face,,,,,0,,,,,,,x
202,13,Presentation,4,00576941031fa_sunacvjlsylseoghjup.jpg,00847940307fa_sunaivdjruhkrfywfed.jpg,,,,,,,<,Place,,,,,1,,,,,,,o
203,13,Presentation,4,00777941205fa_sunagcinxkccdtrjmlv.jpg,00062931230fb_sunaaelotvjgibjtjhs.jpg,,,,,,,<,Face,,,,,1,,,,,,,x
204,13,Presentation,4,00782941205fa_sunagfvluwixdsozaql.jpg,00791941205fa_sunagrmyoovzukhxmlo.jpg,,,,,,,>,Place,,,,,1,,,,,,,x
205,13,Presentation,4,00851940307fa_sunaivflshbyfrfzhqb.jpg,00935960627fa_sunaqbmgkgqucajzrkp.jpg,,,,,,,<,Place,,,,,1,,,,,,,o
206,13,Presentation,4,00775941205fa_sunafvwfsmqkjrutjta.jpg,00564941031fa_sunacsaovnjezqwbykf.jpg,,,,,,,>,Face,,,,,1,,,,,,,x
207,13,Presentation,4,00101931230fb_sunaajqmsaavkmgbsth.jpg,00266940128fb_sunabkngeblodihjvbk.jpg,,,,,,,>,Place,,,,,1,,,,,,,x
208,13,Presentation,4,00929960627fa_sunaprnrbmgkomdbchr.jpg,00108960530fa_sunaajtnvzzpsjdzres.jpg,,,,,,,>,Face,,,,,1,,,,,,,o
209,13,Presentation,4,00730960620fa_sunaekgzpfilgjxpeyq.jpg,00102931230fa_sunaajspcoepticvplv.jpg,,,,,,,<,Face,,,,,1,,,,,,,x
210,13,Memory,4,,,,,,,sunaahwnmtqsrhocysw.jpg,,,,,,,,,,,,,,,
211,13,Memory,4,,,,,,,sunabkngeblodihjvbk.jpg,,,,,,,,,,,,,,,
212,13,Memory,4,,,,,,,sunagfvluwixdsozaql.jpg,,,,,,,,,,,,,,,
213,13,Memory,4,,,,,,,sunathzzbcwjykldrem.jpg,,,,,,,,,,,,,,,
214,13,Memory,4,,,,,,,sunaajspcoepticvplv.jpg,,,,,,,,,,,,,,,
215,13,Memory,4,,,,,,,00847940307fa.jpg,,,,,,,,,,,,,,,
216,13,Memory,4,,,,,,,sunadoxcchtmsxewsau.jpg,,,,,,,,,,,,,,,
217,13,Memory,4,,,,,,,sunaivflshbyfrfzhqb.jpg,,,,,,,,,,,,,,,
218,13,Memory,4,,,,,,,00901960530fa.jpg,,,,,,,,,,,,,,,
219,13,Memory,4,,,,,,,00778941205fa.jpg,,,,,,,,,,,,,,,
220,13,Memory,4,,,,,,,sunagrmyoovzukhxmlo.jpg,,,,,,,,,,,,,,,
221,13,Memory,4,,,,,,,sunavxokzybtomhbmvm.jpg,,,,,,,,,,,,,,,
222,13,Memory,4,,,,,,,sunaeuvjbmdpknaqqaj.jpg,,,,,,,,,,,,,,,
223,13,Memory,4,,,,,,,sunagcinxkccdtrjmlv.jpg,,,,,,,,,,,,,,,
224,13,Memory,4,,,,,,,00777941205fa.jpg,,,,,,,,,,,,,,,
225,13,Memory,4,,,,,,,sunammbnoambmhdxdwd.jpg,,,,,,,,,,,,,,,
226,13,Memory,4,,,,,,,00675941121fa.jpg,,,,,,,,,,,,,,,
227,13,Memory,4,,,,,,,00198940128fb.jpg,,,,,,,,,,,,,,,
228,13,Memory,4,,,,,,,sunafvwfsmqkjrutjta.jpg,,,,,,,,,,,,,,,
229,13,Memory,4,,,,,,,sunaazezcsunmhttzxz.jpg,,,,,,,,,,,,,,,
230,13,Memory,4,,,,,,,00839940307fa.jpg,,,,,,,,,,,,,,,
231,13,Memory,4,,,,,,,00749941201fa.jpg,,,,,,,,,,,,,,,
232,13,Memory,4,,,,,,,00851940307fa.jpg,,,,,,,,,,,,,,,
233,13,Memory,4,,,,,,,00791941205fa.jpg,,,,,,,,,,,,,,,
234,13,Memory,4,,,,,,,00093931230fa.jpg,,,,,,,,,,,,,,,
235,13,Memory,4,,,,,,,01207940128fa.jpg,,,,,,,,,,,,,,,
236,13,Memory,4,,,,,,,00885960530fa.jpg,,,,,,,,,,,,,,,
237,13,Memory,4,,,,,,,01004960627fa.jpg,,,,,,,,,,,,,,,
238,13,Memory,4,,,,,,,00782941205fa.jpg,,,,,,,,,,,,,,,
239,13,Memory,4,,,,,,,sunbwtlihsuptkrckid.jpg,,,,,,,,,,,,,,,
240,13,Memory,4,,,,,,,00775941205fa.jpg,,,,,,,,,,,,,,,
241,13,Memory,4,,,,,,,sunakwlvxjpddialozd.jpg,,,,,,,,,,,,,,,
242,13,Memory,4,,,,,,,00952960627fa.jpg,,,,,,,,,,,,,,,
243,13,Memory,4,,,,,,,00266940128fb.jpg,,,,,,,,,,,,,,,
244,13,Memory,4,,,,,,,sunaivdjruhkrfywfed.jpg,,,,,,,,,,,,,,,
245,13,Memory,4,,,,,,,sunagcthdfirrcawoic.jpg,,,,,,,,,,,,,,,
246,13,Memory,4,,,,,,,00102931230fa.jpg,,,,,,,,,,,,,,,
247,13,Memory,4,,,,,,,sunaipyohrqlwngaqif.jpg,,,,,,,,,,,,,,,
248,13,Memory,4,,,,,,,sundbixjudsgeuuehrn.jpg,,,,,,,,,,,,,,,
249,13,Memory,4,,,,,,,00959960627fa.jpg,,,,,,,,,,,,,,,
250,13,Presentation,5,00208940128fa_sunaazzyhbvqjpmazjq.jpg,00913960530fa_sunaooffzffbhcpirmm.jpg,,,,,,,>,Place,,,,,1,,,,,,,o
251,13,Presentation,5,00933960627fa_sunapwjkcxdaeqehfql.jpg,00829940307fa_sunahwgbqkqcrwprgvh.jpg,,,,,,,<,Place,,,,,1,,,,,,,x
252,13,Presentation,5,00271940422fa_sunabmbnddafmywtjjj.jpg,00792941205fa_sunagsiwrmuixqgdimb.jpg,,,,,,,>,Face,,,,,1,,,,,,,o
253,13,Presentation,5,00723941201fa_sunaedtgwjvvziytspa.jpg,00965960627fa_sunaydywdmvlfddbxbk.jpg,,,,,,,<,Place,,,,,1,,,,,,,x
254,13,Presentation,5,00308940422fb_sunabwfvcqqidycwypa.jpg,00245940128fa_sunabeyhmxodahoieyk.jpg,,,,,,,>,Face,,,,,1,,,,,,,o
255,13,Presentation,5,00562941031fa_sunacjnahdmqfnjfwqx.jpg,00154931230fa_sunaauueuhhvklldjik.jpg,,,,,,,<,Place,,,,,1,,,,,,,x
256,13,Presentation,5,00812941205fa_sunahgtbwgsmtqeodwh.jpg,00944960627fa_sunasbbntuiheekqyaq.jpg,,,,,,,<,Face,,,,,1,,,,,,,o
257,13,Presentation,5,00314940422fa_sunabwmcbaxwioksdgw.jpg,00142931230fb_sunaapxkpvrhpjplsok.jpg,,,,,,,>,Face,,,,,1,,,,,,,x
258,13,Presentation,5,00859940307fa_sunaiycurtqsfkvcaso.jpg,00862940307fa_sunaizgnnplsvajzhkc.jpg,,,,,,,<,Face,,,,,1,,,,,,,x
259,13,Presentation,5,00115931230fa_sunaakmxzhuceuiryah.jpg,00931960627fa_sunaptrqvaooxfvktvw.jpg,,,,,,,>,Place,,,,,1,,,,,,,o
260,13,Memory,5,,,,,,,sunaooffzffbhcpirmm.jpg,,,,,,,,,,,,,,,
261,13,Memory,5,,,,,,,00239940128fa.jpg,,,,,,,,,,,,,,,
262,13,Memory,5,,,,,,,sunaapxkpvrhpjplsok.jpg,,,,,,,,,,,,,,,
263,13,Memory,5,,,,,,,sunabizydfotqddlnjp.jpg,,,,,,,,,,,,,,,
264,13,Memory,5,,,,,,,00957960627fa.jpg,,,,,,,,,,,,,,,
265,13,Memory,5,,,,,,,sunapqwoeotxshkukbh.jpg,,,,,,,,,,,,,,,
266,13,Memory,5,,,,,,,sunaauueuhhvklldjik.jpg,,,,,,,,,,,,,,,
267,13,Memory,5,,,,,,,00314940422fa.jpg,,,,,,,,,,,,,,,
268,13,Memory,5,,,,,,,sunbgklxeqjhdbyfhhy.jpg,,,,,,,,,,,,,,,
269,13,Memory,5,,,,,,,00123931230fb.jpg,,,,,,,,,,,,,,,
270,13,Memory,5,,,,,,,sunaavtbadenwnzeutj.jpg,,,,,,,,,,,,,,,
271,13,Memory,5,,,,,,,sunapwjkcxdaeqehfql.jpg,,,,,,,,,,,,,,,
272,13,Memory,5,,,,,,,00208940128fa.jpg,,,,,,,,,,,,,,,
273,13,Memory,5,,,,,,,00723941201fa.jpg,,,,,,,,,,,,,,,
274,13,Memory,5,,,,,,,sunaalcrrdbjgdztbiz.jpg,,,,,,,,,,,,,,,
275,13,Memory,5,,,,,,,00862940307fa.jpg,,,,,,,,,,,,,,,
276,13,Memory,5,,,,,,,sunaedtgwjvvziytspa.jpg,,,,,,,,,,,,,,,
277,13,Memory,5,,,,,,,sunavhxgmgrqsaptynb.jpg,,,,,,,,,,,,,,,
278,13,Memory,5,,,,,,,00985960627fa.jpg,,,,,,,,,,,,,,,
279,13,Memory,5,,,,,,,sunaazzyhbvqjpmazjq.jpg,,,,,,,,,,,,,,,
280,13,Memory,5,,,,,,,00933960627fa.jpg,,,,,,,,,,,,,,,
281,13,Memory,5,,,,,,,sunaakmxzhuceuiryah.jpg,,,,,,,,,,,,,,,
282,13,Memory,5,,,,,,,sunaajayojuslbbnneg.jpg,,,,,,,,,,,,,,,
283,13,Memory,5,,,,,,,sunawksfbacycuhbrsc.jpg,,,,,,,,,,,,,,,
284,13,Memory,5,,,,,,,00115931230fa.jpg,,,,,,,,,,,,,,,
285,13,Memory,5,,,,,,,00154931230fa.jpg,,,,,,,,,,,,,,,
286,13,Memory,5,,,,,,,00960960627fa.jpg,,,,,,,,,,,,,,,
287,13,Memory,5,,,,,,,sunafgzgbisbopcyslr.jpg,,,,,,,,,,,,,,,
288,13,Memory,5,,,,,,,sunaptrqvaooxfvktvw.jpg,,,,,,,,,,,,,,,
289,13,Memory,5,,,,,,,00262940128fa.jpg,,,,,,,,,,,,,,,
290,13,Memory,5,,,,,,,00913960530fa.jpg,,,,,,,,,,,,,,,
291,13,Memory,5,,,,,,,00926960627Fa.jpg,,,,,,,,,,,,,,,
292,13,Memory,5,,,,,,,00097931230fa.jpg,,,,,,,,,,,,,,,
293,13,Memory,5,,,,,,,00142931230fb.jpg,,,,,,,,,,,,,,,
294,13,Memory,5,,,,,,,00184940128fa.jpg,,,,,,,,,,,,,,,
295,13,Memory,5,,,,,,,00762941201fa.jpg,,,,,,,,,,,,,,,
296,13,Memory,5,,,,,,,sunaizgnnplsvajzhkc.jpg,,,,,,,,,,,,,,,
297,13,Memory,5,,,,,,,00931960627fa.jpg,,,,,,,,,,,,,,,
298,13,Memory,5,,,,,,,sunabctlikybqabezjv.jpg,,,,,,,,,,,,,,,
299,13,Memory,5,,,,,,,sunabwmcbaxwioksdgw.jpg,,,,,,,,,,,,,,,
300,13,Presentation,6,00061931230fb_sunaaekxzjzrfgtkwjf.jpg,00790941205fa_sunagpjzsbltchlwvou.jpg,,,,,,,>,Place,,,,,1,,,,,,,o
301,13,Presentation,6,00925960627fa_sunapqwnqzxlsfvgsjm.jpg,00073931230fa_sunaafbmtoniaasysgu.jpg,,,,,,,<,Face,,,,,1,,,,,,,x
302,13,Presentation,6,00942960627fa_sunarfdklgdnjgeqfjg.jpg,00761960627fa_sunafgdqbclkwfocdhg.jpg,,,,,,,<,Place,,,,,1,,,,,,,x
303,13,Presentation,6,00797960620fa_sunagufzbeteqdjxais.jpg,00968960627fa_sunbagfpovqwbuexqdn.jpg,,,,,,,<,Face,,,,,0,,,,,,,o
304,13,Presentation,6,00218940128fa_sunabbwggenhfbftyvi.jpg,00116931230fa_sunaakqepfoeqomfgxf.jpg,,,,,,,<,Place,,,,,1,,,,,,,x
305,13,Presentation,6,00548940519fa_sunacerqowiaeoqkmsq.jpg,00631940928fa_sunadbdqzigzwipuipr.jpg,,,,,,,>,Place,,,,,1,,,,,,,x
306,13,Presentation,6,00973960627fa_sunbbgtoeuzierkkajt.jpg,00742941201fa_sunaenwuebvlpdmntju.jpg,,,,,,,>,Face,,,,,1,,,,,,,o
307,13,Presentation,6,00543940519fa_sunacepzfrmtkiqonpy.jpg,00111931230fb_sunaakgekhjklxmvulj.jpg,,,,,,,>,Place,,,,,1,,,,,,,o
308,13,Presentation,6,00270940422fb_sunabllobxadqcyttej.jpg,00819940307fa_sunahqldjibofgsfdgb.jpg,,,,,,,>,Face,,,,,1,,,,,,,x
309,13,Presentation,6,00498960627fa_sunabzjxlmkwnwzimua.jpg,00125931230fa_sunaalltyvjhbzhkmvg.jpg,,,,,,,<,Face,,,,,1,,,,,,,x
310,13,Memory,6,,,,,,,00887960530.jpg,,,,,,,,,,,,,,,
311,13,Memory,6,,,,,,,sunaaekxzjzrfgtkwjf.jpg,,,,,,,,,,,,,,,
312,13,Memory,6,,,,,,,00968960627fa.jpg,,,,,,,,,,,,,,,
313,13,Memory,6,,,,,,,sunajrujcsdxmfbssmc.jpg,,,,,,,,,,,,,,,
314,13,Memory,6,,,,,,,00942960627fa.jpg,,,,,,,,,,,,,,,
315,13,Memory,6,,,,,,,00786941205fa.jpg,,,,,,,,,,,,,,,
316,13,Memory,6,,,,,,,sunachtuarilwyqnvjx.jpg,,,,,,,,,,,,,,,
317,13,Memory,6,,,,,,,00996960627fa.jpg,,,,,,,,,,,,,,,
318,13,Memory,6,,,,,,,00061931230fb.jpg,,,,,,,,,,,,,,,
319,13,Memory,6,,,,,,,sunagmhildamktmqjss.jpg,,,,,,,,,,,,,,,
320,13,Memory,6,,,,,,,sunbbgtoeuzierkkajt.jpg,,,,,,,,,,,,,,,
321,13,Memory,6,,,,,,,00973960627fa.jpg,,,,,,,,,,,,,,,
322,13,Memory,6,,,,,,,00130931230fa.jpg,,,,,,,,,,,,,,,
323,13,Memory,6,,,,,,,sunabbwggenhfbftyvi.jpg,,,,,,,,,,,,,,,
324,13,Memory,6,,,,,,,00557940519fa.jpg,,,,,,,,,,,,,,,
325,13,Memory,6,,,,,,,sunalcrtwiycqobgelp.jpg,,,,,,,,,,,,,,,
326,13,Memory,6,,,,,,,sunaamvxnvouicstkjb.jpg,,,,,,,,,,,,,,,
327,13,Memory,6,,,,,,,00227940128fa.jpg,,,,,,,,,,,,,,,
328,13,Memory,6,,,,,,,00819940307fa.jpg,,,,,,,,,,,,,,,
329,13,Memory,6,,,,,,,sunbpvgllfdejxcpjqp.jpg,,,,,,,,,,,,,,,
330,13,Memory,6,,,,,,,sunbagfpovqwbuexqdn.jpg,,,,,,,,,,,,,,,
331,13,Memory,6,,,,,,,sunaamsdyakblkfoydx.jpg,,,,,,,,,,,,,,,
332,13,Memory,6,,,,,,,sunabckqabszusgcykj.jpg,,,,,,,,,,,,,,,
333,13,Memory,6,,,,,,,sunarpsxqkduedrrzyi.jpg,,,,,,,,,,,,,,,
334,13,Memory,6,,,,,,,00548940519fa.jpg,,,,,,,,,,,,,,,
335,13,Memory,6,,,,,,,00871940307.jpg,,,,,,,,,,,,,,,
336,13,Memory,6,,,,,,,sunaalltyvjhbzhkmvg.jpg,,,,,,,,,,,,,,,
337,13,Memory,6,,,,,,,00943960627fa.jpg,,,,,,,,,,,,,,,
338,13,Memory,6,,,,,,,00116931230fa.jpg,,,,,,,,,,,,,,,
339,13,Memory,6,,,,,,,sunafgdqbclkwfocdhg.jpg,,,,,,,,,,,,,,,
340,13,Memory,6,,,,,,,00218940128fa.jpg,,,,,,,,,,,,,,,
341,13,Memory,6,,,,,,,sunacerqowiaeoqkmsq.jpg,,,,,,,,,,,,,,,
342,13,Memory,6,,,,,,,sunarfdklgdnjgeqfjg.jpg,,,,,,,,,,,,,,,
343,13,Memory,6,,,,,,,00129931230fb.jpg,,,,,,,,,,,,,,,
344,13,Memory,6,,,,,,,00761960627fa.jpg,,,,,,,,,,,,,,,
345,13,Memory,6,,,,,,,sunahqldjibofgsfdgb.jpg,,,,,,,,,,,,,,,
346,13,Memory,6,,,,,,,00609940928fa.jpg,,,,,,,,,,,,,,,
347,13,Memory,6,,,,,,,sunacycdoztxoluxjyk.jpg,,,,,,,,,,,,,,,
348,13,Memory,6,,,,,,,sunaakqepfoeqomfgxf.jpg,,,,,,,,,,,,,,,
349,13,Memory,6,,,,,,,00125931230fa.jpg,,,,,,,,,,,,,,,
350,13,Presentation,7,00647941031fa_sunadflbrkckmepztql.jpg,00906960530fa_sunantryfbloeaomfta.jpg,,,,,,,>,Face,,,,,1,,,,,,,x
351,13,Presentation,7,00949960627fb_sunasnqkkyhilqkxiqm.jpg,00827940307fa_sunahtfxgsrmkiulnwk.jpg,,,,,,,<,Place,,,,,1,,,,,,,o
352,13,Presentation,7,00209940128fb_sunabaergayifsgacxt.jpg,00132931230fb_sunaanjcbzdvtvblsdy.jpg,,,,,,,>,Face,,,,,1,,,,,,,o
353,13,Presentation,7,00811960530fa_sunahedfrhtcwpneund.jpg,00505960627fa_sunabzuqsrgcsonqlkz.jpg,,,,,,,<,Face,,,,,1,,,,,,,o
354,13,Presentation,7,00805941205fa_sunagwzdbtlixdhgolm.jpg,00894960620fa_sunalqmfgeadpqsyzpd.jpg,,,,,,,>,Place,,,,,1,,,,,,,o
355,13,Presentation,7,00089931230fa_sunaagcpoejbuzyvddd.jpg,00898960530fa_sunamkmeblgteyggink.jpg,,,,,,,<,Face,,,,,1,,,,,,,x
356,13,Presentation,7,00138931230fa_sunaapfaivxqoynnwwp.jpg,00725941201fa_sunaefgzwiramypjvtd.jpg,,,,,,,<,Place,,,,,1,,,,,,,x
357,13,Presentation,7,00096931230fa_sunaaiqiqcggrskoqgy.jpg,00810941205fa_sunahctntqrunhdxhtb.jpg,,,,,,,>,Face,,,,,1,,,,,,,o
358,13,Presentation,7,00214940128fa_sunabbafjowbzcvbucc.jpg,00564940928fa_sunacmpqqfbsvlzinzl.jpg,,,,,,,<,Place,,,,,1,,,,,,,o
359,13,Presentation,7,00780960530fa_sunagetqixeypsysbpn.jpg,00750941201fa_sunaeuzwggvibufclwf.jpg,,,,,,,>,Place,,,,,1,,,,,,,o
360,13,Memory,7,,,,,,,sunamkmeblgteyggink.jpg,,,,,,,,,,,,,,,
361,13,Memory,7,,,,,,,sunaafynehyrzpsoaml.jpg,,,,,,,,,,,,,,,
362,13,Memory,7,,,,,,,sunaaexqbtdswxrqjvz.jpg,,,,,,,,,,,,,,,
363,13,Memory,7,,,,,,,sunagetqixeypsysbpn.jpg,,,,,,,,,,,,,,,
364,13,Memory,7,,,,,,,00780960530fa.jpg,,,,,,,,,,,,,,,
365,13,Memory,7,,,,,,,sunadakkdovnuzlycvp.jpg,,,,,,,,,,,,,,,
366,13,Memory,7,,,,,,,00209940128fb.jpg,,,,,,,,,,,,,,,
367,13,Memory,7,,,,,,,00071941031fa.jpg,,,,,,,,,,,,,,,
368,13,Memory,7,,,,,,,00647941031fa.jpg,,,,,,,,,,,,,,,
369,13,Memory,7,,,,,,,sunabtlfmiwtljmoues.jpg,,,,,,,,,,,,,,,
370,13,Memory,7,,,,,,,00827940307fa.jpg,,,,,,,,,,,,,,,
371,13,Memory,7,,,,,,,00993960627fa.jpg,,,,,,,,,,,,,,,
372,13,Memory,7,,,,,,,sunaeuzwggvibufclwf.jpg,,,,,,,,,,,,,,,
373,13,Memory,7,,,,,,,00750941201fa.jpg,,,,,,,,,,,,,,,
374,13,Memory,7,,,,,,,sunabclssnoeuigtawp.jpg,,,,,,,,,,,,,,,
375,13,Memory,7,,,,,,,00235940128fb.jpg,,,,,,,,,,,,,,,
376,13,Memory,7,,,,,,,sunadflbrkckmepztql.jpg,,,,,,,,,,,,,,,
377,13,Memory,7,,,,,,,00089931230fa.jpg,,,,,,,,,,,,,,,
378,13,Memory,7,,,,,,,sunaagcpoejbuzyvddd.jpg,,,,,,,,,,,,,,,
379,13,Memory,7,,,,,,,sunbprywzqxjcezkbch.jpg,,,,,,,,,,,,,,,
380,13,Memory,7,,,,,,,sunasnqkkyhilqkxiqm.jpg,,,,,,,,,,,,,,,
381,13,Memory,7,,,,,,,00505960627fa.jpg,,,,,,,,,,,,,,,
382,13,Memory,7,,,,,,,01007960627fa.jpg,,,,,,,,,,,,,,,
383,13,Memory,7,,,,,,,00302940422fa.jpg,,,,,,,,,,,,,,,
384,13,Memory,7,,,,,,,00086931230fa.jpg,,,,,,,,,,,,,,,
385,13,Memory,7,,,,,,,sunaanjcbzdvtvblsdy.jpg,,,,,,,,,,,,,,,
386,13,Memory,7,,,,,,,00132931230fb.jpg,,,,,,,,,,,,,,,
387,13,Memory,7,,,,,,,00971960627fa.jpg,,,,,,,,,,,,,,,
388,13,Memory,7,,,,,,,sunabzuqsrgcsonqlkz.jpg,,,,,,,,,,,,,,,
389,13,Memory,7,,,,,,,00630941031fa.jpg,,,,,,,,,,,,,,,
390,13,Memory,7,,,,,,,00936960627fa.jpg,,,,,,,,,,,,,,,
391,13,Memory,7,,,,,,,sunbbegcweqnetpdlrh.jpg,,,,,,,,,,,,,,,
392,13,Memory,7,,,,,,,sunabaergayifsgacxt.jpg,,,,,,,,,,,,,,,
393,13,Memory,7,,,,,,,00098931230fa.jpg,,,,,,,,,,,,,,,
394,13,Memory,7,,,,,,,sunaqgjuuwvdcyiccjt.jpg,,,,,,,,,,,,,,,
395,13,Memory,7,,,,,,,sunahtfxgsrmkiulnwk.jpg,,,,,,,,,,,,,,,
396,13,Memory,7,,,,,,,sunbxarcshsnqsefemx.jpg,,,,,,,,,,,,,,,
397,13,Memory,7,,,,,,,sunaajpqmulidejvjsr.jpg,,,,,,,,,,,,,,,
398,13,Memory,7,,,,,,,00949960627fb.jpg,,,,,,,,,,,,,,,
399,13,Memory,7,,,,,,,00898960530fa.jpg,,,,,,,,,,,,,,,
