,Subject,Trial Type,Run,Cued Composite,Uncued Composite,Cued Face,Cued Place,Uncued Face,Uncued Place,Memory Image,Category,Cued Side,Cued Category,Attention Reaction Time (s),Familiarity Reaction Time (s),Familiarity Rating,Attention Level,Cue Validity,Post Invalid Cue,Pre Invalid Cue,Attention Button,Rating History,Stimulus Onset,Stimulus End,Attention Probe
60,17,Memory,1,,,,,,,sunbloeoiozwjjsiamp.jpg,,,,,1.437,3.0,,,,,,,1554142428.155526,1554142430.190072,
61,17,Memory,1,,,,,,,sunafcofuuzebuadceo.jpg,,,,,0.0,,,,,,,,1554142431.472935,1554142433.440059,
62,17,Memory,1,,,,,,,sunaakxjfbrrequcjmx.jpg,,,,,1.819,1.0,,,,,,,1554142434.758014,1554142436.725969,
63,17,Memory,1,,,,,,,00990960627fa.jpg,,,,,0.97,3.0,,,,,,,1554142437.992204,1554142440.0266,
64,17,Memory,1,,,,,,,00957960627fa.jpg,,,,,1.286,2.0,,,,,,,1554142441.29331,1554142443.2597,
65,17,Memory,1,,,,,,,sunaixpqndlwhwjtjek.jpg,,,,,1.987,3.0,,,,,,,1554142444.511691,1554142446.478402,
66,17,Memory,1,,,,,,,00747941201fa.jpg,,,,,1.204,2.0,,,,,,,1554142447.728842,1554142449.696052,
67,17,Memory,1,,,,,,,sunahwgbqkqcrwprgvh.jpg,,,,,1.136,3.0,,,,,,,1554142450.946218,1554142452.914011,
68,17,Memory,1,,,,,,,00805941205fa.jpg,,,,,1.153,2.0,,,,,,,1554142454.164384,1554142456.131355,
69,17,Memory,1,,,,,,,sunaavtbadenwnzeutj.jpg,,,,,1.22,2.0,,,,,,,1554142457.381451,1554142459.349541,
70,17,Memory,1,,,,,,,sunasnqkkyhilqkxiqm.jpg,,,,,0.904,3.0,,,,,,,1554142460.616508,1554142462.582774,
71,17,Memory,1,,,,,,,00753941201fa.jpg,,,,,1.12,2.0,,,,,,,1554142463.850509,1554142465.817977,
72,17,Memory,1,,,,,,,00564940928fa.jpg,,,,,0.77,3.0,,,,,,,1554142467.085682,1554142469.051097,
73,17,Memory,1,,,,,,,sunbpflsdaxnddnwcqi.jpg,,,,,1.12,2.0,,,,,,,1554142470.302921,1554142472.269316,
74,17,Memory,1,,,,,,,sunbaejotfklekvpxcz.jpg,,,,,1.621,1.0,,,,,,,1554142473.52035,1554142475.488192,
75,17,Memory,1,,,,,,,00662941121fa.jpg,,,,,1.153,3.0,,,,,,,1554142476.738356,1554142478.704612,
76,17,Memory,1,,,,,,,00987960627fa.jpg,,,,,0.986,2.0,,,,,,,1554142479.956625,1554142481.922634,
77,17,Memory,1,,,,,,,00949960627fb.jpg,,,,,1.172,3.0,,,,,,,1554142483.189727,1554142485.157523,
78,17,Memory,1,,,,,,,00184940128fa.jpg,,,,,1.637,2.0,,,,,,,1554142486.424022,1554142488.392001,
79,17,Memory,1,,,,,,,00967960627fa.jpg,,,,,1.67,3.0,,,,,,,1554142489.643149,1554142491.609213,
80,17,Memory,1,,,,,,,00829940307fa.jpg,,,,,1.238,2.0,,,,,,,1554142492.860186,1554142494.827176,
81,17,Memory,1,,,,,,,00908960530fa.jpg,,,,,1.037,3.0,,,,,,,1554142496.095205,1554142498.061539,
82,17,Memory,1,,,,,,,sunaahedjlmtqekgyvj.jpg,,,,,0.854,3.0,,,,,,,1554142499.313393,1554142501.279804,
83,17,Memory,1,,,,,,,sunanwjjyqqwzqrqagd.jpg,,,,,1.087,2.0,,,,,,,1554142502.54656,1554142504.513838,
84,17,Memory,1,,,,,,,00119931230fb.jpg,,,,,1.554,3.0,,,,,,,1554142505.797014,1554142507.764981,
85,17,Memory,1,,,,,,,sunadfktsqjthoglcsm.jpg,,,,,1.521,2.0,,,,,,,1554142509.014154,1554142510.983243,
86,17,Memory,1,,,,,,,sunagwzdbtlixdhgolm.jpg,,,,,1.203,2.0,,,,,,,1554142512.232361,1554142514.200347,
87,17,Memory,1,,,,,,,sunaajspcoepticvplv.jpg,,,,,1.537,2.0,,,,,,,1554142515.451432,1554142517.417739,
88,17,Memory,1,,,,,,,sunadkazmlajmohnwfl.jpg,,,,,1.071,3.0,,,,,,,1554142518.684658,1554142520.652623,
89,17,Memory,1,,,,,,,sunaakvmbftkrgqhjun.jpg,,,,,0.753,2.0,,,,,,,1554142521.902513,1554142523.870007,
90,17,Memory,1,,,,,,,sunacmpqqfbsvlzinzl.jpg,,,,,0.854,2.0,,,,,,,1554142525.137926,1554142527.103918,
91,17,Memory,1,,,,,,,00102931230fa.jpg,,,,,1.57,2.0,,,,,,,1554142528.371977,1554142530.339351,
92,17,Memory,1,,,,,,,00638941031fa.jpg,,,,,1.054,3.0,,,,,,,1554142531.589304,1554142533.556316,
93,17,Memory,1,,,,,,,sunavhxgmgrqsaptynb.jpg,,,,,1.152,2.0,,,,,,,1554142534.807431,1554142536.774606,
94,17,Memory,1,,,,,,,00858940307fa.jpg,,,,,1.12,2.0,,,,,,,1554142538.023748,1554142539.992714,
95,17,Memory,1,,,,,,,00794960620fa.jpg,,,,,0.804,2.0,,,,,,,1554142541.259776,1554142543.226037,
96,17,Memory,1,,,,,,,sunagtqhhwxjeuxdebe.jpg,,,,,0.904,2.0,,,,,,,1554142544.47695,1554142546.443938,
97,17,Memory,1,,,,,,,00122931230fa.jpg,,,,,1.053,3.0,,,,,,,1554142547.694399,1554142549.662235,
98,17,Memory,1,,,,,,,00090931230fa.jpg,,,,,0.87,2.0,,,,,,,1554142550.912385,1554142552.879419,
99,17,Memory,1,,,,,,,sunaeutbrtswvsozxyk.jpg,,,,,1.319,2.0,,,,,,,1554142554.130617,1554142556.097658,
