,Subject,Trial Type,Run,Cued Composite,Uncued Composite,Cued Face,Cued Place,Uncued Face,Uncued Place,Memory Image,Category,Cued Side,Cued Category,Attention Reaction Time (s),Familiarity Reaction Time (s),Familiarity Rating,Attention Level,Cue Validity,Post Invalid Cue,Pre Invalid Cue,Attention Button,Rating History,Stimulus Onset,Stimulus End,Attention Probe
310,29,Memory,6,,,,,,,sunaauhozyxzeeqstxi.jpg,,,,,0.976,4.0,,,,,,,1556034910.977691,1556034913.793407,
311,29,Memory,6,,,,,,,sunacacflqoyxhsqzhe.jpg,,,,,0.944,1.0,,,,,,,1556034915.077896,1556034917.744973,
312,29,Memory,6,,,,,,,00959960627fa.jpg,,,,,0.721,2.0,,,,,,,1556034919.029318,1556034921.125873,
313,29,Memory,6,,,,,,,sunagpancjmxqfazssf.jpg,,,,,0.709,3.0,,,,,,,1556034922.430436,1556034924.597147,
314,29,Memory,6,,,,,,,sunapqwnqzxlsfvgsjm.jpg,,,,,0.742,4.0,,,,,,,1556034925.865421,1556034928.532638,
315,29,Memory,6,,,,,,,00185940422fb.jpg,,,,,1.047,2.0,,,,,,,1556034929.933601,1556034933.834106,
316,29,Memory,6,,,,,,,00768941205fa.jpg,,,,,1.212,2.0,,,,,,,1556034935.300234,1556034939.203161,
317,29,Memory,6,,,,,,,sunaampvucecsfbdafn.jpg,,,,,0.978,4.0,,,,,,,1556034940.619592,1556034944.503679,
318,29,Memory,6,,,,,,,01010960627fa.jpg,,,,,2.13,3.0,,,,,,,1556034945.821689,1556034949.605711,
319,29,Memory,6,,,,,,,sunaqgjuuwvdcyiccjt.jpg,,,,,1.079,3.0,,,,,,,1556034950.974072,1556034954.873342,
320,29,Memory,6,,,,,,,00876960620fa.jpg,,,,,1.545,1.0,,,,,,,1556034956.208591,1556034960.009519,
321,29,Memory,6,,,,,,,sunavspxmxubqaeidjt.jpg,,,,,1.179,2.0,,,,,,,1556034961.494293,1556034965.327662,
322,29,Memory,6,,,,,,,sunaaelotvjgibjtjhs.jpg,,,,,1.429,2.0,,,,,,,1556034966.794905,1556034970.646839,
323,29,Memory,6,,,,,,,sunafkmnlytenlsywia.jpg,,,,,1.194,4.0,,,,,,,1556034971.981058,1556034975.76541,
324,29,Memory,6,,,,,,,00153931230fa.jpg,,,,,0.896,2.0,,,,,,,1556034977.099333,1556034980.749578,
325,29,Memory,6,,,,,,,sunahctntqrunhdxhtb.jpg,,,,,0.879,3.0,,,,,,,1556034982.133908,1556034986.034958,
326,29,Memory,6,,,,,,,00788941205fa.jpg,,,,,0.879,2.0,,,,,,,1556034987.369109,1556034991.187101,
327,29,Memory,6,,,,,,,00138931230fa.jpg,,,,,1.628,3.0,,,,,,,1556034992.620274,1556034996.238617,
328,29,Memory,6,,,,,,,00149931230fa.jpg,,,,,0.613,2.0,,,,,,,1556034997.571296,1556035001.472797,
329,29,Memory,6,,,,,,,sunavxokzybtomhbmvm.jpg,,,,,1.779,3.0,,,,,,,1556035002.923897,1556035006.825149,
330,29,Memory,6,,,,,,,sunaydywdmvlfddbxbk.jpg,,,,,1.094,3.0,,,,,,,1556035008.125447,1556035011.543126,
331,29,Memory,6,,,,,,,sunbddbivbptlrlauhy.jpg,,,,,1.212,4.0,,,,,,,1556035012.876769,1556035016.677602,
332,29,Memory,6,,,,,,,00958960627fa.jpg,,,,,1.063,3.0,,,,,,,1556035018.111677,1556035021.96376,
333,29,Memory,6,,,,,,,00647941031fa.jpg,,,,,0.411,3.0,,,,,,,1556035023.413072,1556035026.815249,
334,29,Memory,6,,,,,,,00789960620fa.jpg,,,,,0.88,2.0,,,,,,,1556035028.248441,1556035032.149774,
335,29,Memory,6,,,,,,,sunaapfaivxqoynnwwp.jpg,,,,,1.145,2.0,,,,,,,1556035033.465668,1556035037.367885,
336,29,Memory,6,,,,,,,00810941205fa.jpg,,,,,1.262,1.0,,,,,,,1556035038.700987,1556035042.219956,
337,29,Memory,6,,,,,,,sunadflbrkckmepztql.jpg,,,,,2.58,1.0,,,,,,,1556035043.553212,1556035047.455202,
338,29,Memory,6,,,,,,,00978960627fa.jpg,,,,,1.113,4.0,,,,,,,1556035048.788349,1556035052.689832,
339,29,Memory,6,,,,,,,00936960627fa.jpg,,,,,1.146,2.0,,,,,,,1556035054.14008,1556035057.640924,
340,29,Memory,6,,,,,,,00965960627fa.jpg,,,,,0.761,3.0,,,,,,,1556035059.024217,1556035062.876386,
341,29,Memory,6,,,,,,,sunaauglwmctnkxyird.jpg,,,,,1.011,2.0,,,,,,,1556035064.209333,1556035068.110571,
342,29,Memory,6,,,,,,,sunaawqdbpihmlbwyyn.jpg,,,,,0.845,3.0,,,,,,,1556035069.461744,1556035073.362942,
343,29,Memory,6,,,,,,,00507940519fa.jpg,,,,,1.18,3.0,,,,,,,1556035074.713884,1556035078.615013,
344,29,Memory,6,,,,,,,00062931230fb.jpg,,,,,0.869,2.0,,,,,,,1556035080.031216,1556035083.433143,
345,29,Memory,6,,,,,,,00925960627fa.jpg,,,,,0.913,2.0,,,,,,,1556035084.883505,1556035088.484736,
346,29,Memory,6,,,,,,,sunajwqkfsykceonyig.jpg,,,,,0.846,3.0,,,,,,,1556035089.817648,1556035093.719144,
347,29,Memory,6,,,,,,,00127931230fa.jpg,,,,,0.681,3.0,,,,,,,1556035095.053283,1556035098.954128,
348,29,Memory,6,,,,,,,suncnkvbhypnivcohyx.jpg,,,,,2.112,2.0,,,,,,,1556035100.288312,1556035104.188737,
349,29,Memory,6,,,,,,,sunagountlxpzkytsmp.jpg,,,,,0.603,3.0,,,,,,,1556035105.574424,1556035108.957513,
