,Subject,Trial Type,Run,Cued Composite,Uncued Composite,Cued Face,Cued Place,Uncued Face,Uncued Place,Memory Image,Category,Cued Side,Cued Category,Attention Response Time (s),Familiarity Reaction Time (s),Familiarity Rating,Attention Level,Cue Validity,Post Invalid Cue,Pre Invalid Cue,Attention Button,Rating History,Stimulus Onset,Stimulus End,Attention Probe
0,26,Presentation,0,00891960530fa_sunalkiibhqpxfamlll.jpg,00753941201fa_sunafcofuuzebuadceo.jpg,,,,,,,<,Place,,,,,1,,,,,,,x
1,26,Presentation,0,00700941121fa_sunadsgmtznewzyasnk.jpg,00076931230fa_sunaafewhewbxmjiurz.jpg,,,,,,,>,Place,,,,,1,,,,,,,o
2,26,Presentation,0,00794960620fa_sunagtqhhwxjeuxdebe.jpg,00795941205fa_sunagtumacdlmciqamz.jpg,,,,,,,<,Face,,,,,1,,,,,,,o
3,26,Presentation,0,00963960627fa_sunayaepykrqvenaqqy.jpg,00077931230fb_sunaafgqutfaishsxyu.jpg,,,,,,,>,Place,,,,,1,,,,,,,x
4,26,Presentation,0,01010960627fa_suncnkvbhypnivcohyx.jpg,00265940128fb_sunabkmdplkdbvxriff.jpg,,,,,,,>,Face,,,,,1,,,,,,,o
5,26,Presentation,0,00958960627fa_sunavspxmxubqaeidjt.jpg,00790941205fa_sunagpjzsbltchlwvou.jpg,,,,,,,>,Place,,,,,1,,,,,,,x
6,26,Presentation,0,00741941201fa_sunaemcowdozyphwknd.jpg,00296940422fa_sunabrwnslxalcohfre.jpg,,,,,,,<,Face,,,,,1,,,,,,,o
7,26,Presentation,0,00950960627fa_sunasrjlmglmjzbmqxb.jpg,00957960627fa_sunavhxgmgrqsaptynb.jpg,,,,,,,>,Face,,,,,1,,,,,,,x
8,26,Presentation,0,00101931230fb_sunaajqmsaavkmgbsth.jpg,00785941205fa_sunaglqunwuycxydmyu.jpg,,,,,,,<,Face,,,,,1,,,,,,,x
9,26,Presentation,0,00154931230fa_sunaauueuhhvklldjik.jpg,00801941205fa_sunagvprlbprarvgdvj.jpg,,,,,,,<,Place,,,,,0,,,,,,,o
10,26,Memory,0,,,,,,,00866940307fa.jpg,,,,,,,,,,,,,,,
11,26,Memory,0,,,,,,,00914960620fa.jpg,,,,,,,,,,,,,,,
12,26,Memory,0,,,,,,,sunaauueuhhvklldjik.jpg,,,,,,,,,,,,,,,
13,26,Memory,0,,,,,,,sunasrjlmglmjzbmqxb.jpg,,,,,,,,,,,,,,,
14,26,Memory,0,,,,,,,sunaaheqzstzxuadglu.jpg,,,,,,,,,,,,,,,
15,26,Memory,0,,,,,,,00700941121fa.jpg,,,,,,,,,,,,,,,
16,26,Memory,0,,,,,,,00894960620fa.jpg,,,,,,,,,,,,,,,
17,26,Memory,0,,,,,,,sunavhxgmgrqsaptynb.jpg,,,,,,,,,,,,,,,
18,26,Memory,0,,,,,,,00785941205fa.jpg,,,,,,,,,,,,,,,
19,26,Memory,0,,,,,,,sunahqldjibofgsfdgb.jpg,,,,,,,,,,,,,,,
20,26,Memory,0,,,,,,,00950960627fa.jpg,,,,,,,,,,,,,,,
21,26,Memory,0,,,,,,,sunayaepykrqvenaqqy.jpg,,,,,,,,,,,,,,,
22,26,Memory,0,,,,,,,00851940307fa.jpg,,,,,,,,,,,,,,,
23,26,Memory,0,,,,,,,00790941205fa.jpg,,,,,,,,,,,,,,,
24,26,Memory,0,,,,,,,00092931230fa.jpg,,,,,,,,,,,,,,,
25,26,Memory,0,,,,,,,00966960627fa.jpg,,,,,,,,,,,,,,,
26,26,Memory,0,,,,,,,00819940307fa.jpg,,,,,,,,,,,,,,,
27,26,Memory,0,,,,,,,sunagvprlbprarvgdvj.jpg,,,,,,,,,,,,,,,
28,26,Memory,0,,,,,,,00609940928fa.jpg,,,,,,,,,,,,,,,
29,26,Memory,0,,,,,,,sunaygrtwrwfezqjizr.jpg,,,,,,,,,,,,,,,
30,26,Memory,0,,,,,,,sunaozisvwfbmlkfhzv.jpg,,,,,,,,,,,,,,,
31,26,Memory,0,,,,,,,00076931230fa.jpg,,,,,,,,,,,,,,,
32,26,Memory,0,,,,,,,00839940307fa.jpg,,,,,,,,,,,,,,,
33,26,Memory,0,,,,,,,00957960627fa.jpg,,,,,,,,,,,,,,,
34,26,Memory,0,,,,,,,sunalqmfgeadpqsyzpd.jpg,,,,,,,,,,,,,,,
35,26,Memory,0,,,,,,,sunajbwkywmsqkldfml.jpg,,,,,,,,,,,,,,,
36,26,Memory,0,,,,,,,00154931230fa.jpg,,,,,,,,,,,,,,,
37,26,Memory,0,,,,,,,00801941205fa.jpg,,,,,,,,,,,,,,,
38,26,Memory,0,,,,,,,sunadsgmtznewzyasnk.jpg,,,,,,,,,,,,,,,
39,26,Memory,0,,,,,,,00963960627fa.jpg,,,,,,,,,,,,,,,
40,26,Memory,0,,,,,,,sunaipyohrqlwngaqif.jpg,,,,,,,,,,,,,,,
41,26,Memory,0,,,,,,,sunaafewhewbxmjiurz.jpg,,,,,,,,,,,,,,,
42,26,Memory,0,,,,,,,sunabwfvcqqidycwypa.jpg,,,,,,,,,,,,,,,
43,26,Memory,0,,,,,,,00741941201fa.jpg,,,,,,,,,,,,,,,
44,26,Memory,0,,,,,,,sunaglqunwuycxydmyu.jpg,,,,,,,,,,,,,,,
45,26,Memory,0,,,,,,,sunacycdoztxoluxjyk.jpg,,,,,,,,,,,,,,,
46,26,Memory,0,,,,,,,sunagpjzsbltchlwvou.jpg,,,,,,,,,,,,,,,
47,26,Memory,0,,,,,,,00308940422fb.jpg,,,,,,,,,,,,,,,
48,26,Memory,0,,,,,,,sunaemcowdozyphwknd.jpg,,,,,,,,,,,,,,,
49,26,Memory,0,,,,,,,sunaivflshbyfrfzhqb.jpg,,,,,,,,,,,,,,,
50,26,Presentation,1,00270940422fb_sunabllobxadqcyttej.jpg,00302940422fa_sunabtlfmiwtljmoues.jpg,,,,,,,<,Face,,,,,1,,,,,,,x
51,26,Presentation,1,01004960627fa_sunbwtlihsuptkrckid.jpg,00887960530_sunalcrtwiycqobgelp.jpg,,,,,,,>,Face,,,,,1,,,,,,,x
52,26,Presentation,1,00971960627fa_sunbbegcweqnetpdlrh.jpg,00789960620fa_sunagpancjmxqfazssf.jpg,,,,,,,<,Place,,,,,1,,,,,,,x
53,26,Presentation,1,00505960627fa_sunabzuqsrgcsonqlkz.jpg,00986960627fa_sunbgzjryivyczuvkvm.jpg,,,,,,,>,Place,,,,,1,,,,,,,o
54,26,Presentation,1,00681941121fa_sunadqmjrhfjyuzyvdd.jpg,00705941205fa_sunadtlxenqqxsyjvix.jpg,,,,,,,<,Place,,,,,1,,,,,,,o
55,26,Presentation,1,00267940128fb_sunablfqiwfqomjarht.jpg,00815941205fa_sunahiphsekjihkafsl.jpg,,,,,,,<,Face,,,,,1,,,,,,,x
56,26,Presentation,1,00125931230fa_sunaalltyvjhbzhkmvg.jpg,00902960530fa_sunanaacmmosxrfwmvl.jpg,,,,,,,>,Face,,,,,1,,,,,,,x
57,26,Presentation,1,00720960620fa_sunaecpkgfewqqreqwe.jpg,00750941201fa_sunaeuzwggvibufclwf.jpg,,,,,,,<,Place,,,,,1,,,,,,,o
58,26,Presentation,1,00782941205fa_sunagfvluwixdsozaql.jpg,00239940128fa_sunabctlikybqabezjv.jpg,,,,,,,>,Place,,,,,1,,,,,,,o
59,26,Presentation,1,00235940128fb_sunabclssnoeuigtawp.jpg,00787941205fa_sunagmwxxwymwojbvgi.jpg,,,,,,,>,Face,,,,,1,,,,,,,o
60,26,Memory,1,,,,,,,sunadtlxenqqxsyjvix.jpg,,,,,,,,,,,,,,,
61,26,Memory,1,,,,,,,sunahctntqrunhdxhtb.jpg,,,,,,,,,,,,,,,
62,26,Memory,1,,,,,,,00267940128fb.jpg,,,,,,,,,,,,,,,
63,26,Memory,1,,,,,,,sunabclssnoeuigtawp.jpg,,,,,,,,,,,,,,,
64,26,Memory,1,,,,,,,00782941205fa.jpg,,,,,,,,,,,,,,,
65,26,Memory,1,,,,,,,sunaletopenvvozhpxc.jpg,,,,,,,,,,,,,,,
66,26,Memory,1,,,,,,,00125931230fa.jpg,,,,,,,,,,,,,,,
67,26,Memory,1,,,,,,,00745941205fa.jpg,,,,,,,,,,,,,,,
68,26,Memory,1,,,,,,,00302940422fa.jpg,,,,,,,,,,,,,,,
69,26,Memory,1,,,,,,,sunaeouogqolxvggaoq.jpg,,,,,,,,,,,,,,,
70,26,Memory,1,,,,,,,sunaalltyvjhbzhkmvg.jpg,,,,,,,,,,,,,,,
71,26,Memory,1,,,,,,,sunbagfpovqwbuexqdn.jpg,,,,,,,,,,,,,,,
72,26,Memory,1,,,,,,,00146960620fb.jpg,,,,,,,,,,,,,,,
73,26,Memory,1,,,,,,,00061931230fb.jpg,,,,,,,,,,,,,,,
74,26,Memory,1,,,,,,,sunabjzyxcjnmztdonj.jpg,,,,,,,,,,,,,,,
75,26,Memory,1,,,,,,,sunablfqiwfqomjarht.jpg,,,,,,,,,,,,,,,
76,26,Memory,1,,,,,,,sunaaekxzjzrfgtkwjf.jpg,,,,,,,,,,,,,,,
77,26,Memory,1,,,,,,,00235940128fb.jpg,,,,,,,,,,,,,,,
78,26,Memory,1,,,,,,,00810941205fa.jpg,,,,,,,,,,,,,,,
79,26,Memory,1,,,,,,,00968960627fa.jpg,,,,,,,,,,,,,,,
80,26,Memory,1,,,,,,,00936960627fa.jpg,,,,,,,,,,,,,,,
81,26,Memory,1,,,,,,,sunabtlfmiwtljmoues.jpg,,,,,,,,,,,,,,,
82,26,Memory,1,,,,,,,sunadqmjrhfjyuzyvdd.jpg,,,,,,,,,,,,,,,
83,26,Memory,1,,,,,,,00986960627fa.jpg,,,,,,,,,,,,,,,
84,26,Memory,1,,,,,,,00889960530fa.jpg,,,,,,,,,,,,,,,
85,26,Memory,1,,,,,,,sunaatpeezlljqaxlhj.jpg,,,,,,,,,,,,,,,
86,26,Memory,1,,,,,,,sunagfvluwixdsozaql.jpg,,,,,,,,,,,,,,,
87,26,Memory,1,,,,,,,00681941121fa.jpg,,,,,,,,,,,,,,,
88,26,Memory,1,,,,,,,00900960530fa.jpg,,,,,,,,,,,,,,,
89,26,Memory,1,,,,,,,00902960530fa.jpg,,,,,,,,,,,,,,,
90,26,Memory,1,,,,,,,00559940519fa.jpg,,,,,,,,,,,,,,,
91,26,Memory,1,,,,,,,sunbgzjryivyczuvkvm.jpg,,,,,,,,,,,,,,,
92,26,Memory,1,,,,,,,00750941201fa.jpg,,,,,,,,,,,,,,,
93,26,Memory,1,,,,,,,sunaeuzwggvibufclwf.jpg,,,,,,,,,,,,,,,
94,26,Memory,1,,,,,,,00264940128fb.jpg,,,,,,,,,,,,,,,
95,26,Memory,1,,,,,,,00705941205fa.jpg,,,,,,,,,,,,,,,
96,26,Memory,1,,,,,,,sunaqgjuuwvdcyiccjt.jpg,,,,,,,,,,,,,,,
97,26,Memory,1,,,,,,,sunamlotskmmsjeogby.jpg,,,,,,,,,,,,,,,
98,26,Memory,1,,,,,,,sunanaacmmosxrfwmvl.jpg,,,,,,,,,,,,,,,
99,26,Memory,1,,,,,,,sunacjkmnpawfzbyvae.jpg,,,,,,,,,,,,,,,
100,26,Presentation,2,00554940519fa_sunacfdkbsrughwqwtt.jpg,00097931230fa_sunaajayojuslbbnneg.jpg,,,,,,,>,Face,,,,,0,,,,,,,o
101,26,Presentation,2,00109931230fa_sunaajuzribjrizdshh.jpg,00985960627fa_sunbgklxeqjhdbyfhhy.jpg,,,,,,,>,Place,,,,,1,,,,,,,o
102,26,Presentation,2,00314940422fa_sunabwmcbaxwioksdgw.jpg,00747941201fa_sunaeutbrtswvsozxyk.jpg,,,,,,,<,Place,,,,,1,,,,,,,o
103,26,Presentation,2,00768941205fa_sunafkmnlytenlsywia.jpg,00129931230fb_sunaamsdyakblkfoydx.jpg,,,,,,,<,Face,,,,,1,,,,,,,x
104,26,Presentation,2,00776941205fa_sunafxokyavhgptyfye.jpg,00825940307fa_sunahrltmuwbiehihpe.jpg,,,,,,,>,Face,,,,,1,,,,,,,x
105,26,Presentation,2,00869940307fa_sunajoveqhiprwqgoco.jpg,00719960620fa_sunadzuvtmtmgupotmf.jpg,,,,,,,<,Place,,,,,1,,,,,,,o
106,26,Presentation,2,00893960530Fa_sunaloffvbvysigxent.jpg,00787960620fa_sunagoufulkpsxrmklt.jpg,,,,,,,<,Face,,,,,1,,,,,,,o
107,26,Presentation,2,00898960530fa_sunamkmeblgteyggink.jpg,00857940307fa_sunaiwfobocrruqznsv.jpg,,,,,,,>,Face,,,,,1,,,,,,,o
108,26,Presentation,2,00532960627fa_sunaccdtpgenvcbcbcf.jpg,00263940128fb_sunabjuovqvyfuzvqwt.jpg,,,,,,,<,Place,,,,,1,,,,,,,x
109,26,Presentation,2,00812941205fa_sunahgtbwgsmtqeodwh.jpg,00901960530fa_sunammbnoambmhdxdwd.jpg,,,,,,,>,Place,,,,,1,,,,,,,x
110,26,Memory,2,,,,,,,00857940307fa.jpg,,,,,,,,,,,,,,,
111,26,Memory,2,,,,,,,sunafvwfsmqkjrutjta.jpg,,,,,,,,,,,,,,,
112,26,Memory,2,,,,,,,00097931230fa.jpg,,,,,,,,,,,,,,,
113,26,Memory,2,,,,,,,01207940128fa.jpg,,,,,,,,,,,,,,,
114,26,Memory,2,,,,,,,sunadrmfzmstgdjdcod.jpg,,,,,,,,,,,,,,,
115,26,Memory,2,,,,,,,sunaiwfobocrruqznsv.jpg,,,,,,,,,,,,,,,
116,26,Memory,2,,,,,,,sunacfdkbsrughwqwtt.jpg,,,,,,,,,,,,,,,
117,26,Memory,2,,,,,,,sunaajuzribjrizdshh.jpg,,,,,,,,,,,,,,,
118,26,Memory,2,,,,,,,00825940307fa.jpg,,,,,,,,,,,,,,,
119,26,Memory,2,,,,,,,sunahqrxievfeusiqlt.jpg,,,,,,,,,,,,,,,
120,26,Memory,2,,,,,,,sunaavjinpnkappuonm.jpg,,,,,,,,,,,,,,,
121,26,Memory,2,,,,,,,00109931230fa.jpg,,,,,,,,,,,,,,,
122,26,Memory,2,,,,,,,00554940519fa.jpg,,,,,,,,,,,,,,,
123,26,Memory,2,,,,,,,00841940307fa.jpg,,,,,,,,,,,,,,,
124,26,Memory,2,,,,,,,sunammbnoambmhdxdwd.jpg,,,,,,,,,,,,,,,
125,26,Memory,2,,,,,,,sunaloffvbvysigxent.jpg,,,,,,,,,,,,,,,
126,26,Memory,2,,,,,,,00822940307fa.jpg,,,,,,,,,,,,,,,
127,26,Memory,2,,,,,,,00775941205fa.jpg,,,,,,,,,,,,,,,
128,26,Memory,2,,,,,,,sunahbvlpavurqoxdeq.jpg,,,,,,,,,,,,,,,
129,26,Memory,2,,,,,,,00090931230fa.jpg,,,,,,,,,,,,,,,
130,26,Memory,2,,,,,,,sunaaelyvurpntclgau.jpg,,,,,,,,,,,,,,,
131,26,Memory,2,,,,,,,00901960530fa.jpg,,,,,,,,,,,,,,,
132,26,Memory,2,,,,,,,sunadzuvtmtmgupotmf.jpg,,,,,,,,,,,,,,,
133,26,Memory,2,,,,,,,00829940307fa.jpg,,,,,,,,,,,,,,,
134,26,Memory,2,,,,,,,00063931230fa.jpg,,,,,,,,,,,,,,,
135,26,Memory,2,,,,,,,00809960620fa.jpg,,,,,,,,,,,,,,,
136,26,Memory,2,,,,,,,sunahrltmuwbiehihpe.jpg,,,,,,,,,,,,,,,
137,26,Memory,2,,,,,,,00162931230fb.jpg,,,,,,,,,,,,,,,
138,26,Memory,2,,,,,,,00532960627fa.jpg,,,,,,,,,,,,,,,
139,26,Memory,2,,,,,,,00694941121fa.jpg,,,,,,,,,,,,,,,
140,26,Memory,2,,,,,,,sunaccdtpgenvcbcbcf.jpg,,,,,,,,,,,,,,,
141,26,Memory,2,,,,,,,00776941205fa.jpg,,,,,,,,,,,,,,,
142,26,Memory,2,,,,,,,sunafxokyavhgptyfye.jpg,,,,,,,,,,,,,,,
143,26,Memory,2,,,,,,,sunaajayojuslbbnneg.jpg,,,,,,,,,,,,,,,
144,26,Memory,2,,,,,,,sunahwgbqkqcrwprgvh.jpg,,,,,,,,,,,,,,,
145,26,Memory,2,,,,,,,00719960620fa.jpg,,,,,,,,,,,,,,,
146,26,Memory,2,,,,,,,sunaahedjlmtqekgyvj.jpg,,,,,,,,,,,,,,,
147,26,Memory,2,,,,,,,sundbixjudsgeuuehrn.jpg,,,,,,,,,,,,,,,
148,26,Memory,2,,,,,,,sunaisiwfgppimtnmxl.jpg,,,,,,,,,,,,,,,
149,26,Memory,2,,,,,,,00893960530Fa.jpg,,,,,,,,,,,,,,,
150,26,Presentation,3,00915960620fa_sunapileznnbbmrwoei.jpg,01007960627fa_sunbxarcshsnqsefemx.jpg,,,,,,,<,Place,,,,,1,,,,,,,x
151,26,Presentation,3,00818940307fa_sunahpblecxtmuzkmxb.jpg,00634940928fa_sunadcphrizvfpljiqt.jpg,,,,,,,<,Face,,,,,1,,,,,,,x
152,26,Presentation,3,00783941205fa_sunagjeesomrwjsfqie.jpg,01000960627fa_sunbvzmgrdvaakxusbu.jpg,,,,,,,>,Place,,,,,1,,,,,,,x
153,26,Presentation,3,00631940928fa_sunadbdqzigzwipuipr.jpg,00803941205fa_sunagvxkjokqimstxpe.jpg,,,,,,,>,Face,,,,,1,,,,,,,x
154,26,Presentation,3,00564941031fa_sunacsaovnjezqwbykf.jpg,00576941031fa_sunacvjlsylseoghjup.jpg,,,,,,,>,Place,,,,,0,,,,,,,x
155,26,Presentation,3,00961960627fa_sunawotxrevnqvamsfp.jpg,00071940128fa_sunaaexpnawiehinlpy.jpg,,,,,,,>,Face,,,,,1,,,,,,,x
156,26,Presentation,3,00123931230fb_sunaalcrrdbjgdztbiz.jpg,00108960530fa_sunaajtnvzzpsjdzres.jpg,,,,,,,<,Place,,,,,1,,,,,,,x
157,26,Presentation,3,00791941205fa_sunagrmyoovzukhxmlo.jpg,00483940519fa_sunabyvpwkgsjtijdwj.jpg,,,,,,,>,Face,,,,,0,,,,,,,x
158,26,Presentation,3,00481940519fa_sunabxsuqbleluwczoy.jpg,00676941121fa_sunadpnqovzckyikrjo.jpg,,,,,,,<,Place,,,,,1,,,,,,,x
159,26,Presentation,3,00970960627fa_sunbasypfgzjtomktmu.jpg,00197940128fa_sunaaylzyqlqrsmfwif.jpg,,,,,,,<,Face,,,,,1,,,,,,,o
160,26,Memory,3,,,,,,,01003960627fb.jpg,,,,,,,,,,,,,,,
161,26,Memory,3,,,,,,,sunadakkdovnuzlycvp.jpg,,,,,,,,,,,,,,,
162,26,Memory,3,,,,,,,sunaenwuebvlpdmntju.jpg,,,,,,,,,,,,,,,
163,26,Memory,3,,,,,,,sunaaexpnawiehinlpy.jpg,,,,,,,,,,,,,,,
164,26,Memory,3,,,,,,,sunadpnqovzckyikrjo.jpg,,,,,,,,,,,,,,,
165,26,Memory,3,,,,,,,sunagrmyoovzukhxmlo.jpg,,,,,,,,,,,,,,,
166,26,Memory,3,,,,,,,sunbdycacjfaujxitbw.jpg,,,,,,,,,,,,,,,
167,26,Memory,3,,,,,,,sunaalcrrdbjgdztbiz.jpg,,,,,,,,,,,,,,,
168,26,Memory,3,,,,,,,sunagutjvdvnhxejerz.jpg,,,,,,,,,,,,,,,
169,26,Memory,3,,,,,,,sunagvxkjokqimstxpe.jpg,,,,,,,,,,,,,,,
170,26,Memory,3,,,,,,,sunacvjlsylseoghjup.jpg,,,,,,,,,,,,,,,
171,26,Memory,3,,,,,,,00799941205fa.jpg,,,,,,,,,,,,,,,
172,26,Memory,3,,,,,,,00576941031fa.jpg,,,,,,,,,,,,,,,
173,26,Memory,3,,,,,,,00676941121fa.jpg,,,,,,,,,,,,,,,
174,26,Memory,3,,,,,,,00071940128fa.jpg,,,,,,,,,,,,,,,
175,26,Memory,3,,,,,,,sunaakxjfbrrequcjmx.jpg,,,,,,,,,,,,,,,
176,26,Memory,3,,,,,,,00818940307fa.jpg,,,,,,,,,,,,,,,
177,26,Memory,3,,,,,,,sunabyvpwkgsjtijdwj.jpg,,,,,,,,,,,,,,,
178,26,Memory,3,,,,,,,sunbpflsdaxnddnwcqi.jpg,,,,,,,,,,,,,,,
179,26,Memory,3,,,,,,,sunbwdrdvsweerwsdrj.jpg,,,,,,,,,,,,,,,
180,26,Memory,3,,,,,,,00483940519fa.jpg,,,,,,,,,,,,,,,
181,26,Memory,3,,,,,,,00481940519fa.jpg,,,,,,,,,,,,,,,
182,26,Memory,3,,,,,,,00996960627fa.jpg,,,,,,,,,,,,,,,
183,26,Memory,3,,,,,,,sunbpvgllfdejxcpjqp.jpg,,,,,,,,,,,,,,,
184,26,Memory,3,,,,,,,sunahpblecxtmuzkmxb.jpg,,,,,,,,,,,,,,,
185,26,Memory,3,,,,,,,sunadfktsqjthoglcsm.jpg,,,,,,,,,,,,,,,
186,26,Memory,3,,,,,,,sunbxzweleltykebgan.jpg,,,,,,,,,,,,,,,
187,26,Memory,3,,,,,,,00915960620fa.jpg,,,,,,,,,,,,,,,
188,26,Memory,3,,,,,,,00122931230fa.jpg,,,,,,,,,,,,,,,
189,26,Memory,3,,,,,,,00803941205fa.jpg,,,,,,,,,,,,,,,
190,26,Memory,3,,,,,,,00742941201fa.jpg,,,,,,,,,,,,,,,
191,26,Memory,3,,,,,,,00630941031fa.jpg,,,,,,,,,,,,,,,
192,26,Memory,3,,,,,,,sunapileznnbbmrwoei.jpg,,,,,,,,,,,,,,,
193,26,Memory,3,,,,,,,00979960627fa.jpg,,,,,,,,,,,,,,,
194,26,Memory,3,,,,,,,00638941031fa.jpg,,,,,,,,,,,,,,,
195,26,Memory,3,,,,,,,00123931230fb.jpg,,,,,,,,,,,,,,,
196,26,Memory,3,,,,,,,00990960627fa.jpg,,,,,,,,,,,,,,,
197,26,Memory,3,,,,,,,01009960627fa.jpg,,,,,,,,,,,,,,,
198,26,Memory,3,,,,,,,00791941205fa.jpg,,,,,,,,,,,,,,,
199,26,Memory,3,,,,,,,sunabxsuqbleluwczoy.jpg,,,,,,,,,,,,,,,
200,26,Presentation,4,00780960530fa_sunagetqixeypsysbpn.jpg,00636941031fa_sunaddtdkycxbqlpfqa.jpg,,,,,,,<,Face,,,,,0,,,,,,,o
201,26,Presentation,4,00115931230fa_sunaakmxzhuceuiryah.jpg,00126931230fb_sunaamdjwemxpmmtypi.jpg,,,,,,,>,Face,,,,,1,,,,,,,x
202,26,Presentation,4,00862940307fa_sunaizgnnplsvajzhkc.jpg,00145931230fb_sunaatjesvdupctftmn.jpg,,,,,,,<,Face,,,,,1,,,,,,,o
203,26,Presentation,4,00071941031fa_sunaaexqbtdswxrqjvz.jpg,00198940128fb_sunaazezcsunmhttzxz.jpg,,,,,,,>,Place,,,,,1,,,,,,,x
204,26,Presentation,4,00482940519fa_sunabyfxcxhdebvdyfd.jpg,00120931230fa_sunaakxgygjfqrzpyoz.jpg,,,,,,,<,Place,,,,,1,,,,,,,x
205,26,Presentation,4,00874940307fa_sunajtrfunvzdfticna.jpg,00313940422fa_sunabwjvmoaddlyxfjr.jpg,,,,,,,>,Place,,,,,1,,,,,,,o
206,26,Presentation,4,00909960530_sunaobtizabegtwfwul.jpg,00973960627fa_sunbbgtoeuzierkkajt.jpg,,,,,,,>,Face,,,,,1,,,,,,,o
207,26,Presentation,4,00952960627fa_sunathzzbcwjykldrem.jpg,00112931230fa_sunaakjaacuzulqckgl.jpg,,,,,,,>,Place,,,,,1,,,,,,,o
208,26,Presentation,4,00089931230fa_sunaagcpoejbuzyvddd.jpg,00266940128fb_sunabkngeblodihjvbk.jpg,,,,,,,<,Face,,,,,1,,,,,,,o
209,26,Presentation,4,00214940128fa_sunabbafjowbzcvbucc.jpg,00997960627fa_sunbtpilbhhbmhmeuzq.jpg,,,,,,,<,Place,,,,,1,,,,,,,o
210,26,Memory,4,,,,,,,sunadbhmrgrrpyzglxs.jpg,,,,,,,,,,,,,,,
211,26,Memory,4,,,,,,,00754941201fa.jpg,,,,,,,,,,,,,,,
212,26,Memory,4,,,,,,,sunaaftlyfudyzuhqzf.jpg,,,,,,,,,,,,,,,
213,26,Memory,4,,,,,,,sunabyfxcxhdebvdyfd.jpg,,,,,,,,,,,,,,,
214,26,Memory,4,,,,,,,sunaaexqbtdswxrqjvz.jpg,,,,,,,,,,,,,,,
215,26,Memory,4,,,,,,,sunaaemixhfquhnxxlm.jpg,,,,,,,,,,,,,,,
216,26,Memory,4,,,,,,,00266940128fb.jpg,,,,,,,,,,,,,,,
217,26,Memory,4,,,,,,,00115931230fa.jpg,,,,,,,,,,,,,,,
218,26,Memory,4,,,,,,,00482940519fa.jpg,,,,,,,,,,,,,,,
219,26,Memory,4,,,,,,,sunbtpilbhhbmhmeuzq.jpg,,,,,,,,,,,,,,,
220,26,Memory,4,,,,,,,00780960530fa.jpg,,,,,,,,,,,,,,,
221,26,Memory,4,,,,,,,00126931230fb.jpg,,,,,,,,,,,,,,,
222,26,Memory,4,,,,,,,sunabkngeblodihjvbk.jpg,,,,,,,,,,,,,,,
223,26,Memory,4,,,,,,,00908960530fa.jpg,,,,,,,,,,,,,,,
224,26,Memory,4,,,,,,,00847940307fa.jpg,,,,,,,,,,,,,,,
225,26,Memory,4,,,,,,,00811960530fa.jpg,,,,,,,,,,,,,,,
226,26,Memory,4,,,,,,,sunahedfrhtcwpneund.jpg,,,,,,,,,,,,,,,
227,26,Memory,4,,,,,,,00633940928fa.jpg,,,,,,,,,,,,,,,
228,26,Memory,4,,,,,,,00935960627fa.jpg,,,,,,,,,,,,,,,
229,26,Memory,4,,,,,,,sunaqbmgkgqucajzrkp.jpg,,,,,,,,,,,,,,,
230,26,Memory,4,,,,,,,00089931230fa.jpg,,,,,,,,,,,,,,,
231,26,Memory,4,,,,,,,00065931230fb.jpg,,,,,,,,,,,,,,,
232,26,Memory,4,,,,,,,00081941031fa.jpg,,,,,,,,,,,,,,,
233,26,Memory,4,,,,,,,00636941031fa.jpg,,,,,,,,,,,,,,,
234,26,Memory,4,,,,,,,00071941031fa.jpg,,,,,,,,,,,,,,,
235,26,Memory,4,,,,,,,sunaamdjwemxpmmtypi.jpg,,,,,,,,,,,,,,,
236,26,Memory,4,,,,,,,sunagetqixeypsysbpn.jpg,,,,,,,,,,,,,,,
237,26,Memory,4,,,,,,,00973960627fa.jpg,,,,,,,,,,,,,,,
238,26,Memory,4,,,,,,,sunaagcpoejbuzyvddd.jpg,,,,,,,,,,,,,,,
239,26,Memory,4,,,,,,,sunaffgsyyvoqdlkmnk.jpg,,,,,,,,,,,,,,,
240,26,Memory,4,,,,,,,sunanwjjyqqwzqrqagd.jpg,,,,,,,,,,,,,,,
241,26,Memory,4,,,,,,,sunaakmxzhuceuiryah.jpg,,,,,,,,,,,,,,,
242,26,Memory,4,,,,,,,00119931230fb.jpg,,,,,,,,,,,,,,,
243,26,Memory,4,,,,,,,sunaivdjruhkrfywfed.jpg,,,,,,,,,,,,,,,
244,26,Memory,4,,,,,,,00111931230fb.jpg,,,,,,,,,,,,,,,
245,26,Memory,4,,,,,,,sunaakgekhjklxmvulj.jpg,,,,,,,,,,,,,,,
246,26,Memory,4,,,,,,,sunbbgtoeuzierkkajt.jpg,,,,,,,,,,,,,,,
247,26,Memory,4,,,,,,,00997960627fa.jpg,,,,,,,,,,,,,,,
248,26,Memory,4,,,,,,,sunaddtdkycxbqlpfqa.jpg,,,,,,,,,,,,,,,
249,26,Memory,4,,,,,,,sunaakvmbftkrgqhjun.jpg,,,,,,,,,,,,,,,
250,26,Presentation,5,00989960627fa_sunbondbduabvijnmch.jpg,00919960620fa_sunapmfmzadmosuogaz.jpg,,,,,,,<,Face,,,,,1,,,,,,,o
251,26,Presentation,5,00993960627fa_sunbprywzqxjcezkbch.jpg,00796941205fa_sunaguchqqnrtodtezq.jpg,,,,,,,>,Place,,,,,1,,,,,,,x
252,26,Presentation,5,00069931230fb_sunaaeowapdkwzqpgqr.jpg,00663941121fa_sunadnjjzohjhbohlwq.jpg,,,,,,,<,Place,,,,,1,,,,,,,x
253,26,Presentation,5,00977960627fa_sunbbxkanhzjgbwyxqs.jpg,00581940928fa_sunacvzhvcksnwqcqbw.jpg,,,,,,,<,Face,,,,,0,,,,,,,o
254,26,Presentation,5,00507940519fa_sunacacflqoyxhsqzhe.jpg,00976960627fa_sunbbhqyyzmsxhsbjmp.jpg,,,,,,,>,Face,,,,,1,,,,,,,o
255,26,Presentation,5,00647941031fa_sunadflbrkckmepztql.jpg,00987960627fa_sunbloeoiozwjjsiamp.jpg,,,,,,,<,Place,,,,,1,,,,,,,o
256,26,Presentation,5,00911960530fa_sunaooaqzputrowwbsw.jpg,00860940307fa_sunaizeyhvjzknwjudw.jpg,,,,,,,>,Place,,,,,1,,,,,,,x
257,26,Presentation,5,00153931230fa_sunaauhozyxzeeqstxi.jpg,00292940422fb_sunabrjdpmoedcdjbpo.jpg,,,,,,,<,Face,,,,,0,,,,,,,x
258,26,Presentation,5,00773941201fa_sunafvcflzhlqloapyo.jpg,00571940928fa_sunacuatpqpqhyjhjqk.jpg,,,,,,,>,Face,,,,,1,,,,,,,o
259,26,Presentation,5,00305940422fa_sunabtrnbvpppgczjim.jpg,00816941205fa_sunahmhrncocyhsjpxk.jpg,,,,,,,>,Place,,,,,1,,,,,,,o
260,26,Memory,5,,,,,,,sunbloeoiozwjjsiamp.jpg,,,,,,,,,,,,,,,
261,26,Memory,5,,,,,,,00158931230fb.jpg,,,,,,,,,,,,,,,
262,26,Memory,5,,,,,,,sunadflbrkckmepztql.jpg,,,,,,,,,,,,,,,
263,26,Memory,5,,,,,,,sunaavchcbptaerhcfy.jpg,,,,,,,,,,,,,,,
264,26,Memory,5,,,,,,,00571940928fa.jpg,,,,,,,,,,,,,,,
265,26,Memory,5,,,,,,,sunaizeyhvjzknwjudw.jpg,,,,,,,,,,,,,,,
266,26,Memory,5,,,,,,,sunbbhqyyzmsxhsbjmp.jpg,,,,,,,,,,,,,,,
267,26,Memory,5,,,,,,,sunajawzbrlrwafowen.jpg,,,,,,,,,,,,,,,
268,26,Memory,5,,,,,,,00093931230fa.jpg,,,,,,,,,,,,,,,
269,26,Memory,5,,,,,,,00989960627fa.jpg,,,,,,,,,,,,,,,
270,26,Memory,5,,,,,,,00796941205fa.jpg,,,,,,,,,,,,,,,
271,26,Memory,5,,,,,,,00878960530fa.jpg,,,,,,,,,,,,,,,
272,26,Memory,5,,,,,,,00987960627fa.jpg,,,,,,,,,,,,,,,
273,26,Memory,5,,,,,,,00933960627fa.jpg,,,,,,,,,,,,,,,
274,26,Memory,5,,,,,,,sunabcfpwlpolnutyju.jpg,,,,,,,,,,,,,,,
275,26,Memory,5,,,,,,,00778941205fa.jpg,,,,,,,,,,,,,,,
276,26,Memory,5,,,,,,,sunabzjxlmkwnwzimua.jpg,,,,,,,,,,,,,,,
277,26,Memory,5,,,,,,,00993960627fa.jpg,,,,,,,,,,,,,,,
278,26,Memory,5,,,,,,,00860940307fa.jpg,,,,,,,,,,,,,,,
279,26,Memory,5,,,,,,,00774941201fa.jpg,,,,,,,,,,,,,,,
280,26,Memory,5,,,,,,,sunabtrnbvpppgczjim.jpg,,,,,,,,,,,,,,,
281,26,Memory,5,,,,,,,sunaguchqqnrtodtezq.jpg,,,,,,,,,,,,,,,
282,26,Memory,5,,,,,,,00221940128fa.jpg,,,,,,,,,,,,,,,
283,26,Memory,5,,,,,,,sunafvtpfczkzopbgue.jpg,,,,,,,,,,,,,,,
284,26,Memory,5,,,,,,,00647941031fa.jpg,,,,,,,,,,,,,,,
285,26,Memory,5,,,,,,,00498960627fa.jpg,,,,,,,,,,,,,,,
286,26,Memory,5,,,,,,,00864940307fa.jpg,,,,,,,,,,,,,,,
287,26,Memory,5,,,,,,,00949960627fb.jpg,,,,,,,,,,,,,,,
288,26,Memory,5,,,,,,,sunapwjkcxdaeqehfql.jpg,,,,,,,,,,,,,,,
289,26,Memory,5,,,,,,,sunaauhozyxzeeqstxi.jpg,,,,,,,,,,,,,,,
290,26,Memory,5,,,,,,,sunakgbnzxmfohgehnu.jpg,,,,,,,,,,,,,,,
291,26,Memory,5,,,,,,,sunbondbduabvijnmch.jpg,,,,,,,,,,,,,,,
292,26,Memory,5,,,,,,,sunagcthdfirrcawoic.jpg,,,,,,,,,,,,,,,
293,26,Memory,5,,,,,,,sunasnqkkyhilqkxiqm.jpg,,,,,,,,,,,,,,,
294,26,Memory,5,,,,,,,sunaahwnmtqsrhocysw.jpg,,,,,,,,,,,,,,,
295,26,Memory,5,,,,,,,00305940422fa.jpg,,,,,,,,,,,,,,,
296,26,Memory,5,,,,,,,00976960627fa.jpg,,,,,,,,,,,,,,,
297,26,Memory,5,,,,,,,00153931230fa.jpg,,,,,,,,,,,,,,,
298,26,Memory,5,,,,,,,sunacuatpqpqhyjhjqk.jpg,,,,,,,,,,,,,,,
299,26,Memory,5,,,,,,,sunbprywzqxjcezkbch.jpg,,,,,,,,,,,,,,,
300,26,Presentation,6,00208940128fa_sunaazzyhbvqjpmazjq.jpg,00910960530fa_sunaofikylqtxphvdem.jpg,,,,,,,>,Face,,,,,1,,,,,,,o
301,26,Presentation,6,00194940128fb_sunaayehfdqcyxggsej.jpg,00903960620fa_sunanainkqdvktzoxyl.jpg,,,,,,,<,Place,,,,,1,,,,,,,x
302,26,Presentation,6,00260940128fa_sunabgfhvifeijihhjw.jpg,00096931230fa_sunaaiqiqcggrskoqgy.jpg,,,,,,,>,Place,,,,,1,,,,,,,x
303,26,Presentation,6,00540940519fa_sunacdnquypmsshhsbk.jpg,00132931230fb_sunaanjcbzdvtvblsdy.jpg,,,,,,,<,Face,,,,,1,,,,,,,x
304,26,Presentation,6,00184940128fa_sunaavtbadenwnzeutj.jpg,00479940519fa_sunabxsbfwjccqxxzxq.jpg,,,,,,,>,Place,,,,,1,,,,,,,x
305,26,Presentation,6,00766960620fa_sunafijbgncijwykrnl.jpg,00870940307fa_sunajrgtewnualfcerj.jpg,,,,,,,>,Face,,,,,1,,,,,,,o
306,26,Presentation,6,00210940128fb_sunabanoxjtqxamkucc.jpg,00060931230fa_sunaaehaikpckyjsety.jpg,,,,,,,<,Place,,,,,1,,,,,,,x
307,26,Presentation,6,00999960627fa_sunbvbrvgbpanfrawft.jpg,00777941205fa_sunagcinxkccdtrjmlv.jpg,,,,,,,>,Face,,,,,1,,,,,,,x
308,26,Presentation,6,00905960530fa_sunanmoqeyprjjjfxjt.jpg,00807941205fa_sunahawfngukizslzsd.jpg,,,,,,,<,Face,,,,,1,,,,,,,x
309,26,Presentation,6,00792941205fa_sunagsiwrmuixqgdimb.jpg,00743941201fa_sunaeoghzrjarigmwua.jpg,,,,,,,<,Place,,,,,1,,,,,,,o
310,26,Memory,6,,,,,,,00892960530fa.jpg,,,,,,,,,,,,,,,
311,26,Memory,6,,,,,,,sunaaiqiqcggrskoqgy.jpg,,,,,,,,,,,,,,,
312,26,Memory,6,,,,,,,00242940128fa.jpg,,,,,,,,,,,,,,,
313,26,Memory,6,,,,,,,00792941205fa.jpg,,,,,,,,,,,,,,,
314,26,Memory,6,,,,,,,sunaeoghzrjarigmwua.jpg,,,,,,,,,,,,,,,
315,26,Memory,6,,,,,,,00807941205fa.jpg,,,,,,,,,,,,,,,
316,26,Memory,6,,,,,,,sunaydywdmvlfddbxbk.jpg,,,,,,,,,,,,,,,
317,26,Memory,6,,,,,,,sunbvbrvgbpanfrawft.jpg,,,,,,,,,,,,,,,
318,26,Memory,6,,,,,,,00999960627fa.jpg,,,,,,,,,,,,,,,
319,26,Memory,6,,,,,,,sunasmmcxdddtmtazwx.jpg,,,,,,,,,,,,,,,
320,26,Memory,6,,,,,,,sunachtuarilwyqnvjx.jpg,,,,,,,,,,,,,,,
321,26,Memory,6,,,,,,,00163931230fb.jpg,,,,,,,,,,,,,,,
322,26,Memory,6,,,,,,,00910960530fa.jpg,,,,,,,,,,,,,,,
323,26,Memory,6,,,,,,,sunafijbgncijwykrnl.jpg,,,,,,,,,,,,,,,
324,26,Memory,6,,,,,,,sunaofikylqtxphvdem.jpg,,,,,,,,,,,,,,,
325,26,Memory,6,,,,,,,00766960620fa.jpg,,,,,,,,,,,,,,,
326,26,Memory,6,,,,,,,sunabcuurugvxwparpk.jpg,,,,,,,,,,,,,,,
327,26,Memory,6,,,,,,,00096931230fa.jpg,,,,,,,,,,,,,,,
328,26,Memory,6,,,,,,,sunaanjcbzdvtvblsdy.jpg,,,,,,,,,,,,,,,
329,26,Memory,6,,,,,,,sunagsiwrmuixqgdimb.jpg,,,,,,,,,,,,,,,
330,26,Memory,6,,,,,,,sunaahzooisqkwlxwoz.jpg,,,,,,,,,,,,,,,
331,26,Memory,6,,,,,,,00557940519fa.jpg,,,,,,,,,,,,,,,
332,26,Memory,6,,,,,,,00983960627fa.jpg,,,,,,,,,,,,,,,
333,26,Memory,6,,,,,,,sunalntxqqadigcletd.jpg,,,,,,,,,,,,,,,
334,26,Memory,6,,,,,,,00965960627fa.jpg,,,,,,,,,,,,,,,
335,26,Memory,6,,,,,,,sunabgfhvifeijihhjw.jpg,,,,,,,,,,,,,,,
336,26,Memory,6,,,,,,,00947960627fa.jpg,,,,,,,,,,,,,,,
337,26,Memory,6,,,,,,,00086931230fa.jpg,,,,,,,,,,,,,,,
338,26,Memory,6,,,,,,,00095931230fa.jpg,,,,,,,,,,,,,,,
339,26,Memory,6,,,,,,,00194940128fb.jpg,,,,,,,,,,,,,,,
340,26,Memory,6,,,,,,,00800941205fb.jpg,,,,,,,,,,,,,,,
341,26,Memory,6,,,,,,,00743941201fa.jpg,,,,,,,,,,,,,,,
342,26,Memory,6,,,,,,,sunaayehfdqcyxggsej.jpg,,,,,,,,,,,,,,,
343,26,Memory,6,,,,,,,sunahawfngukizslzsd.jpg,,,,,,,,,,,,,,,
344,26,Memory,6,,,,,,,sunbfyvfqiimvdaxlqn.jpg,,,,,,,,,,,,,,,
345,26,Memory,6,,,,,,,00260940128fa.jpg,,,,,,,,,,,,,,,
346,26,Memory,6,,,,,,,sunagvjurcwdbixvnyi.jpg,,,,,,,,,,,,,,,
347,26,Memory,6,,,,,,,00132931230fb.jpg,,,,,,,,,,,,,,,
348,26,Memory,6,,,,,,,sunaafynehyrzpsoaml.jpg,,,,,,,,,,,,,,,
349,26,Memory,6,,,,,,,sunaavodbcpygkggnfp.jpg,,,,,,,,,,,,,,,
350,26,Presentation,7,00138931230fa_sunaapfaivxqoynnwwp.jpg,00885960530fa_sunakwlvxjpddialozd.jpg,,,,,,,<,Face,,,,,1,,,,,,,o
351,26,Presentation,7,00191940128fb_sunaawsdjisukbbginm.jpg,00943960627fa_sunarpsxqkduedrrzyi.jpg,,,,,,,>,Place,,,,,1,,,,,,,o
352,26,Presentation,7,00276940422fa_sunabmytpyhsgigllxu.jpg,00859940307fa_sunaiycurtqsfkvcaso.jpg,,,,,,,<,Face,,,,,1,,,,,,,o
353,26,Presentation,7,00116931230fa_sunaakqepfoeqomfgxf.jpg,00133931230fa_sunaanlwnpqndclffxt.jpg,,,,,,,>,Face,,,,,1,,,,,,,o
354,26,Presentation,7,00938960627fa_sunaqyylsngywqzwfmx.jpg,00868960307fa_sunajjxttslobudoqbv.jpg,,,,,,,<,Face,,,,,1,,,,,,,x
355,26,Presentation,7,00838940307fa_sunaiozxhxgtfrmoagh.jpg,00719941201fa_sunadvithllcgmfxsrn.jpg,,,,,,,<,Place,,,,,1,,,,,,,o
356,26,Presentation,7,01002960627fb_sunbwaafjdebjzttuvq.jpg,00136931230fb_sunaanptmsknhirrzed.jpg,,,,,,,>,Place,,,,,1,,,,,,,x
357,26,Presentation,7,00073931230fa_sunaafbmtoniaasysgu.jpg,00982960627fa_sunbesrwkdsffeogeqq.jpg,,,,,,,>,Face,,,,,1,,,,,,,o
358,26,Presentation,7,00942960627fa_sunarfdklgdnjgeqfjg.jpg,00147931230fb_sunaatpkocdkocwxpkb.jpg,,,,,,,<,Place,,,,,0,,,,,,,x
359,26,Presentation,7,00926960627Fa_sunapqwoeotxshkukbh.jpg,00967960627fa_sunbaejotfklekvpxcz.jpg,,,,,,,>,Place,,,,,1,,,,,,,o
360,26,Memory,7,,,,,,,00149931230fa.jpg,,,,,,,,,,,,,,,
361,26,Memory,7,,,,,,,sunbwaafjdebjzttuvq.jpg,,,,,,,,,,,,,,,
362,26,Memory,7,,,,,,,00982960627fa.jpg,,,,,,,,,,,,,,,
363,26,Memory,7,,,,,,,00131931230fb.jpg,,,,,,,,,,,,,,,
364,26,Memory,7,,,,,,,sunaedtgwjvvziytspa.jpg,,,,,,,,,,,,,,,
365,26,Memory,7,,,,,,,00124931230fa.jpg,,,,,,,,,,,,,,,
366,26,Memory,7,,,,,,,00116931230fa.jpg,,,,,,,,,,,,,,,
367,26,Memory,7,,,,,,,sunaaxjpzcnxligjtjq.jpg,,,,,,,,,,,,,,,
368,26,Memory,7,,,,,,,00885960530fa.jpg,,,,,,,,,,,,,,,
369,26,Memory,7,,,,,,,sunbesrwkdsffeogeqq.jpg,,,,,,,,,,,,,,,
370,26,Memory,7,,,,,,,sunaakqepfoeqomfgxf.jpg,,,,,,,,,,,,,,,
371,26,Memory,7,,,,,,,sunaiwduelojtwaqeyh.jpg,,,,,,,,,,,,,,,
372,26,Memory,7,,,,,,,sunaetydippjxikifsb.jpg,,,,,,,,,,,,,,,
373,26,Memory,7,,,,,,,sunaiycurtqsfkvcaso.jpg,,,,,,,,,,,,,,,
374,26,Memory,7,,,,,,,00574940928fa.jpg,,,,,,,,,,,,,,,
375,26,Memory,7,,,,,,,sunaqyylsngywqzwfmx.jpg,,,,,,,,,,,,,,,
376,26,Memory,7,,,,,,,00193940928fa.jpg,,,,,,,,,,,,,,,
377,26,Memory,7,,,,,,,sunaangbuylfvckqqoo.jpg,,,,,,,,,,,,,,,
378,26,Memory,7,,,,,,,sunakwlvxjpddialozd.jpg,,,,,,,,,,,,,,,
379,26,Memory,7,,,,,,,sunadvithllcgmfxsrn.jpg,,,,,,,,,,,,,,,
380,26,Memory,7,,,,,,,sunaauglwmctnkxyird.jpg,,,,,,,,,,,,,,,
381,26,Memory,7,,,,,,,00854940307fa.jpg,,,,,,,,,,,,,,,
382,26,Memory,7,,,,,,,00719941201fa.jpg,,,,,,,,,,,,,,,
383,26,Memory,7,,,,,,,00723941201fa.jpg,,,,,,,,,,,,,,,
384,26,Memory,7,,,,,,,sunaalhlvzmjmitybdn.jpg,,,,,,,,,,,,,,,
385,26,Memory,7,,,,,,,00838940307fa.jpg,,,,,,,,,,,,,,,
386,26,Memory,7,,,,,,,sunaduslxfzlbxlllnz.jpg,,,,,,,,,,,,,,,
387,26,Memory,7,,,,,,,sunaawsdjisukbbginm.jpg,,,,,,,,,,,,,,,
388,26,Memory,7,,,,,,,00191940128fb.jpg,,,,,,,,,,,,,,,
389,26,Memory,7,,,,,,,00705960530fa.jpg,,,,,,,,,,,,,,,
390,26,Memory,7,,,,,,,00746941201fa.jpg,,,,,,,,,,,,,,,
391,26,Memory,7,,,,,,,sunaiozxhxgtfrmoagh.jpg,,,,,,,,,,,,,,,
392,26,Memory,7,,,,,,,00648941031fa.jpg,,,,,,,,,,,,,,,
393,26,Memory,7,,,,,,,00859940307fa.jpg,,,,,,,,,,,,,,,
394,26,Memory,7,,,,,,,sunacvbrcejzwmcgnoq.jpg,,,,,,,,,,,,,,,
395,26,Memory,7,,,,,,,00938960627fa.jpg,,,,,,,,,,,,,,,
396,26,Memory,7,,,,,,,00868960307fa.jpg,,,,,,,,,,,,,,,
397,26,Memory,7,,,,,,,sunadfndyrtqqiasoig.jpg,,,,,,,,,,,,,,,
398,26,Memory,7,,,,,,,01002960627fb.jpg,,,,,,,,,,,,,,,
399,26,Memory,7,,,,,,,sunajjxttslobudoqbv.jpg,,,,,,,,,,,,,,,
