,Subject,Trial Type,Run,Cued Composite,Uncued Composite,Cued Face,Cued Place,Uncued Face,Uncued Place,Memory Image,Category,Cued Side,Cued Category,Attention Response Time (s),Familiarity Reaction Time (s),Familiarity Rating,Attention Level,Cue Validity,Post Invalid Cue,Pre Invalid Cue,Attention Button,Rating History,Stimulus Onset,Stimulus End,Attention Probe
0,9,Presentation,0,00271940422fa_sunabmbnddafmywtjjj.jpg,00793941205fa_sunagtjwilqjvxohypn.jpg,,,,,,,>,Place,,,,,1,,,,,,,o
1,9,Presentation,0,00984960627fa_sunbfzchmomnvzhbxdg.jpg,00265940128fb_sunabkmdplkdbvxriff.jpg,,,,,,,<,Face,,,,,1,,,,,,,o
2,9,Presentation,0,00313940422fa_sunabwjvmoaddlyxfjr.jpg,00144931230fb_sunaathajvxrgptwhoj.jpg,,,,,,,<,Place,,,,,1,,,,,,,x
3,9,Presentation,0,01005960627fa_sunbwyuesflwdpqtgoy.jpg,00803941205fa_sunagvxkjokqimstxpe.jpg,,,,,,,>,Face,,,,,1,,,,,,,x
4,9,Presentation,0,00681941121fa_sunadqmjrhfjyuzyvdd.jpg,00961960627fa_sunawotxrevnqvamsfp.jpg,,,,,,,<,Place,,,,,1,,,,,,,x
5,9,Presentation,0,00985960627fa_sunbgklxeqjhdbyfhhy.jpg,00859940307fa_sunaiycurtqsfkvcaso.jpg,,,,,,,>,Face,,,,,1,,,,,,,o
6,9,Presentation,0,00720960620fa_sunaecpkgfewqqreqwe.jpg,00210940128fb_sunabanoxjtqxamkucc.jpg,,,,,,,>,Place,,,,,1,,,,,,,o
7,9,Presentation,0,00065931230fb_sunaaemixhfquhnxxlm.jpg,00836940307fa_sunainqelldeebvxtcz.jpg,,,,,,,<,Place,,,,,1,,,,,,,o
8,9,Presentation,0,00543940519fa_sunacepzfrmtkiqonpy.jpg,00864940307fa_sunajawzbrlrwafowen.jpg,,,,,,,<,Face,,,,,1,,,,,,,o
9,9,Presentation,0,00218940128fa_sunabbwggenhfbftyvi.jpg,00894960620fa_sunalqmfgeadpqsyzpd.jpg,,,,,,,>,Face,,,,,1,,,,,,,x
10,9,Memory,0,,,,,,,sunbwyuesflwdpqtgoy.jpg,,,,,,,,,,,,,,,
11,9,Memory,0,,,,,,,sunaixpqndlwhwjtjek.jpg,,,,,,,,,,,,,,,
12,9,Memory,0,,,,,,,00859940307fa.jpg,,,,,,,,,,,,,,,
13,9,Memory,0,,,,,,,00864940307fa.jpg,,,,,,,,,,,,,,,
14,9,Memory,0,,,,,,,00978960627fa.jpg,,,,,,,,,,,,,,,
15,9,Memory,0,,,,,,,00949960627fb.jpg,,,,,,,,,,,,,,,
16,9,Memory,0,,,,,,,sunaecpkgfewqqreqwe.jpg,,,,,,,,,,,,,,,
17,9,Memory,0,,,,,,,00146960620fb.jpg,,,,,,,,,,,,,,,
18,9,Memory,0,,,,,,,00123931230fb.jpg,,,,,,,,,,,,,,,
19,9,Memory,0,,,,,,,sunajjxttslobudoqbv.jpg,,,,,,,,,,,,,,,
20,9,Memory,0,,,,,,,sunainqelldeebvxtcz.jpg,,,,,,,,,,,,,,,
21,9,Memory,0,,,,,,,00313940422fa.jpg,,,,,,,,,,,,,,,
22,9,Memory,0,,,,,,,sunawotxrevnqvamsfp.jpg,,,,,,,,,,,,,,,
23,9,Memory,0,,,,,,,00868960307fa.jpg,,,,,,,,,,,,,,,
24,9,Memory,0,,,,,,,sunbgklxeqjhdbyfhhy.jpg,,,,,,,,,,,,,,,
25,9,Memory,0,,,,,,,00985960627fa.jpg,,,,,,,,,,,,,,,
26,9,Memory,0,,,,,,,sunaisiwfgppimtnmxl.jpg,,,,,,,,,,,,,,,
27,9,Memory,0,,,,,,,sunaatpeezlljqaxlhj.jpg,,,,,,,,,,,,,,,
28,9,Memory,0,,,,,,,00184940128fa.jpg,,,,,,,,,,,,,,,
29,9,Memory,0,,,,,,,00793941205fa.jpg,,,,,,,,,,,,,,,
30,9,Memory,0,,,,,,,00841940307fa.jpg,,,,,,,,,,,,,,,
31,9,Memory,0,,,,,,,00858940307fa.jpg,,,,,,,,,,,,,,,
32,9,Memory,0,,,,,,,00961960627fa.jpg,,,,,,,,,,,,,,,
33,9,Memory,0,,,,,,,sunasnqkkyhilqkxiqm.jpg,,,,,,,,,,,,,,,
34,9,Memory,0,,,,,,,sunaavtbadenwnzeutj.jpg,,,,,,,,,,,,,,,
35,9,Memory,0,,,,,,,sunagtjwilqjvxohypn.jpg,,,,,,,,,,,,,,,
36,9,Memory,0,,,,,,,00543940519fa.jpg,,,,,,,,,,,,,,,
37,9,Memory,0,,,,,,,00836940307fa.jpg,,,,,,,,,,,,,,,
38,9,Memory,0,,,,,,,sunaalcrrdbjgdztbiz.jpg,,,,,,,,,,,,,,,
39,9,Memory,0,,,,,,,sunaiycurtqsfkvcaso.jpg,,,,,,,,,,,,,,,
40,9,Memory,0,,,,,,,00730960620fa.jpg,,,,,,,,,,,,,,,
41,9,Memory,0,,,,,,,01005960627fa.jpg,,,,,,,,,,,,,,,
42,9,Memory,0,,,,,,,sunabwjvmoaddlyxfjr.jpg,,,,,,,,,,,,,,,
43,9,Memory,0,,,,,,,sunacepzfrmtkiqonpy.jpg,,,,,,,,,,,,,,,
44,9,Memory,0,,,,,,,00874940307fa.jpg,,,,,,,,,,,,,,,
45,9,Memory,0,,,,,,,sunajawzbrlrwafowen.jpg,,,,,,,,,,,,,,,
46,9,Memory,0,,,,,,,sunbddbivbptlrlauhy.jpg,,,,,,,,,,,,,,,
47,9,Memory,0,,,,,,,sunaekgzpfilgjxpeyq.jpg,,,,,,,,,,,,,,,
48,9,Memory,0,,,,,,,sunajtrfunvzdfticna.jpg,,,,,,,,,,,,,,,
49,9,Memory,0,,,,,,,00720960620fa.jpg,,,,,,,,,,,,,,,
50,9,Presentation,1,00768941205fa_sunafkmnlytenlsywia.jpg,00163931230fb_sunaavodbcpygkggnfp.jpg,,,,,,,<,Place,,,,,1,,,,,,,o
51,9,Presentation,1,00936960627fa_sunaqgjuuwvdcyiccjt.jpg,00109931230fa_sunaajuzribjrizdshh.jpg,,,,,,,>,Place,,,,,1,,,,,,,o
52,9,Presentation,1,00111931230fb_sunaakgekhjklxmvulj.jpg,00891960530fa_sunalkiibhqpxfamlll.jpg,,,,,,,>,Face,,,,,1,,,,,,,x
53,9,Presentation,1,00999960627fa_sunbvbrvgbpanfrawft.jpg,00933960627fa_sunapwjkcxdaeqehfql.jpg,,,,,,,<,Place,,,,,1,,,,,,,o
54,9,Presentation,1,00811960530fa_sunahedfrhtcwpneund.jpg,00634940928fa_sunadcphrizvfpljiqt.jpg,,,,,,,>,Face,,,,,1,,,,,,,x
55,9,Presentation,1,00810941205fa_sunahctntqrunhdxhtb.jpg,00913960530fa_sunaooffzffbhcpirmm.jpg,,,,,,,>,Place,,,,,1,,,,,,,x
56,9,Presentation,1,00794960620fa_sunagtqhhwxjeuxdebe.jpg,00662941121fa_sunadkazmlajmohnwfl.jpg,,,,,,,<,Place,,,,,1,,,,,,,o
57,9,Presentation,1,00670941121fa_sunadochqcucscehsgk.jpg,00774941201fa_sunafvtpfczkzopbgue.jpg,,,,,,,<,Face,,,,,1,,,,,,,x
58,9,Presentation,1,00770941201fa_sunaflojskatpeqyzqp.jpg,00921960627fa_sunapqkpqdfvxlbqwyo.jpg,,,,,,,>,Face,,,,,1,,,,,,,x
59,9,Presentation,1,00728941205fa_sunaejnvnpltdmhbcsi.jpg,00185940422fb_sunaawqdbpihmlbwyyn.jpg,,,,,,,<,Face,,,,,1,,,,,,,x
60,9,Memory,1,,,,,,,00163931230fb.jpg,,,,,,,,,,,,,,,
61,9,Memory,1,,,,,,,sunaflojskatpeqyzqp.jpg,,,,,,,,,,,,,,,
62,9,Memory,1,,,,,,,00774941201fa.jpg,,,,,,,,,,,,,,,
63,9,Memory,1,,,,,,,00728941205fa.jpg,,,,,,,,,,,,,,,
64,9,Memory,1,,,,,,,sunaeouogqolxvggaoq.jpg,,,,,,,,,,,,,,,
65,9,Memory,1,,,,,,,00866940307fa.jpg,,,,,,,,,,,,,,,
66,9,Memory,1,,,,,,,sunadfktsqjthoglcsm.jpg,,,,,,,,,,,,,,,
67,9,Memory,1,,,,,,,sunadochqcucscehsgk.jpg,,,,,,,,,,,,,,,
68,9,Memory,1,,,,,,,sunahctntqrunhdxhtb.jpg,,,,,,,,,,,,,,,
69,9,Memory,1,,,,,,,sunathzzbcwjykldrem.jpg,,,,,,,,,,,,,,,
70,9,Memory,1,,,,,,,sunafvtpfczkzopbgue.jpg,,,,,,,,,,,,,,,
71,9,Memory,1,,,,,,,sunbmaiocftdtvnzgap.jpg,,,,,,,,,,,,,,,
72,9,Memory,1,,,,,,,00988960627fa.jpg,,,,,,,,,,,,,,,
73,9,Memory,1,,,,,,,00902960530fa.jpg,,,,,,,,,,,,,,,
74,9,Memory,1,,,,,,,sunajbwkywmsqkldfml.jpg,,,,,,,,,,,,,,,
75,9,Memory,1,,,,,,,sunahedfrhtcwpneund.jpg,,,,,,,,,,,,,,,
76,9,Memory,1,,,,,,,00727941205fa.jpg,,,,,,,,,,,,,,,
77,9,Memory,1,,,,,,,00634940928fa.jpg,,,,,,,,,,,,,,,
78,9,Memory,1,,,,,,,sunabcuurugvxwparpk.jpg,,,,,,,,,,,,,,,
79,9,Memory,1,,,,,,,sunaejnvnpltdmhbcsi.jpg,,,,,,,,,,,,,,,
80,9,Memory,1,,,,,,,sunaiwduelojtwaqeyh.jpg,,,,,,,,,,,,,,,
81,9,Memory,1,,,,,,,00770941201fa.jpg,,,,,,,,,,,,,,,
82,9,Memory,1,,,,,,,sunaawqdbpihmlbwyyn.jpg,,,,,,,,,,,,,,,
83,9,Memory,1,,,,,,,sunanaacmmosxrfwmvl.jpg,,,,,,,,,,,,,,,
84,9,Memory,1,,,,,,,sunaavodbcpygkggnfp.jpg,,,,,,,,,,,,,,,
85,9,Memory,1,,,,,,,00952960627fa.jpg,,,,,,,,,,,,,,,
86,9,Memory,1,,,,,,,00242940128fa.jpg,,,,,,,,,,,,,,,
87,9,Memory,1,,,,,,,00185940422fb.jpg,,,,,,,,,,,,,,,
88,9,Memory,1,,,,,,,00662941121fa.jpg,,,,,,,,,,,,,,,
89,9,Memory,1,,,,,,,00670941121fa.jpg,,,,,,,,,,,,,,,
90,9,Memory,1,,,,,,,00854940307fa.jpg,,,,,,,,,,,,,,,
91,9,Memory,1,,,,,,,sunadcphrizvfpljiqt.jpg,,,,,,,,,,,,,,,
92,9,Memory,1,,,,,,,00638941031fa.jpg,,,,,,,,,,,,,,,
93,9,Memory,1,,,,,,,00745941205fa.jpg,,,,,,,,,,,,,,,
94,9,Memory,1,,,,,,,sunaddtdkycxbqlpfqa.jpg,,,,,,,,,,,,,,,
95,9,Memory,1,,,,,,,sunadkazmlajmohnwfl.jpg,,,,,,,,,,,,,,,
96,9,Memory,1,,,,,,,00636941031fa.jpg,,,,,,,,,,,,,,,
97,9,Memory,1,,,,,,,sunaeisnjeetzmkbuad.jpg,,,,,,,,,,,,,,,
98,9,Memory,1,,,,,,,00810941205fa.jpg,,,,,,,,,,,,,,,
99,9,Memory,1,,,,,,,00811960530fa.jpg,,,,,,,,,,,,,,,
100,9,Presentation,2,00260940128fa_sunabgfhvifeijihhjw.jpg,00559940519fa_sunacjkmnpawfzbyvae.jpg,,,,,,,<,Face,,,,,1,,,,,,,x
101,9,Presentation,2,00784941205fb_sunagjzcrjvmxzqzljx.jpg,00884960530fa_sunakodkcslgqhqlgwl.jpg,,,,,,,>,Place,,,,,1,,,,,,,o
102,9,Presentation,2,00294940422fb_sunabrlndkruqokhury.jpg,00860940307fa_sunaizeyhvjzknwjudw.jpg,,,,,,,>,Face,,,,,1,,,,,,,x
103,9,Presentation,2,00744941201fa_sunaeomlfaabhpswasy.jpg,00719960620fa_sunadzuvtmtmgupotmf.jpg,,,,,,,<,Place,,,,,1,,,,,,,o
104,9,Presentation,2,00880960530fa_sunakmnfgklupjijsgf.jpg,00957960627fa_sunavhxgmgrqsaptynb.jpg,,,,,,,<,Face,,,,,1,,,,,,,o
105,9,Presentation,2,00267940128fb_sunablfqiwfqomjarht.jpg,00955960627fb_sunauburywlkjszngcq.jpg,,,,,,,<,Place,,,,,1,,,,,,,o
106,9,Presentation,2,00214940128fa_sunabbafjowbzcvbucc.jpg,00131931230fb_sunaangbuylfvckqqoo.jpg,,,,,,,>,Face,,,,,1,,,,,,,o
107,9,Presentation,2,00507940519fa_sunacacflqoyxhsqzhe.jpg,01007960627fa_sunbxarcshsnqsefemx.jpg,,,,,,,>,Place,,,,,1,,,,,,,x
108,9,Presentation,2,00557940519fa_sunachtuarilwyqnvjx.jpg,00876960620fa_sunajwqkfsykceonyig.jpg,,,,,,,<,Face,,,,,1,,,,,,,o
109,9,Presentation,2,00772941201fa_sunafpfpiiujzoesnqg.jpg,00763941205fa_sunafhmnhsdurlvddpw.jpg,,,,,,,>,Place,,,,,1,,,,,,,o
110,9,Memory,2,,,,,,,00559940519fa.jpg,,,,,,,,,,,,,,,
111,9,Memory,2,,,,,,,00773941201fa.jpg,,,,,,,,,,,,,,,
112,9,Memory,2,,,,,,,00267940128fb.jpg,,,,,,,,,,,,,,,
113,9,Memory,2,,,,,,,00880960530fa.jpg,,,,,,,,,,,,,,,
114,9,Memory,2,,,,,,,00955960627fb.jpg,,,,,,,,,,,,,,,
115,9,Memory,2,,,,,,,00965960627fa.jpg,,,,,,,,,,,,,,,
116,9,Memory,2,,,,,,,01010960627fa.jpg,,,,,,,,,,,,,,,
117,9,Memory,2,,,,,,,00838940307fa.jpg,,,,,,,,,,,,,,,
118,9,Memory,2,,,,,,,sunaaehaikpckyjsety.jpg,,,,,,,,,,,,,,,
119,9,Memory,2,,,,,,,00744941201fa.jpg,,,,,,,,,,,,,,,
120,9,Memory,2,,,,,,,sunafhmnhsdurlvddpw.jpg,,,,,,,,,,,,,,,
121,9,Memory,2,,,,,,,sunaygrtwrwfezqjizr.jpg,,,,,,,,,,,,,,,
122,9,Memory,2,,,,,,,sunaiozxhxgtfrmoagh.jpg,,,,,,,,,,,,,,,
123,9,Memory,2,,,,,,,00589940928fa.jpg,,,,,,,,,,,,,,,
124,9,Memory,2,,,,,,,sunaydywdmvlfddbxbk.jpg,,,,,,,,,,,,,,,
125,9,Memory,2,,,,,,,sunacjkmnpawfzbyvae.jpg,,,,,,,,,,,,,,,
126,9,Memory,2,,,,,,,00260940128fa.jpg,,,,,,,,,,,,,,,
127,9,Memory,2,,,,,,,00305940422fa.jpg,,,,,,,,,,,,,,,
128,9,Memory,2,,,,,,,sunablfqiwfqomjarht.jpg,,,,,,,,,,,,,,,
129,9,Memory,2,,,,,,,sunabtrnbvpppgczjim.jpg,,,,,,,,,,,,,,,
130,9,Memory,2,,,,,,,00763941205fa.jpg,,,,,,,,,,,,,,,
131,9,Memory,2,,,,,,,sunaafgqutfaishsxyu.jpg,,,,,,,,,,,,,,,
132,9,Memory,2,,,,,,,sunauburywlkjszngcq.jpg,,,,,,,,,,,,,,,
133,9,Memory,2,,,,,,,sunbxarcshsnqsefemx.jpg,,,,,,,,,,,,,,,
134,9,Memory,2,,,,,,,00077931230fb.jpg,,,,,,,,,,,,,,,
135,9,Memory,2,,,,,,,sunakmnfgklupjijsgf.jpg,,,,,,,,,,,,,,,
136,9,Memory,2,,,,,,,sunacwggadqsfpovdjv.jpg,,,,,,,,,,,,,,,
137,9,Memory,2,,,,,,,sunaeomlfaabhpswasy.jpg,,,,,,,,,,,,,,,
138,9,Memory,2,,,,,,,00784941205fb.jpg,,,,,,,,,,,,,,,
139,9,Memory,2,,,,,,,01007960627fa.jpg,,,,,,,,,,,,,,,
140,9,Memory,2,,,,,,,sunagcthdfirrcawoic.jpg,,,,,,,,,,,,,,,
141,9,Memory,2,,,,,,,sunabgfhvifeijihhjw.jpg,,,,,,,,,,,,,,,
142,9,Memory,2,,,,,,,suncnkvbhypnivcohyx.jpg,,,,,,,,,,,,,,,
143,9,Memory,2,,,,,,,sunakodkcslgqhqlgwl.jpg,,,,,,,,,,,,,,,
144,9,Memory,2,,,,,,,00778941205fa.jpg,,,,,,,,,,,,,,,
145,9,Memory,2,,,,,,,sunagjzcrjvmxzqzljx.jpg,,,,,,,,,,,,,,,
146,9,Memory,2,,,,,,,00884960530fa.jpg,,,,,,,,,,,,,,,
147,9,Memory,2,,,,,,,00060931230fa.jpg,,,,,,,,,,,,,,,
148,9,Memory,2,,,,,,,sunafvcflzhlqloapyo.jpg,,,,,,,,,,,,,,,
149,9,Memory,2,,,,,,,00966960627fa.jpg,,,,,,,,,,,,,,,
150,9,Presentation,3,00162931230fb_sunaavjinpnkappuonm.jpg,00723941201fa_sunaedtgwjvvziytspa.jpg,,,,,,,<,Face,,,,,1,,,,,,,x
151,9,Presentation,3,00098931230fa_sunaajpqmulidejvjsr.jpg,00834940307fa_sunaibnpvhkdpdnzcnz.jpg,,,,,,,>,Place,,,,,1,,,,,,,o
152,9,Presentation,3,00127931230fa_sunaampvucecsfbdafn.jpg,00895960530fa_sunamczizlzavhzhpay.jpg,,,,,,,<,Face,,,,,1,,,,,,,o
153,9,Presentation,3,00119931230fb_sunaakvmbftkrgqhjun.jpg,00061931230fb_sunaaekxzjzrfgtkwjf.jpg,,,,,,,>,Place,,,,,1,,,,,,,x
154,9,Presentation,3,00782941205fa_sunagfvluwixdsozaql.jpg,00086931230fa_sunaafynehyrzpsoaml.jpg,,,,,,,>,Face,,,,,0,,,,,,,x
155,9,Presentation,3,00790941205fa_sunagpjzsbltchlwvou.jpg,00953960627fa_sunatstrpjxhvtbaczf.jpg,,,,,,,<,Place,,,,,1,,,,,,,x
156,9,Presentation,3,00893960530Fa_sunaloffvbvysigxent.jpg,00096931230fa_sunaaiqiqcggrskoqgy.jpg,,,,,,,<,Face,,,,,1,,,,,,,x
157,9,Presentation,3,00306940422fa_sunabueyoajufbkraki.jpg,00635941031fa_sunaddsaeicthrfbkhe.jpg,,,,,,,<,Place,,,,,1,,,,,,,x
158,9,Presentation,3,00154931230fa_sunaauueuhhvklldjik.jpg,00741941201fa_sunaemcowdozyphwknd.jpg,,,,,,,>,Place,,,,,0,,,,,,,o
159,9,Presentation,3,00792941205fa_sunagsiwrmuixqgdimb.jpg,00076931230fa_sunaafewhewbxmjiurz.jpg,,,,,,,>,Face,,,,,0,,,,,,,x
160,9,Memory,3,,,,,,,sunacycdoztxoluxjyk.jpg,,,,,,,,,,,,,,,
161,9,Memory,3,,,,,,,sunaddsaeicthrfbkhe.jpg,,,,,,,,,,,,,,,
162,9,Memory,3,,,,,,,sunagfvluwixdsozaql.jpg,,,,,,,,,,,,,,,
163,9,Memory,3,,,,,,,00061931230fb.jpg,,,,,,,,,,,,,,,
164,9,Memory,3,,,,,,,00953960627fa.jpg,,,,,,,,,,,,,,,
165,9,Memory,3,,,,,,,00782941205fa.jpg,,,,,,,,,,,,,,,
166,9,Memory,3,,,,,,,00635941031fa.jpg,,,,,,,,,,,,,,,
167,9,Memory,3,,,,,,,00741941201fa.jpg,,,,,,,,,,,,,,,
168,9,Memory,3,,,,,,,00914960620fa.jpg,,,,,,,,,,,,,,,
169,9,Memory,3,,,,,,,sunafowswglhxcsufpo.jpg,,,,,,,,,,,,,,,
170,9,Memory,3,,,,,,,sunagpjzsbltchlwvou.jpg,,,,,,,,,,,,,,,
171,9,Memory,3,,,,,,,sunaawsdjisukbbginm.jpg,,,,,,,,,,,,,,,
172,9,Memory,3,,,,,,,00895960530fa.jpg,,,,,,,,,,,,,,,
173,9,Memory,3,,,,,,,sunagmwxxwymwojbvgi.jpg,,,,,,,,,,,,,,,
174,9,Memory,3,,,,,,,00792941205fa.jpg,,,,,,,,,,,,,,,
175,9,Memory,3,,,,,,,00063931230fa.jpg,,,,,,,,,,,,,,,
176,9,Memory,3,,,,,,,sunaozisvwfbmlkfhzv.jpg,,,,,,,,,,,,,,,
177,9,Memory,3,,,,,,,sunaaelyvurpntclgau.jpg,,,,,,,,,,,,,,,
178,9,Memory,3,,,,,,,00771941205fa.jpg,,,,,,,,,,,,,,,
179,9,Memory,3,,,,,,,00127931230fa.jpg,,,,,,,,,,,,,,,
180,9,Memory,3,,,,,,,00790941205fa.jpg,,,,,,,,,,,,,,,
181,9,Memory,3,,,,,,,sunagsiwrmuixqgdimb.jpg,,,,,,,,,,,,,,,
182,9,Memory,3,,,,,,,sunaaekxzjzrfgtkwjf.jpg,,,,,,,,,,,,,,,
183,9,Memory,3,,,,,,,00609940928fa.jpg,,,,,,,,,,,,,,,
184,9,Memory,3,,,,,,,01000960627fa.jpg,,,,,,,,,,,,,,,
185,9,Memory,3,,,,,,,sunbvzmgrdvaakxusbu.jpg,,,,,,,,,,,,,,,
186,9,Memory,3,,,,,,,00498960627fa.jpg,,,,,,,,,,,,,,,
187,9,Memory,3,,,,,,,00191940128fb.jpg,,,,,,,,,,,,,,,
188,9,Memory,3,,,,,,,sunamczizlzavhzhpay.jpg,,,,,,,,,,,,,,,
189,9,Memory,3,,,,,,,sunabueyoajufbkraki.jpg,,,,,,,,,,,,,,,
190,9,Memory,3,,,,,,,00306940422fa.jpg,,,,,,,,,,,,,,,
191,9,Memory,3,,,,,,,sunatstrpjxhvtbaczf.jpg,,,,,,,,,,,,,,,
192,9,Memory,3,,,,,,,sunaemcowdozyphwknd.jpg,,,,,,,,,,,,,,,
193,9,Memory,3,,,,,,,sunaampvucecsfbdafn.jpg,,,,,,,,,,,,,,,
194,9,Memory,3,,,,,,,00296940422fa.jpg,,,,,,,,,,,,,,,
195,9,Memory,3,,,,,,,sunabzjxlmkwnwzimua.jpg,,,,,,,,,,,,,,,
196,9,Memory,3,,,,,,,00787941205fa.jpg,,,,,,,,,,,,,,,
197,9,Memory,3,,,,,,,sunabrwnslxalcohfre.jpg,,,,,,,,,,,,,,,
198,9,Memory,3,,,,,,,00809960620fa.jpg,,,,,,,,,,,,,,,
199,9,Memory,3,,,,,,,sunahbvlpavurqoxdeq.jpg,,,,,,,,,,,,,,,
200,9,Presentation,4,00483940519fa_sunabyvpwkgsjtijdwj.jpg,00069931230fb_sunaaeowapdkwzqpgqr.jpg,,,,,,,>,Face,,,,,1,,,,,,,x
201,9,Presentation,4,00554940519fa_sunacfdkbsrughwqwtt.jpg,00788941205fa_sunagountlxpzkytsmp.jpg,,,,,,,<,Place,,,,,1,,,,,,,x
202,9,Presentation,4,00972960627fa_sunbbfqwjpdxniyhies.jpg,00227940128fa_sunabckqabszusgcykj.jpg,,,,,,,<,Face,,,,,1,,,,,,,o
203,9,Presentation,4,00097931230fa_sunaajayojuslbbnneg.jpg,00700941121fa_sunadsgmtznewzyasnk.jpg,,,,,,,>,Face,,,,,1,,,,,,,x
204,9,Presentation,4,00935960627fa_sunaqbmgkgqucajzrkp.jpg,00153931230fa_sunaauhozyxzeeqstxi.jpg,,,,,,,<,Place,,,,,1,,,,,,,o
205,9,Presentation,4,00132931230fb_sunaanjcbzdvtvblsdy.jpg,00747941201fa_sunaeutbrtswvsozxyk.jpg,,,,,,,>,Place,,,,,1,,,,,,,o
206,9,Presentation,4,00208940128fa_sunaazzyhbvqjpmazjq.jpg,00993960627fa_sunbprywzqxjcezkbch.jpg,,,,,,,>,Face,,,,,1,,,,,,,x
207,9,Presentation,4,01011960627fa_sundahdxwmcdluscvot.jpg,00762941201fa_sunafgzgbisbopcyslr.jpg,,,,,,,<,Face,,,,,1,,,,,,,x
208,9,Presentation,4,00540940519fa_sunacdnquypmsshhsbk.jpg,00581940928fa_sunacvzhvcksnwqcqbw.jpg,,,,,,,<,Place,,,,,1,,,,,,,o
209,9,Presentation,4,00705960530fa_sunaduslxfzlbxlllnz.jpg,00848940307fa_sunaivdylrawbmhryfp.jpg,,,,,,,>,Place,,,,,1,,,,,,,o
210,9,Memory,4,,,,,,,00540940519fa.jpg,,,,,,,,,,,,,,,
211,9,Memory,4,,,,,,,sunadsgmtznewzyasnk.jpg,,,,,,,,,,,,,,,
212,9,Memory,4,,,,,,,sunacdnquypmsshhsbk.jpg,,,,,,,,,,,,,,,
213,9,Memory,4,,,,,,,00762941201fa.jpg,,,,,,,,,,,,,,,
214,9,Memory,4,,,,,,,sunaafvitpexrpvumsa.jpg,,,,,,,,,,,,,,,
215,9,Memory,4,,,,,,,00972960627fa.jpg,,,,,,,,,,,,,,,
216,9,Memory,4,,,,,,,00581940928fa.jpg,,,,,,,,,,,,,,,
217,9,Memory,4,,,,,,,sunaqbmgkgqucajzrkp.jpg,,,,,,,,,,,,,,,
218,9,Memory,4,,,,,,,sunbaoizrfijvhpnnjn.jpg,,,,,,,,,,,,,,,
219,9,Memory,4,,,,,,,00797960620fa.jpg,,,,,,,,,,,,,,,
220,9,Memory,4,,,,,,,sunaofikylqtxphvdem.jpg,,,,,,,,,,,,,,,
221,9,Memory,4,,,,,,,sunahawfngukizslzsd.jpg,,,,,,,,,,,,,,,
222,9,Memory,4,,,,,,,00069931230fb.jpg,,,,,,,,,,,,,,,
223,9,Memory,4,,,,,,,00700941121fa.jpg,,,,,,,,,,,,,,,
224,9,Memory,4,,,,,,,sunaivdylrawbmhryfp.jpg,,,,,,,,,,,,,,,
225,9,Memory,4,,,,,,,sunaaeowapdkwzqpgqr.jpg,,,,,,,,,,,,,,,
226,9,Memory,4,,,,,,,sunbbfqwjpdxniyhies.jpg,,,,,,,,,,,,,,,
227,9,Memory,4,,,,,,,sunafgzgbisbopcyslr.jpg,,,,,,,,,,,,,,,
228,9,Memory,4,,,,,,,sunaanjcbzdvtvblsdy.jpg,,,,,,,,,,,,,,,
229,9,Memory,4,,,,,,,sunafxokyavhgptyfye.jpg,,,,,,,,,,,,,,,
230,9,Memory,4,,,,,,,00132931230fb.jpg,,,,,,,,,,,,,,,
231,9,Memory,4,,,,,,,00939960627fa.jpg,,,,,,,,,,,,,,,
232,9,Memory,4,,,,,,,sunaahwnmtqsrhocysw.jpg,,,,,,,,,,,,,,,
233,9,Memory,4,,,,,,,sunaivdjruhkrfywfed.jpg,,,,,,,,,,,,,,,
234,9,Memory,4,,,,,,,sunarceibpcyacbmfga.jpg,,,,,,,,,,,,,,,
235,9,Memory,4,,,,,,,00969960627fa.jpg,,,,,,,,,,,,,,,
236,9,Memory,4,,,,,,,00097931230fa.jpg,,,,,,,,,,,,,,,
237,9,Memory,4,,,,,,,sunaajayojuslbbnneg.jpg,,,,,,,,,,,,,,,
238,9,Memory,4,,,,,,,00910960530fa.jpg,,,,,,,,,,,,,,,
239,9,Memory,4,,,,,,,00848940307fa.jpg,,,,,,,,,,,,,,,
240,9,Memory,4,,,,,,,00093931230fa.jpg,,,,,,,,,,,,,,,
241,9,Memory,4,,,,,,,00807941205fa.jpg,,,,,,,,,,,,,,,
242,9,Memory,4,,,,,,,00082931230fa.jpg,,,,,,,,,,,,,,,
243,9,Memory,4,,,,,,,00847940307fa.jpg,,,,,,,,,,,,,,,
244,9,Memory,4,,,,,,,00935960627fa.jpg,,,,,,,,,,,,,,,
245,9,Memory,4,,,,,,,sunacvzhvcksnwqcqbw.jpg,,,,,,,,,,,,,,,
246,9,Memory,4,,,,,,,sunagufzbeteqdjxais.jpg,,,,,,,,,,,,,,,
247,9,Memory,4,,,,,,,sunaeuvjbmdpknaqqaj.jpg,,,,,,,,,,,,,,,
248,9,Memory,4,,,,,,,00749941201fa.jpg,,,,,,,,,,,,,,,
249,9,Memory,4,,,,,,,00776941205fa.jpg,,,,,,,,,,,,,,,
250,9,Presentation,5,00898960530fa_sunamkmeblgteyggink.jpg,01004960627fa_sunbwtlihsuptkrckid.jpg,,,,,,,<,Face,,,,,1,,,,,,,o
251,9,Presentation,5,00885960530fa_sunakwlvxjpddialozd.jpg,00786941205fa_sunagmhildamktmqjss.jpg,,,,,,,<,Place,,,,,1,,,,,,,x
252,9,Presentation,5,00937960627fa_sunaqsolmfydodnakub.jpg,01002960627fb_sunbwaafjdebjzttuvq.jpg,,,,,,,>,Place,,,,,1,,,,,,,o
253,9,Presentation,5,00950960627fa_sunasrjlmglmjzbmqxb.jpg,00081941031fa_sunaaftlyfudyzuhqzf.jpg,,,,,,,>,Face,,,,,0,,,,,,,x
254,9,Presentation,5,00901960530fa_sunammbnoambmhdxdwd.jpg,00987960627fa_sunbloeoiozwjjsiamp.jpg,,,,,,,<,Face,,,,,1,,,,,,,o
255,9,Presentation,5,00095931230fa_sunaahzooisqkwlxwoz.jpg,00816941205fa_sunahmhrncocyhsjpxk.jpg,,,,,,,>,Place,,,,,1,,,,,,,x
256,9,Presentation,5,00663941121fa_sunadnjjzohjhbohlwq.jpg,00943960627fa_sunarpsxqkduedrrzyi.jpg,,,,,,,<,Place,,,,,1,,,,,,,x
257,9,Presentation,5,00889960530fa_sunaletopenvvozhpxc.jpg,00576941031fa_sunacvjlsylseoghjup.jpg,,,,,,,<,Face,,,,,1,,,,,,,o
258,9,Presentation,5,00839940307fa_sunaipyohrqlwngaqif.jpg,00938960627fa_sunaqyylsngywqzwfmx.jpg,,,,,,,>,Face,,,,,1,,,,,,,o
259,9,Presentation,5,00882960530fa_sunaknlirqjqiwbbeeg.jpg,00922960627fa_sunapqkyghktgtosuuk.jpg,,,,,,,>,Place,,,,,1,,,,,,,x
260,9,Memory,5,,,,,,,sunaaheqzstzxuadglu.jpg,,,,,,,,,,,,,,,
261,9,Memory,5,,,,,,,00562941031fa.jpg,,,,,,,,,,,,,,,
262,9,Memory,5,,,,,,,sunaletopenvvozhpxc.jpg,,,,,,,,,,,,,,,
263,9,Memory,5,,,,,,,sunaayehfdqcyxggsej.jpg,,,,,,,,,,,,,,,
264,9,Memory,5,,,,,,,00938960627fa.jpg,,,,,,,,,,,,,,,
265,9,Memory,5,,,,,,,sunadnjjzohjhbohlwq.jpg,,,,,,,,,,,,,,,
266,9,Memory,5,,,,,,,sunaijsqpvodplbwxkf.jpg,,,,,,,,,,,,,,,
267,9,Memory,5,,,,,,,sunadbdqzigzwipuipr.jpg,,,,,,,,,,,,,,,
268,9,Memory,5,,,,,,,sunbloeoiozwjjsiamp.jpg,,,,,,,,,,,,,,,
269,9,Memory,5,,,,,,,00885960530fa.jpg,,,,,,,,,,,,,,,
270,9,Memory,5,,,,,,,sunakwlvxjpddialozd.jpg,,,,,,,,,,,,,,,
271,9,Memory,5,,,,,,,00532960627fa.jpg,,,,,,,,,,,,,,,
272,9,Memory,5,,,,,,,00943960627fa.jpg,,,,,,,,,,,,,,,
273,9,Memory,5,,,,,,,00092931230fa.jpg,,,,,,,,,,,,,,,
274,9,Memory,5,,,,,,,00805941205fa.jpg,,,,,,,,,,,,,,,
275,9,Memory,5,,,,,,,00979960627fa.jpg,,,,,,,,,,,,,,,
276,9,Memory,5,,,,,,,00987960627fa.jpg,,,,,,,,,,,,,,,
277,9,Memory,5,,,,,,,sundbixjudsgeuuehrn.jpg,,,,,,,,,,,,,,,
278,9,Memory,5,,,,,,,00663941121fa.jpg,,,,,,,,,,,,,,,
279,9,Memory,5,,,,,,,00194940128fb.jpg,,,,,,,,,,,,,,,
280,9,Memory,5,,,,,,,sunaqyylsngywqzwfmx.jpg,,,,,,,,,,,,,,,
281,9,Memory,5,,,,,,,sunagmhildamktmqjss.jpg,,,,,,,,,,,,,,,
282,9,Memory,5,,,,,,,sunagvprlbprarvgdvj.jpg,,,,,,,,,,,,,,,
283,9,Memory,5,,,,,,,00095931230fa.jpg,,,,,,,,,,,,,,,
284,9,Memory,5,,,,,,,sunaknlirqjqiwbbeeg.jpg,,,,,,,,,,,,,,,
285,9,Memory,5,,,,,,,sunaahzooisqkwlxwoz.jpg,,,,,,,,,,,,,,,
286,9,Memory,5,,,,,,,00631940928fa.jpg,,,,,,,,,,,,,,,
287,9,Memory,5,,,,,,,01207940128fa.jpg,,,,,,,,,,,,,,,
288,9,Memory,5,,,,,,,sunaccdtpgenvcbcbcf.jpg,,,,,,,,,,,,,,,
289,9,Memory,5,,,,,,,01004960627fa.jpg,,,,,,,,,,,,,,,
290,9,Memory,5,,,,,,,sunbdycacjfaujxitbw.jpg,,,,,,,,,,,,,,,
291,9,Memory,5,,,,,,,sunbwtlihsuptkrckid.jpg,,,,,,,,,,,,,,,
292,9,Memory,5,,,,,,,00889960530fa.jpg,,,,,,,,,,,,,,,
293,9,Memory,5,,,,,,,00835940307fa.jpg,,,,,,,,,,,,,,,
294,9,Memory,5,,,,,,,sunagwzdbtlixdhgolm.jpg,,,,,,,,,,,,,,,
295,9,Memory,5,,,,,,,00882960530fa.jpg,,,,,,,,,,,,,,,
296,9,Memory,5,,,,,,,00801941205fa.jpg,,,,,,,,,,,,,,,
297,9,Memory,5,,,,,,,sunacjnahdmqfnjfwqx.jpg,,,,,,,,,,,,,,,
298,9,Memory,5,,,,,,,sunarpsxqkduedrrzyi.jpg,,,,,,,,,,,,,,,
299,9,Memory,5,,,,,,,00786941205fa.jpg,,,,,,,,,,,,,,,
300,9,Presentation,6,00906960530fa_sunantryfbloeaomfta.jpg,00071940128fa_sunaaexpnawiehinlpy.jpg,,,,,,,<,Place,,,,,1,,,,,,,o
301,9,Presentation,6,00976960627fa_sunbbhqyyzmsxhsbjmp.jpg,00316940422fa_sunabxmguapjekttvwm.jpg,,,,,,,<,Face,,,,,1,,,,,,,x
302,9,Presentation,6,00089931230fa_sunaagcpoejbuzyvddd.jpg,00062931230fb_sunaaelotvjgibjtjhs.jpg,,,,,,,>,Face,,,,,1,,,,,,,x
303,9,Presentation,6,00115931230fa_sunaakmxzhuceuiryah.jpg,00548940519fa_sunacerqowiaeoqkmsq.jpg,,,,,,,>,Place,,,,,1,,,,,,,o
304,9,Presentation,6,00124931230fa_sunaalhlvzmjmitybdn.jpg,00290940422fa_sunabqowuarvqqcnipn.jpg,,,,,,,<,Place,,,,,1,,,,,,,o
305,9,Presentation,6,00264940128fb_sunabjzyxcjnmztdonj.jpg,00760960620fa_sunaffstbkappprzxnv.jpg,,,,,,,>,Face,,,,,0,,,,,,,x
306,9,Presentation,6,00787960620fa_sunagoufulkpsxrmklt.jpg,00101931230fb_sunaajqmsaavkmgbsth.jpg,,,,,,,<,Face,,,,,1,,,,,,,o
307,9,Presentation,6,01009960627fa_sunbxzweleltykebgan.jpg,00633940928fa_sunadbhmrgrrpyzglxs.jpg,,,,,,,>,Face,,,,,1,,,,,,,x
308,9,Presentation,6,00138931230fa_sunaapfaivxqoynnwwp.jpg,00977960627fa_sunbbxkanhzjgbwyxqs.jpg,,,,,,,<,Place,,,,,1,,,,,,,o
309,9,Presentation,6,00598940928fa_sunacxeheuiigkcgquf.jpg,00746941201fa_sunaetydippjxikifsb.jpg,,,,,,,>,Place,,,,,1,,,,,,,o
310,9,Memory,6,,,,,,,sunbfyvfqiimvdaxlqn.jpg,,,,,,,,,,,,,,,
311,9,Memory,6,,,,,,,sunaapxkpvrhpjplsok.jpg,,,,,,,,,,,,,,,
312,9,Memory,6,,,,,,,sunalcrtwiycqobgelp.jpg,,,,,,,,,,,,,,,
313,9,Memory,6,,,,,,,00780960530fa.jpg,,,,,,,,,,,,,,,
314,9,Memory,6,,,,,,,01009960627fa.jpg,,,,,,,,,,,,,,,
315,9,Memory,6,,,,,,,00983960627fa.jpg,,,,,,,,,,,,,,,
316,9,Memory,6,,,,,,,sunaagcpoejbuzyvddd.jpg,,,,,,,,,,,,,,,
317,9,Memory,6,,,,,,,sunadakkdovnuzlycvp.jpg,,,,,,,,,,,,,,,
318,9,Memory,6,,,,,,,00746941201fa.jpg,,,,,,,,,,,,,,,
319,9,Memory,6,,,,,,,sunagetqixeypsysbpn.jpg,,,,,,,,,,,,,,,
320,9,Memory,6,,,,,,,sunaapfaivxqoynnwwp.jpg,,,,,,,,,,,,,,,
321,9,Memory,6,,,,,,,00142931230fb.jpg,,,,,,,,,,,,,,,
322,9,Memory,6,,,,,,,00290940422fa.jpg,,,,,,,,,,,,,,,
323,9,Memory,6,,,,,,,sunaetydippjxikifsb.jpg,,,,,,,,,,,,,,,
324,9,Memory,6,,,,,,,sunafijbgncijwykrnl.jpg,,,,,,,,,,,,,,,
325,9,Memory,6,,,,,,,sunaaexpnawiehinlpy.jpg,,,,,,,,,,,,,,,
326,9,Memory,6,,,,,,,00264940128fb.jpg,,,,,,,,,,,,,,,
327,9,Memory,6,,,,,,,sunadrmfzmstgdjdcod.jpg,,,,,,,,,,,,,,,
328,9,Memory,6,,,,,,,sunahqrxievfeusiqlt.jpg,,,,,,,,,,,,,,,
329,9,Memory,6,,,,,,,00101931230fb.jpg,,,,,,,,,,,,,,,
330,9,Memory,6,,,,,,,00694941121fa.jpg,,,,,,,,,,,,,,,
331,9,Memory,6,,,,,,,sunaamsdyakblkfoydx.jpg,,,,,,,,,,,,,,,
332,9,Memory,6,,,,,,,sunaajqmsaavkmgbsth.jpg,,,,,,,,,,,,,,,
333,9,Memory,6,,,,,,,sunabjzyxcjnmztdonj.jpg,,,,,,,,,,,,,,,
334,9,Memory,6,,,,,,,sunantryfbloeaomfta.jpg,,,,,,,,,,,,,,,
335,9,Memory,6,,,,,,,00766960620fa.jpg,,,,,,,,,,,,,,,
336,9,Memory,6,,,,,,,00906960530fa.jpg,,,,,,,,,,,,,,,
337,9,Memory,6,,,,,,,sunaffstbkappprzxnv.jpg,,,,,,,,,,,,,,,
338,9,Memory,6,,,,,,,00071940128fa.jpg,,,,,,,,,,,,,,,
339,9,Memory,6,,,,,,,sunaglqunwuycxydmyu.jpg,,,,,,,,,,,,,,,
340,9,Memory,6,,,,,,,00630941031fa.jpg,,,,,,,,,,,,,,,
341,9,Memory,6,,,,,,,00089931230fa.jpg,,,,,,,,,,,,,,,
342,9,Memory,6,,,,,,,sunabqowuarvqqcnipn.jpg,,,,,,,,,,,,,,,
343,9,Memory,6,,,,,,,00785941205fa.jpg,,,,,,,,,,,,,,,
344,9,Memory,6,,,,,,,sunbxzweleltykebgan.jpg,,,,,,,,,,,,,,,
345,9,Memory,6,,,,,,,00887960530.jpg,,,,,,,,,,,,,,,
346,9,Memory,6,,,,,,,00138931230fa.jpg,,,,,,,,,,,,,,,
347,9,Memory,6,,,,,,,00822940307fa.jpg,,,,,,,,,,,,,,,
348,9,Memory,6,,,,,,,00129931230fb.jpg,,,,,,,,,,,,,,,
349,9,Memory,6,,,,,,,00760960620fa.jpg,,,,,,,,,,,,,,,
350,9,Presentation,7,00292940422fb_sunabrjdpmoedcdjbpo.jpg,00564940928fa_sunacmpqqfbsvlzinzl.jpg,,,,,,,<,Face,,,,,1,,,,,,,o
351,9,Presentation,7,00947960627fa_sunasmmcxdddtmtazwx.jpg,00996960627fa_sunbpvgllfdejxcpjqp.jpg,,,,,,,<,Place,,,,,1,,,,,,,x
352,9,Presentation,7,00905960530fa_sunanmoqeyprjjjfxjt.jpg,00235940128fb_sunabclssnoeuigtawp.jpg,,,,,,,<,Face,,,,,1,,,,,,,x
353,9,Presentation,7,00754941201fa_sunaffgsyyvoqdlkmnk.jpg,00245940128fa_sunabeyhmxodahoieyk.jpg,,,,,,,<,Place,,,,,0,,,,,,,o
354,9,Presentation,7,01003960627fb_sunbwdrdvsweerwsdrj.jpg,00598941031fa_sunacxtcahkymosigud.jpg,,,,,,,>,Place,,,,,0,,,,,,,x
355,9,Presentation,7,00970960627fa_sunbasypfgzjtomktmu.jpg,00967960627fa_sunbaejotfklekvpxcz.jpg,,,,,,,>,Face,,,,,1,,,,,,,x
356,9,Presentation,7,00280940422fb_sunabohxbskznglnrhv.jpg,00125931230fa_sunaalltyvjhbzhkmvg.jpg,,,,,,,>,Place,,,,,1,,,,,,,x
357,9,Presentation,7,00931960627fa_sunaptrqvaooxfvktvw.jpg,00929960627fa_sunaprnrbmgkomdbchr.jpg,,,,,,,<,Face,,,,,1,,,,,,,o
358,9,Presentation,7,00263940128fb_sunabjuovqvyfuzvqwt.jpg,00239940128fa_sunabctlikybqabezjv.jpg,,,,,,,>,Place,,,,,1,,,,,,,x
359,9,Presentation,7,00960960627fa_sunawksfbacycuhbrsc.jpg,00120931230fa_sunaakxgygjfqrzpyoz.jpg,,,,,,,>,Face,,,,,0,,,,,,,o
360,9,Memory,7,,,,,,,sunabctlikybqabezjv.jpg,,,,,,,,,,,,,,,
361,9,Memory,7,,,,,,,00773960620fa.jpg,,,,,,,,,,,,,,,
362,9,Memory,7,,,,,,,sunawksfbacycuhbrsc.jpg,,,,,,,,,,,,,,,
363,9,Memory,7,,,,,,,sunadtlxenqqxsyjvix.jpg,,,,,,,,,,,,,,,
364,9,Memory,7,,,,,,,00235940128fb.jpg,,,,,,,,,,,,,,,
365,9,Memory,7,,,,,,,00929960627fa.jpg,,,,,,,,,,,,,,,
366,9,Memory,7,,,,,,,00263940128fb.jpg,,,,,,,,,,,,,,,
367,9,Memory,7,,,,,,,00280940422fb.jpg,,,,,,,,,,,,,,,
368,9,Memory,7,,,,,,,sunanwjjyqqwzqrqagd.jpg,,,,,,,,,,,,,,,
369,9,Memory,7,,,,,,,sunabclssnoeuigtawp.jpg,,,,,,,,,,,,,,,
370,9,Memory,7,,,,,,,00997960627fa.jpg,,,,,,,,,,,,,,,
371,9,Memory,7,,,,,,,00120931230fa.jpg,,,,,,,,,,,,,,,
372,9,Memory,7,,,,,,,sunaguchqqnrtodtezq.jpg,,,,,,,,,,,,,,,
373,9,Memory,7,,,,,,,00705941205fa.jpg,,,,,,,,,,,,,,,
374,9,Memory,7,,,,,,,00818940307fa.jpg,,,,,,,,,,,,,,,
375,9,Memory,7,,,,,,,sunabohxbskznglnrhv.jpg,,,,,,,,,,,,,,,
376,9,Memory,7,,,,,,,sunahpblecxtmuzkmxb.jpg,,,,,,,,,,,,,,,
377,9,Memory,7,,,,,,,sunaprnrbmgkomdbchr.jpg,,,,,,,,,,,,,,,
378,9,Memory,7,,,,,,,00505960627fa.jpg,,,,,,,,,,,,,,,
379,9,Memory,7,,,,,,,00947960627fa.jpg,,,,,,,,,,,,,,,
380,9,Memory,7,,,,,,,sunbaejotfklekvpxcz.jpg,,,,,,,,,,,,,,,
381,9,Memory,7,,,,,,,sunabjuovqvyfuzvqwt.jpg,,,,,,,,,,,,,,,
382,9,Memory,7,,,,,,,sunasmmcxdddtmtazwx.jpg,,,,,,,,,,,,,,,
383,9,Memory,7,,,,,,,sunabzuqsrgcsonqlkz.jpg,,,,,,,,,,,,,,,
384,9,Memory,7,,,,,,,00239940128fa.jpg,,,,,,,,,,,,,,,
385,9,Memory,7,,,,,,,sunagvjurcwdbixvnyi.jpg,,,,,,,,,,,,,,,
386,9,Memory,7,,,,,,,sunafvsxtzaizojicxx.jpg,,,,,,,,,,,,,,,
387,9,Memory,7,,,,,,,sunaptrqvaooxfvktvw.jpg,,,,,,,,,,,,,,,
388,9,Memory,7,,,,,,,00314940422fa.jpg,,,,,,,,,,,,,,,
389,9,Memory,7,,,,,,,sunabwmcbaxwioksdgw.jpg,,,,,,,,,,,,,,,
390,9,Memory,7,,,,,,,00800941205fb.jpg,,,,,,,,,,,,,,,
391,9,Memory,7,,,,,,,00967960627fa.jpg,,,,,,,,,,,,,,,
392,9,Memory,7,,,,,,,00908960530fa.jpg,,,,,,,,,,,,,,,
393,9,Memory,7,,,,,,,00931960627fa.jpg,,,,,,,,,,,,,,,
394,9,Memory,7,,,,,,,sunaefgzwiramypjvtd.jpg,,,,,,,,,,,,,,,
395,9,Memory,7,,,,,,,00796941205fa.jpg,,,,,,,,,,,,,,,
396,9,Memory,7,,,,,,,00725941201fa.jpg,,,,,,,,,,,,,,,
397,9,Memory,7,,,,,,,00960960627fa.jpg,,,,,,,,,,,,,,,
398,9,Memory,7,,,,,,,sunaakxgygjfqrzpyoz.jpg,,,,,,,,,,,,,,,
399,9,Memory,7,,,,,,,sunbtpilbhhbmhmeuzq.jpg,,,,,,,,,,,,,,,
