,Subject,Trial Type,Run,Cued Composite,Uncued Composite,Cued Face,Cued Place,Uncued Face,Uncued Place,Memory Image,Category,Cued Side,Cued Category,Attention Reaction Time (s),Familiarity Reaction Time (s),Familiarity Rating,Attention Level,Cue Validity,Post Invalid Cue,Pre Invalid Cue,Attention Button,Rating History,Stimulus Onset,Stimulus End,Attention Probe
110,25,Memory,2,,,,,,,00101931230fb.jpg,,,,,1.819,3.0,,,,,,,1539787164.084841,1539787166.603752,
111,25,Memory,2,,,,,,,sunantryfbloeaomfta.jpg,,,,,1.185,2.0,,,,,,,1539787168.003835,1539787170.437478,
112,25,Memory,2,,,,,,,00914960620fa.jpg,,,,,1.169,2.0,,,,,,,1539787171.889607,1539787174.289565,
113,25,Memory,2,,,,,,,00773941201fa.jpg,,,,,1.337,3.0,,,,,,,1539787175.689361,1539787178.189868,
114,25,Memory,2,,,,,,,00967960627fa.jpg,,,,,1.537,2.0,,,,,,,1539787179.607376,1539787181.908309,
115,25,Memory,2,,,,,,,00868960307fa.jpg,,,,,0.886,1.0,,,,,,,1539787183.242166,1539787185.658218,
116,25,Memory,2,,,,,,,00866940307fa.jpg,,,,,0.969,1.0,,,,,,,1539787187.043886,1539787189.594691,
117,25,Memory,2,,,,,,,01004960627fa.jpg,,,,,1.32,1.0,,,,,,,1539787190.994003,1539787193.429629,
118,25,Memory,2,,,,,,,sunbloeoiozwjjsiamp.jpg,,,,,1.134,1.0,,,,,,,1539787194.828343,1539787197.297165,
119,25,Memory,2,,,,,,,00793941205fa.jpg,,,,,1.436,3.0,,,,,,,1539787198.697168,1539787201.332202,
120,25,Memory,2,,,,,,,sunaajtnvzzpsjdzres.jpg,,,,,1.069,1.0,,,,,,,1539787202.765292,1539787205.165781,
121,25,Memory,2,,,,,,,sunajawzbrlrwafowen.jpg,,,,,0.984,1.0,,,,,,,1539787206.549469,1539787208.933888,
122,25,Memory,2,,,,,,,00864940307fa.jpg,,,,,1.203,1.0,,,,,,,1539787210.333921,1539787212.618546,
123,25,Memory,2,,,,,,,sunaozisvwfbmlkfhzv.jpg,,,,,1.067,1.0,,,,,,,1539787214.018411,1539787216.437233,
124,25,Memory,2,,,,,,,00972960627fa.jpg,,,,,1.738,1.0,,,,,,,1539787217.836994,1539787220.221474,
125,25,Memory,2,,,,,,,sunagountlxpzkytsmp.jpg,,,,,0.972,1.0,,,,,,,1539787221.57136,1539787224.088458,
126,25,Memory,2,,,,,,,sunbbfqwjpdxniyhies.jpg,,,,,1.505,1.0,,,,,,,1539787225.538645,1539787228.023182,
127,25,Memory,2,,,,,,,00937960627fa.jpg,,,,,1.253,2.0,,,,,,,1539787229.422615,1539787231.841923,
128,25,Memory,2,,,,,,,00987960627fa.jpg,,,,,1.119,1.0,,,,,,,1539787233.224854,1539787235.625056,
129,25,Memory,2,,,,,,,sunaqsolmfydodnakub.jpg,,,,,1.254,1.0,,,,,,,1539787237.059233,1539787239.410346,
130,25,Memory,2,,,,,,,sunafvcflzhlqloapyo.jpg,,,,,1.135,1.0,,,,,,,1539787240.792965,1539787243.262317,
131,25,Memory,2,,,,,,,sunaptrqvaooxfvktvw.jpg,,,,,0.935,3.0,,,,,,,1539787244.67868,1539787247.129485,
132,25,Memory,2,,,,,,,sunajbwkywmsqkldfml.jpg,,,,,0.755,1.0,,,,,,,1539787248.546665,1539787250.980065,
133,25,Memory,2,,,,,,,sunabtlfmiwtljmoues.jpg,,,,,1.22,1.0,,,,,,,1539787252.365056,1539787254.732183,
134,25,Memory,2,,,,,,,00882960530fa.jpg,,,,,1.155,3.0,,,,,,,1539787256.131417,1539787258.482524,
135,25,Memory,2,,,,,,,00788941205fa.jpg,,,,,1.002,2.0,,,,,,,1539787259.900239,1539787262.217479,
136,25,Memory,2,,,,,,,sunagtumacdlmciqamz.jpg,,,,,0.672,1.0,,,,,,,1539787263.584706,1539787266.001516,
137,25,Memory,2,,,,,,,sunbwtlihsuptkrckid.jpg,,,,,0.77,1.0,,,,,,,1539787267.335527,1539787269.736192,
138,25,Memory,2,,,,,,,sunajjxttslobudoqbv.jpg,,,,,0.839,1.0,,,,,,,1539787271.169882,1539787273.738101,
139,25,Memory,2,,,,,,,00108960530fa.jpg,,,,,1.704,2.0,,,,,,,1539787275.17153,1539787277.489697,
140,25,Memory,2,,,,,,,00302940422fa.jpg,,,,,1.37,3.0,,,,,,,1539787278.906163,1539787281.255736,
141,25,Memory,2,,,,,,,00906960530fa.jpg,,,,,1.32,4.0,,,,,,,1539787282.674859,1539787285.007915,
142,25,Memory,2,,,,,,,sunbaejotfklekvpxcz.jpg,,,,,0.867,1.0,,,,,,,1539787286.45839,1539787288.743192,
143,25,Memory,2,,,,,,,00264940128fb.jpg,,,,,1.438,2.0,,,,,,,1539787290.125336,1539787292.445157,
144,25,Memory,2,,,,,,,00795941205fa.jpg,,,,,1.237,3.0,,,,,,,1539787293.811175,1539787296.363464,
145,25,Memory,2,,,,,,,sunaajqmsaavkmgbsth.jpg,,,,,0.72,1.0,,,,,,,1539787297.796394,1539787300.146506,
146,25,Memory,2,,,,,,,sunagtjwilqjvxohypn.jpg,,,,,0.651,1.0,,,,,,,1539787301.614503,1539787304.180954,
147,25,Memory,2,,,,,,,sunabjzyxcjnmztdonj.jpg,,,,,0.987,1.0,,,,,,,1539787305.632925,1539787308.031597,
148,25,Memory,2,,,,,,,00931960627fa.jpg,,,,,1.335,2.0,,,,,,,1539787309.382953,1539787311.96614,
149,25,Memory,2,,,,,,,sunaknlirqjqiwbbeeg.jpg,,,,,1.152,1.0,,,,,,,1539787313.417431,1539787315.885123,
