,Subject,Trial Type,Run,Cued Composite,Uncued Composite,Cued Face,Cued Place,Uncued Face,Uncued Place,Memory Image,Category,Cued Side,Cued Category,Attention Reaction Time (s),Familiarity Reaction Time (s),Familiarity Rating,Attention Level,Cue Validity,Post Invalid Cue,Pre Invalid Cue,Attention Button,Rating History,Stimulus Onset,Stimulus End,Attention Probe
260,25,Memory,5,,,,,,,00675941121fa.jpg,,,,,1.134,1.0,,,,,,,1539788367.340939,1539788369.908258,
261,25,Memory,5,,,,,,,sunabjuovqvyfuzvqwt.jpg,,,,,0.986,4.0,,,,,,,1539788371.308367,1539788373.726144,
262,25,Memory,5,,,,,,,00314940422fa.jpg,,,,,0.569,1.0,,,,,,,1539788375.059741,1539788377.42782,
263,25,Memory,5,,,,,,,sunaccdtpgenvcbcbcf.jpg,,,,,1.32,1.0,,,,,,,1539788378.778837,1539788381.14569,
264,25,Memory,5,,,,,,,00263940128fb.jpg,,,,,0.719,1.0,,,,,,,1539788382.579894,1539788384.92922,
265,25,Memory,5,,,,,,,sunagjeesomrwjsfqie.jpg,,,,,1.12,3.0,,,,,,,1539788386.379481,1539788388.648389,
266,25,Memory,5,,,,,,,sunaaeowapdkwzqpgqr.jpg,,,,,0.954,1.0,,,,,,,1539788390.031598,1539788392.516161,
267,25,Memory,5,,,,,,,00760960620fa.jpg,,,,,1.453,2.0,,,,,,,1539788393.91584,1539788396.31557,
268,25,Memory,5,,,,,,,00783941205fa.jpg,,,,,1.419,3.0,,,,,,,1539788397.667923,1539788399.968784,
269,25,Memory,5,,,,,,,sunbpvgllfdejxcpjqp.jpg,,,,,0.986,1.0,,,,,,,1539788401.351312,1539788403.902829,
270,25,Memory,5,,,,,,,sunbdycacjfaujxitbw.jpg,,,,,1.003,3.0,,,,,,,1539788405.337101,1539788407.771503,
271,25,Memory,5,,,,,,,sunadoxcchtmsxewsau.jpg,,,,,0.835,4.0,,,,,,,1539788409.172195,1539788411.621533,
272,25,Memory,5,,,,,,,sunabclssnoeuigtawp.jpg,,,,,1.053,3.0,,,,,,,1539788413.10556,1539788415.505848,
273,25,Memory,5,,,,,,,sundahdxwmcdluscvot.jpg,,,,,1.153,1.0,,,,,,,1539788416.940984,1539788419.441187,
274,25,Memory,5,,,,,,,00989960627fa.jpg,,,,,0.838,1.0,,,,,,,1539788420.823905,1539788423.092106,
275,25,Memory,5,,,,,,,sunbbgtoeuzierkkajt.jpg,,,,,1.169,1.0,,,,,,,1539788424.492701,1539788426.911098,
276,25,Memory,5,,,,,,,sunaaehaikpckyjsety.jpg,,,,,1.586,1.0,,,,,,,1539788428.260338,1539788430.661553,
277,25,Memory,5,,,,,,,00260940128fa.jpg,,,,,1.069,1.0,,,,,,,1539788432.079528,1539788434.429292,
278,25,Memory,5,,,,,,,sunagmhildamktmqjss.jpg,,,,,1.039,2.0,,,,,,,1539788435.846948,1539788438.314093,
279,25,Memory,5,,,,,,,00786941205fa.jpg,,,,,0.688,1.0,,,,,,,1539788439.747465,1539788442.133021,
280,25,Memory,5,,,,,,,sunaofikylqtxphvdem.jpg,,,,,1.237,3.0,,,,,,,1539788443.533101,1539788445.850264,
281,25,Memory,5,,,,,,,sunacjnahdmqfnjfwqx.jpg,,,,,0.851,1.0,,,,,,,1539788447.30123,1539788449.684735,
282,25,Memory,5,,,,,,,sunabgfhvifeijihhjw.jpg,,,,,1.269,1.0,,,,,,,1539788451.067752,1539788453.45188,
283,25,Memory,5,,,,,,,00973960627fa.jpg,,,,,0.72,1.0,,,,,,,1539788454.854068,1539788457.386751,
284,25,Memory,5,,,,,,,sunafgzgbisbopcyslr.jpg,,,,,0.951,3.0,,,,,,,1539788458.753754,1539788461.186827,
285,25,Memory,5,,,,,,,00762941201fa.jpg,,,,,0.552,1.0,,,,,,,1539788462.639382,1539788464.988285,
286,25,Memory,5,,,,,,,sunbondbduabvijnmch.jpg,,,,,1.32,2.0,,,,,,,1539788466.406334,1539788468.690454,
287,25,Memory,5,,,,,,,sunaffstbkappprzxnv.jpg,,,,,0.903,1.0,,,,,,,1539788470.089757,1539788472.575905,
288,25,Memory,5,,,,,,,00060931230fa.jpg,,,,,0.769,1.0,,,,,,,1539788473.992225,1539788476.342144,
289,25,Memory,5,,,,,,,00069931230fb.jpg,,,,,1.42,1.0,,,,,,,1539788477.710311,1539788480.159772,
290,25,Memory,5,,,,,,,sunabwmcbaxwioksdgw.jpg,,,,,1.287,1.0,,,,,,,1539788481.560415,1539788483.878579,
291,25,Memory,5,,,,,,,00996960627fa.jpg,,,,,0.686,1.0,,,,,,,1539788485.296725,1539788487.780437,
292,25,Memory,5,,,,,,,00559940519fa.jpg,,,,,0.686,1.0,,,,,,,1539788489.14674,1539788491.748728,
293,25,Memory,5,,,,,,,sunacjkmnpawfzbyvae.jpg,,,,,1.134,2.0,,,,,,,1539788493.148985,1539788495.56542,
294,25,Memory,5,,,,,,,00562941031fa.jpg,,,,,0.637,1.0,,,,,,,1539788496.932924,1539788499.233797,
295,25,Memory,5,,,,,,,01011960627fa.jpg,,,,,0.786,1.0,,,,,,,1539788500.633416,1539788503.069247,
296,25,Memory,5,,,,,,,00532960627fa.jpg,,,,,1.035,1.0,,,,,,,1539788504.502223,1539788506.970615,
297,25,Memory,5,,,,,,,00235940128fb.jpg,,,,,0.786,1.0,,,,,,,1539788508.470364,1539788510.969999,
298,25,Memory,5,,,,,,,00979960627fa.jpg,,,,,0.853,1.0,,,,,,,1539788512.372046,1539788514.754897,
299,25,Memory,5,,,,,,,00910960530fa.jpg,,,,,1.22,1.0,,,,,,,1539788516.155085,1539788518.622622,
