,Subject,Trial Type,Run,Cued Composite,Uncued Composite,Cued Face,Cued Place,Uncued Face,Uncued Place,Memory Image,Category,Cued Side,Cued Category,Attention Reaction Time (s),Familiarity Reaction Time (s),Familiarity Rating,Attention Level,Cue Validity,Post Invalid Cue,Pre Invalid Cue,Attention Button,Rating History,Stimulus Onset,Stimulus End,Attention Probe
10,0,Memory,0,,,,,,,sunaydywdmvlfddbxbk.jpg,,,,,1.82,2,,,,,,,1550770337.035057,1550770339.085398,
11,0,Memory,0,,,,,,,00097931230fa.jpg,,,,,0.0,,,,,,,,1550770340.386504,1550770342.370428,
12,0,Memory,0,,,,,,,00292940422fb.jpg,,,,,1.204,3,,,,,,,1550770343.636686,1550770345.621615,
13,0,Memory,0,,,,,,,00129931230fb.jpg,,,,,1.053,3,,,,,,,1550770346.871727,1550770348.855084,
14,0,Memory,0,,,,,,,sunaajayojuslbbnneg.jpg,,,,,1.92,2,,,,,,,1550770350.123129,1550770352.106187,
15,0,Memory,0,,,,,,,sunasrjlmglmjzbmqxb.jpg,,,,,1.904,3,,,,,,,1550770353.407239,1550770355.392074,
16,0,Memory,0,,,,,,,sunapmfmzadmosuogaz.jpg,,,,,1.086,1,,,,,,,1550770356.659163,1550770358.641442,
17,0,Memory,0,,,,,,,00789960620fa.jpg,,,,,1.803,1,,,,,,,1550770359.910424,1550770361.893613,
18,0,Memory,0,,,,,,,00564940928fa.jpg,,,,,1.487,2,,,,,,,1550770363.176856,1550770365.161029,
19,0,Memory,0,,,,,,,sunaamsdyakblkfoydx.jpg,,,,,0.0,,,,,,,,1550770366.427986,1550770368.412182,
20,0,Memory,0,,,,,,,sunaooffzffbhcpirmm.jpg,,,,,1.353,4,,,,,,,1550770369.679121,1550770371.66333,
21,0,Memory,0,,,,,,,sunadzuvtmtmgupotmf.jpg,,,,,1.137,3,,,,,,,1550770372.930393,1550770374.915197,
22,0,Memory,0,,,,,,,00926960627Fa.jpg,,,,,0.951,2,,,,,,,1550770376.18149,1550770378.165582,
23,0,Memory,0,,,,,,,00976960627fa.jpg,,,,,0.853,1,,,,,,,1550770379.415826,1550770381.399636,
24,0,Memory,0,,,,,,,sunawksfbacycuhbrsc.jpg,,,,,1.119,3,,,,,,,1550770382.666667,1550770384.651809,
25,0,Memory,0,,,,,,,00960960627fa.jpg,,,,,1.636,2,,,,,,,1550770385.901871,1550770387.884941,
26,0,Memory,0,,,,,,,sunagvprlbprarvgdvj.jpg,,,,,1.371,3,,,,,,,1550770389.151219,1550770391.136389,
27,0,Memory,0,,,,,,,00481940519fa.jpg,,,,,1.019,3,,,,,,,1550770392.386533,1550770394.371376,
28,0,Memory,0,,,,,,,sunbbhqyyzmsxhsbjmp.jpg,,,,,1.37,2,,,,,,,1550770395.654242,1550770397.637701,
29,0,Memory,0,,,,,,,00792941205fa.jpg,,,,,1.07,2,,,,,,,1550770398.888847,1550770400.87358,
30,0,Memory,0,,,,,,,sunagsiwrmuixqgdimb.jpg,,,,,1.504,4,,,,,,,1550770402.139939,1550770404.123109,
31,0,Memory,0,,,,,,,00801941205fa.jpg,,,,,1.22,3,,,,,,,1550770405.391165,1550770407.375245,
32,0,Memory,0,,,,,,,sunadakkdovnuzlycvp.jpg,,,,,1.487,3,,,,,,,1550770408.641152,1550770410.626441,
33,0,Memory,0,,,,,,,00950960627fa.jpg,,,,,1.387,2,,,,,,,1550770411.87624,1550770413.859517,
34,0,Memory,0,,,,,,,sunaibnpvhkdpdnzcnz.jpg,,,,,1.453,4,,,,,,,1550770415.111498,1550770417.094678,
35,0,Memory,0,,,,,,,00834940307fa.jpg,,,,,1.453,1,,,,,,,1550770418.345541,1550770420.329059,
36,0,Memory,0,,,,,,,00719960620fa.jpg,,,,,1.601,2,,,,,,,1550770421.595993,1550770423.57999,
37,0,Memory,0,,,,,,,sunbbgtoeuzierkkajt.jpg,,,,,1.72,2,,,,,,,1550770424.847895,1550770426.83105,
38,0,Memory,0,,,,,,,00126931230fb.jpg,,,,,1.32,3,,,,,,,1550770428.097307,1550770430.082353,
39,0,Memory,0,,,,,,,sunabxsuqbleluwczoy.jpg,,,,,1.754,3,,,,,,,1550770431.366599,1550770433.350415,
40,0,Memory,0,,,,,,,00919960620fa.jpg,,,,,0.903,1,,,,,,,1550770434.617832,1550770436.600871,
41,0,Memory,0,,,,,,,sunabrjdpmoedcdjbpo.jpg,,,,,1.22,1,,,,,,,1550770437.867692,1550770439.853008,
42,0,Memory,0,,,,,,,00965960627fa.jpg,,,,,1.103,2,,,,,,,1550770441.103209,1550770443.086059,
43,0,Memory,0,,,,,,,00973960627fa.jpg,,,,,1.103,4,,,,,,,1550770444.337398,1550770446.320292,
44,0,Memory,0,,,,,,,sunacmpqqfbsvlzinzl.jpg,,,,,1.42,2,,,,,,,1550770447.571349,1550770449.555421,
45,0,Memory,0,,,,,,,sunaamdjwemxpmmtypi.jpg,,,,,1.337,3,,,,,,,1550770450.806479,1550770452.789706,
46,0,Memory,0,,,,,,,sunagpancjmxqfazssf.jpg,,,,,1.087,1,,,,,,,1550770454.03974,1550770456.02402,
47,0,Memory,0,,,,,,,sunapqwoeotxshkukbh.jpg,,,,,1.204,2,,,,,,,1550770457.290797,1550770459.275057,
48,0,Memory,0,,,,,,,00913960530fa.jpg,,,,,1.12,2,,,,,,,1550770460.526296,1550770462.509246,
49,0,Memory,0,,,,,,,00630941031fa.jpg,,,,,1.003,2,,,,,,,1550770463.776088,1550770465.761226,
