,Subject,Trial Type,Run,Cued Composite,Uncued Composite,Cued Face,Cued Place,Uncued Face,Uncued Place,Memory Image,Category,Cued Side,Cued Category,Attention Reaction Time (s),Familiarity Reaction Time (s),Familiarity Rating,Attention Level,Cue Validity,Post Invalid Cue,Pre Invalid Cue,Attention Button
0,almost_practice,Presentation,0,00966960627fa_sunaygrtwrwfezqjizr.jpg,00884960530fa_sunakodkcslgqhqlgwl.jpg,00966960627fa.jpg,sunaygrtwrwfezqjizr.jpg,00884960530fa.jpg,sunakodkcslgqhqlgwl.jpg,,,<,Place,,,,,1,,,
1,almost_practice,Presentation,0,00670941121fa_sunadochqcucscehsgk.jpg,00983960627fa_sunbfyvfqiimvdaxlqn.jpg,00670941121fa.jpg,sunadochqcucscehsgk.jpg,00983960627fa.jpg,sunbfyvfqiimvdaxlqn.jpg,,,<,Place,,,,,0,,,
2,almost_practice,Presentation,0,00210940128fb_sunabanoxjtqxamkucc.jpg,01000960627fa_sunbvzmgrdvaakxusbu.jpg,00210940128fb.jpg,sunabanoxjtqxamkucc.jpg,01000960627fa.jpg,sunbvzmgrdvaakxusbu.jpg,,,<,Place,,,,,1,,,
3,almost_practice,Presentation,0,00827940307fa_sunahtfxgsrmkiulnwk.jpg,00815941205fa_sunahiphsekjihkafsl.jpg,00827940307fa.jpg,sunahtfxgsrmkiulnwk.jpg,00815941205fa.jpg,sunahiphsekjihkafsl.jpg,,,<,Place,,,,,1,,,
4,almost_practice,Presentation,0,00990960627fa_sunbpflsdaxnddnwcqi.jpg,00635941031fa_sunaddsaeicthrfbkhe.jpg,00990960627fa.jpg,sunbpflsdaxnddnwcqi.jpg,00635941031fa.jpg,sunaddsaeicthrfbkhe.jpg,,,<,Place,,,,,1,,,
5,almost_practice,Presentation,0,00902960530fa_sunanaacmmosxrfwmvl.jpg,01207940128fa_sundbixjudsgeuuehrn.jpg,00902960530fa.jpg,sunanaacmmosxrfwmvl.jpg,01207940128fa.jpg,sundbixjudsgeuuehrn.jpg,,,<,Place,,,,,1,,,
6,almost_practice,Presentation,0,00292940422fb_sunabrjdpmoedcdjbpo.jpg,00126931230fb_sunaamdjwemxpmmtypi.jpg,00292940422fb.jpg,sunabrjdpmoedcdjbpo.jpg,00126931230fb.jpg,sunaamdjwemxpmmtypi.jpg,,,<,Place,,,,,1,,,
7,almost_practice,Presentation,0,00743941201fa_sunaeoghzrjarigmwua.jpg,00891960530fa_sunalkiibhqpxfamlll.jpg,00743941201fa.jpg,sunaeoghzrjarigmwua.jpg,00891960530fa.jpg,sunalkiibhqpxfamlll.jpg,,,<,Place,,,,,0,,,
8,almost_practice,Presentation,0,00294940422fb_sunabrlndkruqokhury.jpg,00700941121fa_sunadsgmtznewzyasnk.jpg,00294940422fb.jpg,sunabrlndkruqokhury.jpg,00700941121fa.jpg,sunadsgmtznewzyasnk.jpg,,,<,Place,,,,,1,,,
9,almost_practice,Presentation,0,00977960627fa_sunbbxkanhzjgbwyxqs.jpg,00754941201fa_sunaffgsyyvoqdlkmnk.jpg,00977960627fa.jpg,sunbbxkanhzjgbwyxqs.jpg,00754941201fa.jpg,sunaffgsyyvoqdlkmnk.jpg,,,<,Place,,,,,1,,,
10,almost_practice,Memory,0,,,,,,,sunadcphrizvfpljiqt.jpg,,,,,,,,,,,
11,almost_practice,Memory,0,,,,,,,sunbbxkanhzjgbwyxqs.jpg,,,,,,,,,,,
12,almost_practice,Memory,0,,,,,,,sunaawqdbpihmlbwyyn.jpg,,,,,,,,,,,
13,almost_practice,Memory,0,,,,,,,00728941205fa.jpg,,,,,,,,,,,
14,almost_practice,Memory,0,,,,,,,sunbfzchmomnvzhbxdg.jpg,,,,,,,,,,,
15,almost_practice,Memory,0,,,,,,,00532960627fa.jpg,,,,,,,,,,,
16,almost_practice,Memory,0,,,,,,,sunahmhrncocyhsjpxk.jpg,,,,,,,,,,,
17,almost_practice,Memory,0,,,,,,,00905960530fa.jpg,,,,,,,,,,,
18,almost_practice,Memory,0,,,,,,,sunabllobxadqcyttej.jpg,,,,,,,,,,,
19,almost_practice,Memory,0,,,,,,,00294940422fb.jpg,,,,,,,,,,,
20,almost_practice,Memory,0,,,,,,,00949960627fb.jpg,,,,,,,,,,,
21,almost_practice,Memory,0,,,,,,,00081941031fa.jpg,,,,,,,,,,,
22,almost_practice,Memory,0,,,,,,,sunacvjlsylseoghjup.jpg,,,,,,,,,,,
23,almost_practice,Memory,0,,,,,,,00931960627fa.jpg,,,,,,,,,,,
24,almost_practice,Memory,0,,,,,,,sunaobtizabegtwfwul.jpg,,,,,,,,,,,
25,almost_practice,Memory,0,,,,,,,00198940128fb.jpg,,,,,,,,,,,
26,almost_practice,Memory,0,,,,,,,sunajawzbrlrwafowen.jpg,,,,,,,,,,,
27,almost_practice,Memory,0,,,,,,,sunaaxjpzcnxligjtjq.jpg,,,,,,,,,,,
28,almost_practice,Memory,0,,,,,,,00784941205fb.jpg,,,,,,,,,,,
29,almost_practice,Memory,0,,,,,,,00146960620fb.jpg,,,,,,,,,,,
30,almost_practice,Memory,0,,,,,,,sunaecpkgfewqqreqwe.jpg,,,,,,,,,,,
31,almost_practice,Memory,0,,,,,,,00082931230fa.jpg,,,,,,,,,,,
32,almost_practice,Memory,0,,,,,,,00163931230fb.jpg,,,,,,,,,,,
33,almost_practice,Memory,0,,,,,,,00744941201fa.jpg,,,,,,,,,,,
34,almost_practice,Memory,0,,,,,,,sunakmnfgklupjijsgf.jpg,,,,,,,,,,,
35,almost_practice,Memory,0,,,,,,,00960960627fa.jpg,,,,,,,,,,,
36,almost_practice,Memory,0,,,,,,,sunajoveqhiprwqgoco.jpg,,,,,,,,,,,
37,almost_practice,Memory,0,,,,,,,sunaatpeezlljqaxlhj.jpg,,,,,,,,,,,
38,almost_practice,Memory,0,,,,,,,sunahiphsekjihkafsl.jpg,,,,,,,,,,,
39,almost_practice,Memory,0,,,,,,,sunbxarcshsnqsefemx.jpg,,,,,,,,,,,
40,almost_practice,Memory,0,,,,,,,00955960627fb.jpg,,,,,,,,,,,
41,almost_practice,Memory,0,,,,,,,00185940422fb.jpg,,,,,,,,,,,
42,almost_practice,Memory,0,,,,,,,00967960627fa.jpg,,,,,,,,,,,
43,almost_practice,Memory,0,,,,,,,00745941205fa.jpg,,,,,,,,,,,
44,almost_practice,Memory,0,,,,,,,00903960620fa.jpg,,,,,,,,,,,
45,almost_practice,Memory,0,,,,,,,00922960627fa.jpg,,,,,,,,,,,
46,almost_practice,Memory,0,,,,,,,sunabxsuqbleluwczoy.jpg,,,,,,,,,,,
47,almost_practice,Memory,0,,,,,,,00943960627fa.jpg,,,,,,,,,,,
48,almost_practice,Memory,0,,,,,,,sunafgzgbisbopcyslr.jpg,,,,,,,,,,,
49,almost_practice,Memory,0,,,,,,,00860940307fa.jpg,,,,,,,,,,,
50,almost_practice,Presentation,1,00742941201fa_sunaenwuebvlpdmntju.jpg,00138931230fa_sunaapfaivxqoynnwwp.jpg,00742941201fa.jpg,sunaenwuebvlpdmntju.jpg,00138931230fa.jpg,sunaapfaivxqoynnwwp.jpg,,,<,Face,,,,,1,,,
51,almost_practice,Presentation,1,00763941205fa_sunafhmnhsdurlvddpw.jpg,00812941205fa_sunahgtbwgsmtqeodwh.jpg,00763941205fa.jpg,sunafhmnhsdurlvddpw.jpg,00812941205fa.jpg,sunahgtbwgsmtqeodwh.jpg,,,<,Face,,,,,1,,,
52,almost_practice,Presentation,1,00077931230fb_sunaafgqutfaishsxyu.jpg,00262940128fa_sunabizydfotqddlnjp.jpg,00077931230fb.jpg,sunaafgqutfaishsxyu.jpg,00262940128fa.jpg,sunabizydfotqddlnjp.jpg,,,<,Face,,,,,1,,,
53,almost_practice,Presentation,1,00163931230fb_sunaavodbcpygkggnfp.jpg,00822940307fa_sunahqrxievfeusiqlt.jpg,00163931230fb.jpg,sunaavodbcpygkggnfp.jpg,00822940307fa.jpg,sunahqrxievfeusiqlt.jpg,,,<,Face,,,,,1,,,
54,almost_practice,Presentation,1,00663941121fa_sunadnjjzohjhbohlwq.jpg,00943960627fa_sunarpsxqkduedrrzyi.jpg,00663941121fa.jpg,sunadnjjzohjhbohlwq.jpg,00943960627fa.jpg,sunarpsxqkduedrrzyi.jpg,,,<,Face,,,,,1,,,
55,almost_practice,Presentation,1,00218940128fa_sunabbwggenhfbftyvi.jpg,00197940128fa_sunaaylzyqlqrsmfwif.jpg,00218940128fa.jpg,sunabbwggenhfbftyvi.jpg,00197940128fa.jpg,sunaaylzyqlqrsmfwif.jpg,,,<,Face,,,,,1,,,
56,almost_practice,Presentation,1,00308940422fb_sunabwfvcqqidycwypa.jpg,00915960620fa_sunapileznnbbmrwoei.jpg,00308940422fb.jpg,sunabwfvcqqidycwypa.jpg,00915960620fa.jpg,sunapileznnbbmrwoei.jpg,,,<,Face,,,,,1,,,
57,almost_practice,Presentation,1,00889960530fa_sunaletopenvvozhpxc.jpg,00903960620fa_sunanainkqdvktzoxyl.jpg,00889960530fa.jpg,sunaletopenvvozhpxc.jpg,00903960620fa.jpg,sunanainkqdvktzoxyl.jpg,,,<,Face,,,,,1,,,
58,almost_practice,Presentation,1,00862940307fa_sunaizgnnplsvajzhkc.jpg,00793941205fa_sunagtjwilqjvxohypn.jpg,00862940307fa.jpg,sunaizgnnplsvajzhkc.jpg,00793941205fa.jpg,sunagtjwilqjvxohypn.jpg,,,<,Face,,,,,1,,,
59,almost_practice,Presentation,1,00762941201fa_sunafgzgbisbopcyslr.jpg,00306940422fa_sunabueyoajufbkraki.jpg,00762941201fa.jpg,sunafgzgbisbopcyslr.jpg,00306940422fa.jpg,sunabueyoajufbkraki.jpg,,,<,Face,,,,,1,,,
60,almost_practice,Memory,1,,,,,,,sunbmaiocftdtvnzgap.jpg,,,,,,,,,,,
61,almost_practice,Memory,1,,,,,,,sunaeisnjeetzmkbuad.jpg,,,,,,,,,,,
62,almost_practice,Memory,1,,,,,,,sunasrjlmglmjzbmqxb.jpg,,,,,,,,,,,
63,almost_practice,Memory,1,,,,,,,00095931230fa.jpg,,,,,,,,,,,
64,almost_practice,Memory,1,,,,,,,00910960530fa.jpg,,,,,,,,,,,
65,almost_practice,Memory,1,,,,,,,sunacfdkbsrughwqwtt.jpg,,,,,,,,,,,
66,almost_practice,Memory,1,,,,,,,sunabbafjowbzcvbucc.jpg,,,,,,,,,,,
67,almost_practice,Memory,1,,,,,,,00786941205fa.jpg,,,,,,,,,,,
68,almost_practice,Memory,1,,,,,,,00638941031fa.jpg,,,,,,,,,,,
69,almost_practice,Memory,1,,,,,,,00810941205fa.jpg,,,,,,,,,,,
70,almost_practice,Memory,1,,,,,,,sunbesrwkdsffeogeqq.jpg,,,,,,,,,,,
71,almost_practice,Memory,1,,,,,,,00812941205fa.jpg,,,,,,,,,,,
72,almost_practice,Memory,1,,,,,,,sunaooffzffbhcpirmm.jpg,,,,,,,,,,,
73,almost_practice,Memory,1,,,,,,,00847940307fa.jpg,,,,,,,,,,,
74,almost_practice,Memory,1,,,,,,,01207940128fa.jpg,,,,,,,,,,,
75,almost_practice,Memory,1,,,,,,,sunabasphceswhwwqvv.jpg,,,,,,,,,,,
76,almost_practice,Memory,1,,,,,,,sunahtfxgsrmkiulnwk.jpg,,,,,,,,,,,
77,almost_practice,Memory,1,,,,,,,00937960627fa.jpg,,,,,,,,,,,
78,almost_practice,Memory,1,,,,,,,sunaptrqvaooxfvktvw.jpg,,,,,,,,,,,
79,almost_practice,Memory,1,,,,,,,sunajrgtewnualfcerj.jpg,,,,,,,,,,,
80,almost_practice,Memory,1,,,,,,,00548940519fa.jpg,,,,,,,,,,,
81,almost_practice,Memory,1,,,,,,,00211940128fa.jpg,,,,,,,,,,,
82,almost_practice,Memory,1,,,,,,,sunaaiqiqcggrskoqgy.jpg,,,,,,,,,,,
83,almost_practice,Memory,1,,,,,,,00313940422fa.jpg,,,,,,,,,,,
84,almost_practice,Memory,1,,,,,,,suncnkvbhypnivcohyx.jpg,,,,,,,,,,,
85,almost_practice,Memory,1,,,,,,,00235940128fb.jpg,,,,,,,,,,,
86,almost_practice,Memory,1,,,,,,,sunahuynahneraqftyz.jpg,,,,,,,,,,,
87,almost_practice,Memory,1,,,,,,,00145931230fb.jpg,,,,,,,,,,,
88,almost_practice,Memory,1,,,,,,,00481940519fa.jpg,,,,,,,,,,,
89,almost_practice,Memory,1,,,,,,,00761960627fa.jpg,,,,,,,,,,,
90,almost_practice,Memory,1,,,,,,,00208940128fa.jpg,,,,,,,,,,,
91,almost_practice,Memory,1,,,,,,,00880960530fa.jpg,,,,,,,,,,,
92,almost_practice,Memory,1,,,,,,,sunarfdklgdnjgeqfjg.jpg,,,,,,,,,,,
93,almost_practice,Memory,1,,,,,,,sunbbfqwjpdxniyhies.jpg,,,,,,,,,,,
94,almost_practice,Memory,1,,,,,,,sunaafbmtoniaasysgu.jpg,,,,,,,,,,,
95,almost_practice,Memory,1,,,,,,,sunantryfbloeaomfta.jpg,,,,,,,,,,,
96,almost_practice,Memory,1,,,,,,,sunbxzweleltykebgan.jpg,,,,,,,,,,,
97,almost_practice,Memory,1,,,,,,,sunaazezcsunmhttzxz.jpg,,,,,,,,,,,
98,almost_practice,Memory,1,,,,,,,sunbbegcweqnetpdlrh.jpg,,,,,,,,,,,
99,almost_practice,Memory,1,,,,,,,sunabrlndkruqokhury.jpg,,,,,,,,,,,
100,almost_practice,Presentation,2,00483940519fa_sunabyvpwkgsjtijdwj.jpg,00481940519fa_sunabxsuqbleluwczoy.jpg,00483940519fa.jpg,sunabyvpwkgsjtijdwj.jpg,00481940519fa.jpg,sunabxsuqbleluwczoy.jpg,,,>,Face,,,,,1,,,
101,almost_practice,Presentation,2,00871940307_sunajrujcsdxmfbssmc.jpg,00789960620fa_sunagpancjmxqfazssf.jpg,00871940307.jpg,sunajrujcsdxmfbssmc.jpg,00789960620fa.jpg,sunagpancjmxqfazssf.jpg,,,>,Face,,,,,1,,,
102,almost_practice,Presentation,2,00882960530fa_sunaknlirqjqiwbbeeg.jpg,01003960627fb_sunbwdrdvsweerwsdrj.jpg,00882960530fa.jpg,sunaknlirqjqiwbbeeg.jpg,01003960627fb.jpg,sunbwdrdvsweerwsdrj.jpg,,,>,Face,,,,,1,,,
103,almost_practice,Presentation,2,00245940128fa_sunabeyhmxodahoieyk.jpg,00719941201fa_sunadvithllcgmfxsrn.jpg,00245940128fa.jpg,sunabeyhmxodahoieyk.jpg,00719941201fa.jpg,sunadvithllcgmfxsrn.jpg,,,>,Face,,,,,1,,,
104,almost_practice,Presentation,2,00288940422fa_sunabppokiyglaxpcha.jpg,00116931230fa_sunaakqepfoeqomfgxf.jpg,00288940422fa.jpg,sunabppokiyglaxpcha.jpg,00116931230fa.jpg,sunaakqepfoeqomfgxf.jpg,,,>,Face,,,,,1,,,
105,almost_practice,Presentation,2,00993960627fa_sunbprywzqxjcezkbch.jpg,00532960627fa_sunaccdtpgenvcbcbcf.jpg,00993960627fa.jpg,sunbprywzqxjcezkbch.jpg,00532960627fa.jpg,sunaccdtpgenvcbcbcf.jpg,,,>,Face,,,,,1,,,
106,almost_practice,Presentation,2,00968960627fa_sunbagfpovqwbuexqdn.jpg,00133931230fa_sunaanlwnpqndclffxt.jpg,00968960627fa.jpg,sunbagfpovqwbuexqdn.jpg,00133931230fa.jpg,sunaanlwnpqndclffxt.jpg,,,>,Face,,,,,1,,,
107,almost_practice,Presentation,2,00905960530fa_sunanmoqeyprjjjfxjt.jpg,00835940307fa_sunaijsqpvodplbwxkf.jpg,00905960530fa.jpg,sunanmoqeyprjjjfxjt.jpg,00835940307fa.jpg,sunaijsqpvodplbwxkf.jpg,,,>,Face,,,,,1,,,
108,almost_practice,Presentation,2,00208940128fa_sunaazzyhbvqjpmazjq.jpg,00125931230fa_sunaalltyvjhbzhkmvg.jpg,00208940128fa.jpg,sunaazzyhbvqjpmazjq.jpg,00125931230fa.jpg,sunaalltyvjhbzhkmvg.jpg,,,>,Face,,,,,1,,,
109,almost_practice,Presentation,2,00090931230fa_sunaahedjlmtqekgyvj.jpg,00111931230fb_sunaakgekhjklxmvulj.jpg,00090931230fa.jpg,sunaahedjlmtqekgyvj.jpg,00111931230fb.jpg,sunaakgekhjklxmvulj.jpg,,,>,Face,,,,,1,,,
110,almost_practice,Memory,2,,,,,,,sunabrjdpmoedcdjbpo.jpg,,,,,,,,,,,
111,almost_practice,Memory,2,,,,,,,sunauburywlkjszngcq.jpg,,,,,,,,,,,
112,almost_practice,Memory,2,,,,,,,00080931230fb.jpg,,,,,,,,,,,
113,almost_practice,Memory,2,,,,,,,00193940928fa.jpg,,,,,,,,,,,
114,almost_practice,Memory,2,,,,,,,00972960627fa.jpg,,,,,,,,,,,
115,almost_practice,Memory,2,,,,,,,00971960627fa.jpg,,,,,,,,,,,
116,almost_practice,Memory,2,,,,,,,sunaeomlfaabhpswasy.jpg,,,,,,,,,,,
117,almost_practice,Memory,2,,,,,,,sunagutjvdvnhxejerz.jpg,,,,,,,,,,,
118,almost_practice,Memory,2,,,,,,,sunawksfbacycuhbrsc.jpg,,,,,,,,,,,
119,almost_practice,Memory,2,,,,,,,00984960627fa.jpg,,,,,,,,,,,
120,almost_practice,Memory,2,,,,,,,00124931230fa.jpg,,,,,,,,,,,
121,almost_practice,Memory,2,,,,,,,00308940422fb.jpg,,,,,,,,,,,
122,almost_practice,Memory,2,,,,,,,00868960307fa.jpg,,,,,,,,,,,
123,almost_practice,Memory,2,,,,,,,00799941205fa.jpg,,,,,,,,,,,
124,almost_practice,Memory,2,,,,,,,sunaakvmbftkrgqhjun.jpg,,,,,,,,,,,
125,almost_practice,Memory,2,,,,,,,00752960620fa.jpg,,,,,,,,,,,
126,almost_practice,Memory,2,,,,,,,sunbwaafjdebjzttuvq.jpg,,,,,,,,,,,
127,almost_practice,Memory,2,,,,,,,00092931230fa.jpg,,,,,,,,,,,
128,almost_practice,Memory,2,,,,,,,00634940928fa.jpg,,,,,,,,,,,
129,almost_practice,Memory,2,,,,,,,sunabwjvmoaddlyxfjr.jpg,,,,,,,,,,,
130,almost_practice,Memory,2,,,,,,,sunacxeheuiigkcgquf.jpg,,,,,,,,,,,
131,almost_practice,Memory,2,,,,,,,sunaaelotvjgibjtjhs.jpg,,,,,,,,,,,
132,almost_practice,Memory,2,,,,,,,00096931230fa.jpg,,,,,,,,,,,
133,almost_practice,Memory,2,,,,,,,00675941121fa.jpg,,,,,,,,,,,
134,almost_practice,Memory,2,,,,,,,sunbaejotfklekvpxcz.jpg,,,,,,,,,,,
135,almost_practice,Memory,2,,,,,,,00727941205fa.jpg,,,,,,,,,,,
136,almost_practice,Memory,2,,,,,,,sunagoufulkpsxrmklt.jpg,,,,,,,,,,,
137,almost_practice,Memory,2,,,,,,,sunaejnvnpltdmhbcsi.jpg,,,,,,,,,,,
138,almost_practice,Memory,2,,,,,,,00788941205fa.jpg,,,,,,,,,,,
139,almost_practice,Memory,2,,,,,,,sunaavjinpnkappuonm.jpg,,,,,,,,,,,
140,almost_practice,Memory,2,,,,,,,00771941205fa.jpg,,,,,,,,,,,
141,almost_practice,Memory,2,,,,,,,00982960627fa.jpg,,,,,,,,,,,
142,almost_practice,Memory,2,,,,,,,sunafbwnojpqeyzssoe.jpg,,,,,,,,,,,
143,almost_practice,Memory,2,,,,,,,00540940519fa.jpg,,,,,,,,,,,
144,almost_practice,Memory,2,,,,,,,sunasnqkkyhilqkxiqm.jpg,,,,,,,,,,,
145,almost_practice,Memory,2,,,,,,,00819940307fa.jpg,,,,,,,,,,,
146,almost_practice,Memory,2,,,,,,,00115931230fa.jpg,,,,,,,,,,,
147,almost_practice,Memory,2,,,,,,,00554940519fa.jpg,,,,,,,,,,,
148,almost_practice,Memory,2,,,,,,,sunabyfxcxhdebvdyfd.jpg,,,,,,,,,,,
149,almost_practice,Memory,2,,,,,,,00871940307.jpg,,,,,,,,,,,
150,almost_practice,Presentation,3,00910960530fa_sunaofikylqtxphvdem.jpg,00073931230fa_sunaafbmtoniaasysgu.jpg,00910960530fa.jpg,sunaofikylqtxphvdem.jpg,00073931230fa.jpg,sunaafbmtoniaasysgu.jpg,,,<,Face,,,,,1,,,
151,almost_practice,Presentation,3,00933960627fa_sunapwjkcxdaeqehfql.jpg,00662941121fa_sunadkazmlajmohnwfl.jpg,00933960627fa.jpg,sunapwjkcxdaeqehfql.jpg,00662941121fa.jpg,sunadkazmlajmohnwfl.jpg,,,<,Face,,,,,1,,,
152,almost_practice,Presentation,3,00929960627fa_sunaprnrbmgkomdbchr.jpg,00214940128fa_sunabbafjowbzcvbucc.jpg,00929960627fa.jpg,sunaprnrbmgkomdbchr.jpg,00214940128fa.jpg,sunabbafjowbzcvbucc.jpg,,,<,Face,,,,,1,,,
153,almost_practice,Presentation,3,00777941205fa_sunagcinxkccdtrjmlv.jpg,00221940128fa_sunabcfpwlpolnutyju.jpg,00777941205fa.jpg,sunagcinxkccdtrjmlv.jpg,00221940128fa.jpg,sunabcfpwlpolnutyju.jpg,,,<,Face,,,,,1,,,
154,almost_practice,Presentation,3,00089931230fa_sunaagcpoejbuzyvddd.jpg,00479940519fa_sunabxsbfwjccqxxzxq.jpg,00089931230fa.jpg,sunaagcpoejbuzyvddd.jpg,00479940519fa.jpg,sunabxsbfwjccqxxzxq.jpg,,,<,Face,,,,,0,,,
155,almost_practice,Presentation,3,00650941031fa_sunadikxpvqeabxrvvc.jpg,00772941201fa_sunafpfpiiujzoesnqg.jpg,00650941031fa.jpg,sunadikxpvqeabxrvvc.jpg,00772941201fa.jpg,sunafpfpiiujzoesnqg.jpg,,,<,Face,,,,,1,,,
156,almost_practice,Presentation,3,00971960627fa_sunbbegcweqnetpdlrh.jpg,00859940307fa_sunaiycurtqsfkvcaso.jpg,00971960627fa.jpg,sunbbegcweqnetpdlrh.jpg,00859940307fa.jpg,sunaiycurtqsfkvcaso.jpg,,,<,Face,,,,,1,,,
157,almost_practice,Presentation,3,00900960530fa_sunamlotskmmsjeogby.jpg,00109931230fa_sunaajuzribjrizdshh.jpg,00900960530fa.jpg,sunamlotskmmsjeogby.jpg,00109931230fa.jpg,sunaajuzribjrizdshh.jpg,,,<,Face,,,,,0,,,
158,almost_practice,Presentation,3,00131931230fb_sunaangbuylfvckqqoo.jpg,00745941205fa_sunaeouogqolxvggaoq.jpg,00131931230fb.jpg,sunaangbuylfvckqqoo.jpg,00745941205fa.jpg,sunaeouogqolxvggaoq.jpg,,,<,Face,,,,,1,,,
159,almost_practice,Presentation,3,00744941201fa_sunaeomlfaabhpswasy.jpg,00096931230fa_sunaaiqiqcggrskoqgy.jpg,00744941201fa.jpg,sunaeomlfaabhpswasy.jpg,00096931230fa.jpg,sunaaiqiqcggrskoqgy.jpg,,,<,Face,,,,,1,,,
160,almost_practice,Memory,3,,,,,,,sunacuatpqpqhyjhjqk.jpg,,,,,,,,,,,
161,almost_practice,Memory,3,,,,,,,01007960627fa.jpg,,,,,,,,,,,
162,almost_practice,Memory,3,,,,,,,00482940519fa.jpg,,,,,,,,,,,
163,almost_practice,Memory,3,,,,,,,sunacacflqoyxhsqzhe.jpg,,,,,,,,,,,
164,almost_practice,Memory,3,,,,,,,00841940307fa.jpg,,,,,,,,,,,
165,almost_practice,Memory,3,,,,,,,00507940519fa.jpg,,,,,,,,,,,
166,almost_practice,Memory,3,,,,,,,sunaakxjfbrrequcjmx.jpg,,,,,,,,,,,
167,almost_practice,Memory,3,,,,,,,00977960627fa.jpg,,,,,,,,,,,
168,almost_practice,Memory,3,,,,,,,sunbloeoiozwjjsiamp.jpg,,,,,,,,,,,
169,almost_practice,Memory,3,,,,,,,sunaazzyhbvqjpmazjq.jpg,,,,,,,,,,,
170,almost_practice,Memory,3,,,,,,,01000960627fa.jpg,,,,,,,,,,,
171,almost_practice,Memory,3,,,,,,,00061931230fb.jpg,,,,,,,,,,,
172,almost_practice,Memory,3,,,,,,,sunaozisvwfbmlkfhzv.jpg,,,,,,,,,,,
173,almost_practice,Memory,3,,,,,,,00559940519fa.jpg,,,,,,,,,,,
174,almost_practice,Memory,3,,,,,,,sunaanlwnpqndclffxt.jpg,,,,,,,,,,,
175,almost_practice,Memory,3,,,,,,,00787960620fa.jpg,,,,,,,,,,,
176,almost_practice,Memory,3,,,,,,,00576941031fa.jpg,,,,,,,,,,,
177,almost_practice,Memory,3,,,,,,,sunaajspcoepticvplv.jpg,,,,,,,,,,,
178,almost_practice,Memory,3,,,,,,,sunaccdtpgenvcbcbcf.jpg,,,,,,,,,,,
179,almost_practice,Memory,3,,,,,,,sunaaekxzjzrfgtkwjf.jpg,,,,,,,,,,,
180,almost_practice,Memory,3,,,,,,,00571940928fa.jpg,,,,,,,,,,,
181,almost_practice,Memory,3,,,,,,,sunabwfvcqqidycwypa.jpg,,,,,,,,,,,
182,almost_practice,Memory,3,,,,,,,sunaiwfobocrruqznsv.jpg,,,,,,,,,,,
183,almost_practice,Memory,3,,,,,,,sunabclssnoeuigtawp.jpg,,,,,,,,,,,
184,almost_practice,Memory,3,,,,,,,sunahqldjibofgsfdgb.jpg,,,,,,,,,,,
185,almost_practice,Memory,3,,,,,,,sunanwjjyqqwzqrqagd.jpg,,,,,,,,,,,
186,almost_practice,Memory,3,,,,,,,00209940128fb.jpg,,,,,,,,,,,
187,almost_practice,Memory,3,,,,,,,sunadnjjzohjhbohlwq.jpg,,,,,,,,,,,
188,almost_practice,Memory,3,,,,,,,sunaalcrrdbjgdztbiz.jpg,,,,,,,,,,,
189,almost_practice,Memory,3,,,,,,,00762941201fa.jpg,,,,,,,,,,,
190,almost_practice,Memory,3,,,,,,,00787941205fa.jpg,,,,,,,,,,,
191,almost_practice,Memory,3,,,,,,,00720960620fa.jpg,,,,,,,,,,,
192,almost_practice,Memory,3,,,,,,,sunaivdjruhkrfywfed.jpg,,,,,,,,,,,
193,almost_practice,Memory,3,,,,,,,00562941031fa.jpg,,,,,,,,,,,
194,almost_practice,Memory,3,,,,,,,sunagjzcrjvmxzqzljx.jpg,,,,,,,,,,,
195,almost_practice,Memory,3,,,,,,,00882960530fa.jpg,,,,,,,,,,,
196,almost_practice,Memory,3,,,,,,,sunabgfhvifeijihhjw.jpg,,,,,,,,,,,
197,almost_practice,Memory,3,,,,,,,00147931230fb.jpg,,,,,,,,,,,
198,almost_practice,Memory,3,,,,,,,sunacepzfrmtkiqonpy.jpg,,,,,,,,,,,
199,almost_practice,Memory,3,,,,,,,00270940422fb.jpg,,,,,,,,,,,
200,almost_practice,Presentation,4,00792941205fa_sunagsiwrmuixqgdimb.jpg,00633940928fa_sunadbhmrgrrpyzglxs.jpg,00792941205fa.jpg,sunagsiwrmuixqgdimb.jpg,00633940928fa.jpg,sunadbhmrgrrpyzglxs.jpg,,,>,Place,,,,,1,,,
201,almost_practice,Presentation,4,00784941205fb_sunagjzcrjvmxzqzljx.jpg,00149931230fa_sunaauglwmctnkxyird.jpg,00784941205fb.jpg,sunagjzcrjvmxzqzljx.jpg,00149931230fa.jpg,sunaauglwmctnkxyird.jpg,,,>,Place,,,,,1,,,
202,almost_practice,Presentation,4,00554940519fa_sunacfdkbsrughwqwtt.jpg,00760960620fa_sunaffstbkappprzxnv.jpg,00554940519fa.jpg,sunacfdkbsrughwqwtt.jpg,00760960620fa.jpg,sunaffstbkappprzxnv.jpg,,,>,Place,,,,,1,,,
203,almost_practice,Presentation,4,00965960627fa_sunaydywdmvlfddbxbk.jpg,00086931230fa_sunaafynehyrzpsoaml.jpg,00965960627fa.jpg,sunaydywdmvlfddbxbk.jpg,00086931230fa.jpg,sunaafynehyrzpsoaml.jpg,,,>,Place,,,,,0,,,
204,almost_practice,Presentation,4,00978960627fa_sunbddbivbptlrlauhy.jpg,00576941031fa_sunacvjlsylseoghjup.jpg,00978960627fa.jpg,sunbddbivbptlrlauhy.jpg,00576941031fa.jpg,sunacvjlsylseoghjup.jpg,,,>,Place,,,,,1,,,
205,almost_practice,Presentation,4,00568940928fa_sunacsdhbbsybcyxnel.jpg,00162931230fb_sunaavjinpnkappuonm.jpg,00568940928fa.jpg,sunacsdhbbsybcyxnel.jpg,00162931230fb.jpg,sunaavjinpnkappuonm.jpg,,,>,Place,,,,,1,,,
206,almost_practice,Presentation,4,00648941031fa_sunadfndyrtqqiasoig.jpg,00630941031fa_sunadakkdovnuzlycvp.jpg,00648941031fa.jpg,sunadfndyrtqqiasoig.jpg,00630941031fa.jpg,sunadakkdovnuzlycvp.jpg,,,>,Place,,,,,1,,,
207,almost_practice,Presentation,4,00766960620fa_sunafijbgncijwykrnl.jpg,00936960627fa_sunaqgjuuwvdcyiccjt.jpg,00766960620fa.jpg,sunafijbgncijwykrnl.jpg,00936960627fa.jpg,sunaqgjuuwvdcyiccjt.jpg,,,>,Place,,,,,1,,,
208,almost_practice,Presentation,4,00988960627fa_sunbmaiocftdtvnzgap.jpg,00919960620fa_sunapmfmzadmosuogaz.jpg,00988960627fa.jpg,sunbmaiocftdtvnzgap.jpg,00919960620fa.jpg,sunapmfmzadmosuogaz.jpg,,,>,Place,,,,,0,,,
209,almost_practice,Presentation,4,00771941205fa_sunafowswglhxcsufpo.jpg,00942960627fa_sunarfdklgdnjgeqfjg.jpg,00771941205fa.jpg,sunafowswglhxcsufpo.jpg,00942960627fa.jpg,sunarfdklgdnjgeqfjg.jpg,,,>,Place,,,,,1,,,
210,almost_practice,Memory,4,,,,,,,sunajrujcsdxmfbssmc.jpg,,,,,,,,,,,
211,almost_practice,Memory,4,,,,,,,sunaaylzyqlqrsmfwif.jpg,,,,,,,,,,,
212,almost_practice,Memory,4,,,,,,,00245940128fa.jpg,,,,,,,,,,,
213,almost_practice,Memory,4,,,,,,,00102931230fa.jpg,,,,,,,,,,,
214,almost_practice,Memory,4,,,,,,,sunadpnqovzckyikrjo.jpg,,,,,,,,,,,
215,almost_practice,Memory,4,,,,,,,00869940307fa.jpg,,,,,,,,,,,
216,almost_practice,Memory,4,,,,,,,00108960530fa.jpg,,,,,,,,,,,
217,almost_practice,Memory,4,,,,,,,sunafowswglhxcsufpo.jpg,,,,,,,,,,,
218,almost_practice,Memory,4,,,,,,,sunacerqowiaeoqkmsq.jpg,,,,,,,,,,,
219,almost_practice,Memory,4,,,,,,,sunaaftlyfudyzuhqzf.jpg,,,,,,,,,,,
220,almost_practice,Memory,4,,,,,,,sunaddsaeicthrfbkhe.jpg,,,,,,,,,,,
221,almost_practice,Memory,4,,,,,,,00133931230fa.jpg,,,,,,,,,,,
222,almost_practice,Memory,4,,,,,,,00950960627fa.jpg,,,,,,,,,,,
223,almost_practice,Memory,4,,,,,,,sunabeyhmxodahoieyk.jpg,,,,,,,,,,,
224,almost_practice,Memory,4,,,,,,,00947960627fa.jpg,,,,,,,,,,,
225,almost_practice,Memory,4,,,,,,,00662941121fa.jpg,,,,,,,,,,,
226,almost_practice,Memory,4,,,,,,,sunaijsqpvodplbwxkf.jpg,,,,,,,,,,,
227,almost_practice,Memory,4,,,,,,,sunbpflsdaxnddnwcqi.jpg,,,,,,,,,,,
228,almost_practice,Memory,4,,,,,,,sunaathajvxrgptwhoj.jpg,,,,,,,,,,,
229,almost_practice,Memory,4,,,,,,,01009960627fa.jpg,,,,,,,,,,,
230,almost_practice,Memory,4,,,,,,,sunapmfmzadmosuogaz.jpg,,,,,,,,,,,
231,almost_practice,Memory,4,,,,,,,sunaknlirqjqiwbbeeg.jpg,,,,,,,,,,,
232,almost_practice,Memory,4,,,,,,,00635941031fa.jpg,,,,,,,,,,,
233,almost_practice,Memory,4,,,,,,,00990960627fa.jpg,,,,,,,,,,,
234,almost_practice,Memory,4,,,,,,,sunadvithllcgmfxsrn.jpg,,,,,,,,,,,
235,almost_practice,Memory,4,,,,,,,00807941205fa.jpg,,,,,,,,,,,
236,almost_practice,Memory,4,,,,,,,sunaafynehyrzpsoaml.jpg,,,,,,,,,,,
237,almost_practice,Memory,4,,,,,,,00119931230fb.jpg,,,,,,,,,,,
238,almost_practice,Memory,4,,,,,,,00129931230fb.jpg,,,,,,,,,,,
239,almost_practice,Memory,4,,,,,,,sunaffgsyyvoqdlkmnk.jpg,,,,,,,,,,,
240,almost_practice,Memory,4,,,,,,,00663941121fa.jpg,,,,,,,,,,,
241,almost_practice,Memory,4,,,,,,,sunbwyuesflwdpqtgoy.jpg,,,,,,,,,,,
242,almost_practice,Memory,4,,,,,,,sunagcinxkccdtrjmlv.jpg,,,,,,,,,,,
243,almost_practice,Memory,4,,,,,,,00900960530fa.jpg,,,,,,,,,,,
244,almost_practice,Memory,4,,,,,,,sunasmmcxdddtmtazwx.jpg,,,,,,,,,,,
245,almost_practice,Memory,4,,,,,,,00260940128fa.jpg,,,,,,,,,,,
246,almost_practice,Memory,4,,,,,,,sunacjnahdmqfnjfwqx.jpg,,,,,,,,,,,
247,almost_practice,Memory,4,,,,,,,sunaatjesvdupctftmn.jpg,,,,,,,,,,,
248,almost_practice,Memory,4,,,,,,,00631940928fa.jpg,,,,,,,,,,,
249,almost_practice,Memory,4,,,,,,,sunammbnoambmhdxdwd.jpg,,,,,,,,,,,
250,almost_practice,Presentation,5,00264940128fb_sunabjzyxcjnmztdonj.jpg,00816941205fa_sunahmhrncocyhsjpxk.jpg,00264940128fb.jpg,sunabjzyxcjnmztdonj.jpg,00816941205fa.jpg,sunahmhrncocyhsjpxk.jpg,,,<,Place,,,,,1,,,
251,almost_practice,Presentation,5,00854940307fa_sunaiwduelojtwaqeyh.jpg,00864940307fa_sunajawzbrlrwafowen.jpg,00854940307fa.jpg,sunaiwduelojtwaqeyh.jpg,00864940307fa.jpg,sunajawzbrlrwafowen.jpg,,,<,Place,,,,,1,,,
252,almost_practice,Presentation,5,00801941205fa_sunagvprlbprarvgdvj.jpg,00911960530fa_sunaooaqzputrowwbsw.jpg,00801941205fa.jpg,sunagvprlbprarvgdvj.jpg,00911960530fa.jpg,sunaooaqzputrowwbsw.jpg,,,<,Place,,,,,1,,,
253,almost_practice,Presentation,5,00185940422fb_sunaawqdbpihmlbwyyn.jpg,00952960627fa_sunathzzbcwjykldrem.jpg,00185940422fb.jpg,sunaawqdbpihmlbwyyn.jpg,00952960627fa.jpg,sunathzzbcwjykldrem.jpg,,,<,Place,,,,,1,,,
254,almost_practice,Presentation,5,00839940307fa_sunaipyohrqlwngaqif.jpg,00747941201fa_sunaeutbrtswvsozxyk.jpg,00839940307fa.jpg,sunaipyohrqlwngaqif.jpg,00747941201fa.jpg,sunaeutbrtswvsozxyk.jpg,,,<,Place,,,,,1,,,
255,almost_practice,Presentation,5,00123931230fb_sunaalcrrdbjgdztbiz.jpg,00581940928fa_sunacvzhvcksnwqcqbw.jpg,00123931230fb.jpg,sunaalcrrdbjgdztbiz.jpg,00581940928fa.jpg,sunacvzhvcksnwqcqbw.jpg,,,<,Place,,,,,1,,,
256,almost_practice,Presentation,5,00868960307fa_sunajjxttslobudoqbv.jpg,00931960627fa_sunaptrqvaooxfvktvw.jpg,00868960307fa.jpg,sunajjxttslobudoqbv.jpg,00931960627fa.jpg,sunaptrqvaooxfvktvw.jpg,,,<,Place,,,,,1,,,
257,almost_practice,Presentation,5,00097931230fa_sunaajayojuslbbnneg.jpg,00761960627fa_sunafgdqbclkwfocdhg.jpg,00097931230fa.jpg,sunaajayojuslbbnneg.jpg,00761960627fa.jpg,sunafgdqbclkwfocdhg.jpg,,,<,Place,,,,,1,,,
258,almost_practice,Presentation,5,00313940422fa_sunabwjvmoaddlyxfjr.jpg,01004960627fa_sunbwtlihsuptkrckid.jpg,00313940422fa.jpg,sunabwjvmoaddlyxfjr.jpg,01004960627fa.jpg,sunbwtlihsuptkrckid.jpg,,,<,Place,,,,,1,,,
259,almost_practice,Presentation,5,00780960530fa_sunagetqixeypsysbpn.jpg,00127931230fa_sunaampvucecsfbdafn.jpg,00780960530fa.jpg,sunagetqixeypsysbpn.jpg,00127931230fa.jpg,sunaampvucecsfbdafn.jpg,,,<,Place,,,,,1,,,
260,almost_practice,Memory,5,,,,,,,00870940307fa.jpg,,,,,,,,,,,
261,almost_practice,Memory,5,,,,,,,sunajwqkfsykceonyig.jpg,,,,,,,,,,,
262,almost_practice,Memory,5,,,,,,,sunaayehfdqcyxggsej.jpg,,,,,,,,,,,
263,almost_practice,Memory,5,,,,,,,00838940307fa.jpg,,,,,,,,,,,
264,almost_practice,Memory,5,,,,,,,sunaizeyhvjzknwjudw.jpg,,,,,,,,,,,
265,almost_practice,Memory,5,,,,,,,sunaibnpvhkdpdnzcnz.jpg,,,,,,,,,,,
266,almost_practice,Memory,5,,,,,,,00062931230fb.jpg,,,,,,,,,,,
267,almost_practice,Memory,5,,,,,,,00973960627fa.jpg,,,,,,,,,,,
268,almost_practice,Memory,5,,,,,,,00988960627fa.jpg,,,,,,,,,,,
269,almost_practice,Memory,5,,,,,,,sunagvxkjokqimstxpe.jpg,,,,,,,,,,,
270,almost_practice,Memory,5,,,,,,,01004960627fa.jpg,,,,,,,,,,,
271,almost_practice,Memory,5,,,,,,,sunbgklxeqjhdbyfhhy.jpg,,,,,,,,,,,
272,almost_practice,Memory,5,,,,,,,sunadoxcchtmsxewsau.jpg,,,,,,,,,,,
273,almost_practice,Memory,5,,,,,,,00609940928fa.jpg,,,,,,,,,,,
274,almost_practice,Memory,5,,,,,,,sunacjkmnpawfzbyvae.jpg,,,,,,,,,,,
275,almost_practice,Memory,5,,,,,,,00914960620fa.jpg,,,,,,,,,,,
276,almost_practice,Memory,5,,,,,,,sunamlotskmmsjeogby.jpg,,,,,,,,,,,
277,almost_practice,Memory,5,,,,,,,sunbbhqyyzmsxhsbjmp.jpg,,,,,,,,,,,
278,almost_practice,Memory,5,,,,,,,sunaamsdyakblkfoydx.jpg,,,,,,,,,,,
279,almost_practice,Memory,5,,,,,,,00194940128fb.jpg,,,,,,,,,,,
280,almost_practice,Memory,5,,,,,,,sunacycdoztxoluxjyk.jpg,,,,,,,,,,,
281,almost_practice,Memory,5,,,,,,,sunaetydippjxikifsb.jpg,,,,,,,,,,,
282,almost_practice,Memory,5,,,,,,,sunafkmnlytenlsywia.jpg,,,,,,,,,,,
283,almost_practice,Memory,5,,,,,,,00913960530fa.jpg,,,,,,,,,,,
284,almost_practice,Memory,5,,,,,,,sunadfktsqjthoglcsm.jpg,,,,,,,,,,,
285,almost_practice,Memory,5,,,,,,,00132931230fb.jpg,,,,,,,,,,,
286,almost_practice,Memory,5,,,,,,,00827940307fa.jpg,,,,,,,,,,,
287,almost_practice,Memory,5,,,,,,,sunagountlxpzkytsmp.jpg,,,,,,,,,,,
288,almost_practice,Memory,5,,,,,,,00953960627fa.jpg,,,,,,,,,,,
289,almost_practice,Memory,5,,,,,,,00073931230fa.jpg,,,,,,,,,,,
290,almost_practice,Memory,5,,,,,,,00122931230fa.jpg,,,,,,,,,,,
291,almost_practice,Memory,5,,,,,,,00783941205fa.jpg,,,,,,,,,,,
292,almost_practice,Memory,5,,,,,,,00957960627fa.jpg,,,,,,,,,,,
293,almost_practice,Memory,5,,,,,,,sunaatpkocdkocwxpkb.jpg,,,,,,,,,,,
294,almost_practice,Memory,5,,,,,,,00754941201fa.jpg,,,,,,,,,,,
295,almost_practice,Memory,5,,,,,,,sunahctntqrunhdxhtb.jpg,,,,,,,,,,,
296,almost_practice,Memory,5,,,,,,,00906960530fa.jpg,,,,,,,,,,,
297,almost_practice,Memory,5,,,,,,,sunaaeowapdkwzqpgqr.jpg,,,,,,,,,,,
298,almost_practice,Memory,5,,,,,,,sunaenwuebvlpdmntju.jpg,,,,,,,,,,,
299,almost_practice,Memory,5,,,,,,,00864940307fa.jpg,,,,,,,,,,,
300,almost_practice,Presentation,6,00753941201fa_sunafcofuuzebuadceo.jpg,00598940928fa_sunacxeheuiigkcgquf.jpg,00753941201fa.jpg,sunafcofuuzebuadceo.jpg,00598940928fa.jpg,sunacxeheuiigkcgquf.jpg,,,>,Place,,,,,1,,,
301,almost_practice,Presentation,6,00194940128fb_sunaayehfdqcyxggsej.jpg,00574940928fa_sunacvbrcejzwmcgnoq.jpg,00194940128fb.jpg,sunaayehfdqcyxggsej.jpg,00574940928fa.jpg,sunacvbrcejzwmcgnoq.jpg,,,>,Place,,,,,0,,,
302,almost_practice,Presentation,6,00076931230fa_sunaafewhewbxmjiurz.jpg,00935960627fa_sunaqbmgkgqucajzrkp.jpg,00076931230fa.jpg,sunaafewhewbxmjiurz.jpg,00935960627fa.jpg,sunaqbmgkgqucajzrkp.jpg,,,>,Place,,,,,0,,,
303,almost_practice,Presentation,6,00967960627fa_sunbaejotfklekvpxcz.jpg,00982960627fa_sunbesrwkdsffeogeqq.jpg,00967960627fa.jpg,sunbaejotfklekvpxcz.jpg,00982960627fa.jpg,sunbesrwkdsffeogeqq.jpg,,,>,Place,,,,,1,,,
304,almost_practice,Presentation,6,00913960530fa_sunaooffzffbhcpirmm.jpg,00955960627fb_sunauburywlkjszngcq.jpg,00913960530fa.jpg,sunaooffzffbhcpirmm.jpg,00955960627fb.jpg,sunauburywlkjszngcq.jpg,,,>,Place,,,,,1,,,
305,almost_practice,Presentation,6,00869940307fa_sunajoveqhiprwqgoco.jpg,00878960530fa_sunakgbnzxmfohgehnu.jpg,00869940307fa.jpg,sunajoveqhiprwqgoco.jpg,00878960530fa.jpg,sunakgbnzxmfohgehnu.jpg,,,>,Place,,,,,1,,,
306,almost_practice,Presentation,6,00782941205fa_sunagfvluwixdsozaql.jpg,00564941031fa_sunacsaovnjezqwbykf.jpg,00782941205fa.jpg,sunagfvluwixdsozaql.jpg,00564941031fa.jpg,sunacsaovnjezqwbykf.jpg,,,>,Place,,,,,1,,,
307,almost_practice,Presentation,6,00909960530_sunaobtizabegtwfwul.jpg,00153931230fa_sunaauhozyxzeeqstxi.jpg,00909960530.jpg,sunaobtizabegtwfwul.jpg,00153931230fa.jpg,sunaauhozyxzeeqstxi.jpg,,,>,Place,,,,,1,,,
308,almost_practice,Presentation,6,00271940422fa_sunabmbnddafmywtjjj.jpg,00728941205fa_sunaejnvnpltdmhbcsi.jpg,00271940422fa.jpg,sunabmbnddafmywtjjj.jpg,00728941205fa.jpg,sunaejnvnpltdmhbcsi.jpg,,,>,Place,,,,,1,,,
309,almost_practice,Presentation,6,00505960627fa_sunabzuqsrgcsonqlkz.jpg,00720960620fa_sunaecpkgfewqqreqwe.jpg,00505960627fa.jpg,sunabzuqsrgcsonqlkz.jpg,00720960620fa.jpg,sunaecpkgfewqqreqwe.jpg,,,>,Place,,,,,1,,,
310,almost_practice,Memory,6,,,,,,,00803941205fa.jpg,,,,,,,,,,,
311,almost_practice,Memory,6,,,,,,,sunavhxgmgrqsaptynb.jpg,,,,,,,,,,,
312,almost_practice,Memory,6,,,,,,,sunafgdqbclkwfocdhg.jpg,,,,,,,,,,,
313,almost_practice,Memory,6,,,,,,,sundbixjudsgeuuehrn.jpg,,,,,,,,,,,
314,almost_practice,Memory,6,,,,,,,00919960620fa.jpg,,,,,,,,,,,
315,almost_practice,Memory,6,,,,,,,sunagetqixeypsysbpn.jpg,,,,,,,,,,,
316,almost_practice,Memory,6,,,,,,,00909960530.jpg,,,,,,,,,,,
317,almost_practice,Memory,6,,,,,,,00263940128fb.jpg,,,,,,,,,,,
318,almost_practice,Memory,6,,,,,,,00676941121fa.jpg,,,,,,,,,,,
319,almost_practice,Memory,6,,,,,,,00815941205fa.jpg,,,,,,,,,,,
320,almost_practice,Memory,6,,,,,,,00123931230fb.jpg,,,,,,,,,,,
321,almost_practice,Memory,6,,,,,,,sunaalhlvzmjmitybdn.jpg,,,,,,,,,,,
322,almost_practice,Memory,6,,,,,,,00834940307fa.jpg,,,,,,,,,,,
323,almost_practice,Memory,6,,,,,,,sunatstrpjxhvtbaczf.jpg,,,,,,,,,,,
324,almost_practice,Memory,6,,,,,,,sunaanptmsknhirrzed.jpg,,,,,,,,,,,
325,almost_practice,Memory,6,,,,,,,sunbwtlihsuptkrckid.jpg,,,,,,,,,,,
326,almost_practice,Memory,6,,,,,,,sunaafjszryxyavjzln.jpg,,,,,,,,,,,
327,almost_practice,Memory,6,,,,,,,00746941201fa.jpg,,,,,,,,,,,
328,almost_practice,Memory,6,,,,,,,sunaisiwfgppimtnmxl.jpg,,,,,,,,,,,
329,almost_practice,Memory,6,,,,,,,sunajjxttslobudoqbv.jpg,,,,,,,,,,,
330,almost_practice,Memory,6,,,,,,,sunahawfngukizslzsd.jpg,,,,,,,,,,,
331,almost_practice,Memory,6,,,,,,,sunaakmxzhuceuiryah.jpg,,,,,,,,,,,
332,almost_practice,Memory,6,,,,,,,00835940307fa.jpg,,,,,,,,,,,
333,almost_practice,Memory,6,,,,,,,00987960627fa.jpg,,,,,,,,,,,
334,almost_practice,Memory,6,,,,,,,00792941205fa.jpg,,,,,,,,,,,
335,almost_practice,Memory,6,,,,,,,sunadkazmlajmohnwfl.jpg,,,,,,,,,,,
336,almost_practice,Memory,6,,,,,,,sunaofikylqtxphvdem.jpg,,,,,,,,,,,
337,almost_practice,Memory,6,,,,,,,sunabjuovqvyfuzvqwt.jpg,,,,,,,,,,,
338,almost_practice,Memory,6,,,,,,,sunaanjcbzdvtvblsdy.jpg,,,,,,,,,,,
339,almost_practice,Memory,6,,,,,,,sunagsiwrmuixqgdimb.jpg,,,,,,,,,,,
340,almost_practice,Memory,6,,,,,,,00828940307fa.jpg,,,,,,,,,,,
341,almost_practice,Memory,6,,,,,,,00942960627fa.jpg,,,,,,,,,,,
342,almost_practice,Memory,6,,,,,,,00780960530fa.jpg,,,,,,,,,,,
343,almost_practice,Memory,6,,,,,,,sunaajtnvzzpsjdzres.jpg,,,,,,,,,,,
344,almost_practice,Memory,6,,,,,,,sunanmoqeyprjjjfxjt.jpg,,,,,,,,,,,
345,almost_practice,Memory,6,,,,,,,00197940128fa.jpg,,,,,,,,,,,
346,almost_practice,Memory,6,,,,,,,00816941205fa.jpg,,,,,,,,,,,
347,almost_practice,Memory,6,,,,,,,sunagtjwilqjvxohypn.jpg,,,,,,,,,,,
348,almost_practice,Memory,6,,,,,,,00985960627fa.jpg,,,,,,,,,,,
349,almost_practice,Memory,6,,,,,,,sunaavodbcpygkggnfp.jpg,,,,,,,,,,,
350,almost_practice,Presentation,7,00887960530_sunalcrtwiycqobgelp.jpg,00564940928fa_sunacmpqqfbsvlzinzl.jpg,00887960530.jpg,sunalcrtwiycqobgelp.jpg,00564940928fa.jpg,sunacmpqqfbsvlzinzl.jpg,,,>,Face,,,,,1,,,
351,almost_practice,Presentation,7,00115931230fa_sunaakmxzhuceuiryah.jpg,00263940128fb_sunabjuovqvyfuzvqwt.jpg,00115931230fa.jpg,sunaakmxzhuceuiryah.jpg,00263940128fb.jpg,sunabjuovqvyfuzvqwt.jpg,,,>,Face,,,,,1,,,
352,almost_practice,Presentation,7,00787941205fa_sunagmwxxwymwojbvgi.jpg,00779941205fa_sunagdzlvkqtpnfxfcg.jpg,00787941205fa.jpg,sunagmwxxwymwojbvgi.jpg,00779941205fa.jpg,sunagdzlvkqtpnfxfcg.jpg,,,>,Face,,,,,1,,,
353,almost_practice,Presentation,7,00630940928fa_sunaczwgyukesaajxnx.jpg,00819940307fa_sunahqldjibofgsfdgb.jpg,00630940928fa.jpg,sunaczwgyukesaajxnx.jpg,00819940307fa.jpg,sunahqldjibofgsfdgb.jpg,,,>,Face,,,,,1,,,
354,almost_practice,Presentation,7,00985960627fa_sunbgklxeqjhdbyfhhy.jpg,00136931230fb_sunaanptmsknhirrzed.jpg,00985960627fa.jpg,sunbgklxeqjhdbyfhhy.jpg,00136931230fb.jpg,sunaanptmsknhirrzed.jpg,,,>,Face,,,,,1,,,
355,almost_practice,Presentation,7,00829940307fa_sunahwgbqkqcrwprgvh.jpg,00557940519fa_sunachtuarilwyqnvjx.jpg,00829940307fa.jpg,sunahwgbqkqcrwprgvh.jpg,00557940519fa.jpg,sunachtuarilwyqnvjx.jpg,,,>,Face,,,,,1,,,
356,almost_practice,Presentation,7,00785941205fa_sunaglqunwuycxydmyu.jpg,00102931230fa_sunaajspcoepticvplv.jpg,00785941205fa.jpg,sunaglqunwuycxydmyu.jpg,00102931230fa.jpg,sunaajspcoepticvplv.jpg,,,>,Face,,,,,1,,,
357,almost_practice,Presentation,7,00788941205fa_sunagountlxpzkytsmp.jpg,00973960627fa_sunbbgtoeuzierkkajt.jpg,00788941205fa.jpg,sunagountlxpzkytsmp.jpg,00973960627fa.jpg,sunbbgtoeuzierkkajt.jpg,,,>,Face,,,,,1,,,
358,almost_practice,Presentation,7,00746941201fa_sunaetydippjxikifsb.jpg,00280940422fb_sunabohxbskznglnrhv.jpg,00746941201fa.jpg,sunaetydippjxikifsb.jpg,00280940422fb.jpg,sunabohxbskznglnrhv.jpg,,,>,Face,,,,,1,,,
359,almost_practice,Presentation,7,00681941121fa_sunadqmjrhfjyuzyvdd.jpg,01011960627fa_sundahdxwmcdluscvot.jpg,00681941121fa.jpg,sunadqmjrhfjyuzyvdd.jpg,01011960627fa.jpg,sundahdxwmcdluscvot.jpg,,,>,Face,,,,,1,,,
360,almost_practice,Memory,7,,,,,,,00086931230fa.jpg,,,,,,,,,,,
361,almost_practice,Memory,7,,,,,,,sunagmwxxwymwojbvgi.jpg,,,,,,,,,,,
362,almost_practice,Memory,7,,,,,,,00136931230fb.jpg,,,,,,,,,,,
363,almost_practice,Memory,7,,,,,,,00598940928fa.jpg,,,,,,,,,,,
364,almost_practice,Memory,7,,,,,,,sunarpsxqkduedrrzyi.jpg,,,,,,,,,,,
365,almost_practice,Memory,7,,,,,,,sunaqsolmfydodnakub.jpg,,,,,,,,,,,
366,almost_practice,Memory,7,,,,,,,00162931230fb.jpg,,,,,,,,,,,
367,almost_practice,Memory,7,,,,,,,sunahgtbwgsmtqeodwh.jpg,,,,,,,,,,,
368,almost_practice,Memory,7,,,,,,,00719941201fa.jpg,,,,,,,,,,,
369,almost_practice,Memory,7,,,,,,,sunabaergayifsgacxt.jpg,,,,,,,,,,,
370,almost_practice,Memory,7,,,,,,,00069931230fb.jpg,,,,,,,,,,,
371,almost_practice,Memory,7,,,,,,,00768941205fa.jpg,,,,,,,,,,,
372,almost_practice,Memory,7,,,,,,,00908960530fa.jpg,,,,,,,,,,,
373,almost_practice,Memory,7,,,,,,,00543940519fa.jpg,,,,,,,,,,,
374,almost_practice,Memory,7,,,,,,,sunanainkqdvktzoxyl.jpg,,,,,,,,,,,
375,almost_practice,Memory,7,,,,,,,sunaeouogqolxvggaoq.jpg,,,,,,,,,,,
376,almost_practice,Memory,7,,,,,,,01010960627fa.jpg,,,,,,,,,,,
377,almost_practice,Memory,7,,,,,,,sunagjeesomrwjsfqie.jpg,,,,,,,,,,,
378,almost_practice,Memory,7,,,,,,,sunacdnquypmsshhsbk.jpg,,,,,,,,,,,
379,almost_practice,Memory,7,,,,,,,00292940422fb.jpg,,,,,,,,,,,
380,almost_practice,Memory,7,,,,,,,00214940128fa.jpg,,,,,,,,,,,
381,almost_practice,Memory,7,,,,,,,sunaafvitpexrpvumsa.jpg,,,,,,,,,,,
382,almost_practice,Memory,7,,,,,,,sunaahzooisqkwlxwoz.jpg,,,,,,,,,,,
383,almost_practice,Memory,7,,,,,,,01005960627fa.jpg,,,,,,,,,,,
384,almost_practice,Memory,7,,,,,,,sunagmhildamktmqjss.jpg,,,,,,,,,,,
385,almost_practice,Memory,7,,,,,,,sunbbgtoeuzierkkajt.jpg,,,,,,,,,,,
386,almost_practice,Memory,7,,,,,,,00793941205fa.jpg,,,,,,,,,,,
387,almost_practice,Memory,7,,,,,,,00144931230fb.jpg,,,,,,,,,,,
388,almost_practice,Memory,7,,,,,,,sunapqkyghktgtosuuk.jpg,,,,,,,,,,,
389,almost_practice,Memory,7,,,,,,,00876960620fa.jpg,,,,,,,,,,,
390,almost_practice,Memory,7,,,,,,,00777941205fa.jpg,,,,,,,,,,,
391,almost_practice,Memory,7,,,,,,,00901960530fa.jpg,,,,,,,,,,,
392,almost_practice,Memory,7,,,,,,,sunaiozxhxgtfrmoagh.jpg,,,,,,,,,,,
393,almost_practice,Memory,7,,,,,,,sunaaheqzstzxuadglu.jpg,,,,,,,,,,,
394,almost_practice,Memory,7,,,,,,,00976960627fa.jpg,,,,,,,,,,,
395,almost_practice,Memory,7,,,,,,,01002960627fb.jpg,,,,,,,,,,,
396,almost_practice,Memory,7,,,,,,,sunadbdqzigzwipuipr.jpg,,,,,,,,,,,
397,almost_practice,Memory,7,,,,,,,00742941201fa.jpg,,,,,,,,,,,
398,almost_practice,Memory,7,,,,,,,00857940307fa.jpg,,,,,,,,,,,
399,almost_practice,Memory,7,,,,,,,sunbvzmgrdvaakxusbu.jpg,,,,,,,,,,,
