,Subject,Trial Type,Run,Cued Composite,Uncued Composite,Cued Face,Cued Place,Uncued Face,Uncued Place,Memory Image,Category,Cued Side,Cued Category,Attention Reaction Time (s),Familiarity Reaction Time (s),Familiarity Rating,Attention Level,Cue Validity,Post Invalid Cue,Pre Invalid Cue,Attention Button,Rating History,Stimulus Onset,Stimulus End,Attention Probe
0,21,Presentation,0,00944960627fa_sunasbbntuiheekqyaq.jpg,00723941201fa_sunaedtgwjvvziytspa.jpg,00944960627fa.jpg,sunasbbntuiheekqyaq.jpg,00723941201fa.jpg,sunaedtgwjvvziytspa.jpg,,,<,Face,,,,,1,,,,,,,o
1,21,Presentation,0,00073931230fa_sunaafbmtoniaasysgu.jpg,00776941205fa_sunafxokyavhgptyfye.jpg,00073931230fa.jpg,sunaafbmtoniaasysgu.jpg,00776941205fa.jpg,sunafxokyavhgptyfye.jpg,,,<,Face,,,,,1,,,,,,,x
2,21,Presentation,0,00308940422fb_sunabwfvcqqidycwypa.jpg,01009960627fa_sunbxzweleltykebgan.jpg,00308940422fb.jpg,sunabwfvcqqidycwypa.jpg,01009960627fa.jpg,sunbxzweleltykebgan.jpg,,,<,Face,,,,,1,,,,,,,x
3,21,Presentation,0,00894960620fa_sunalqmfgeadpqsyzpd.jpg,00744941201fa_sunaeomlfaabhpswasy.jpg,00894960620fa.jpg,sunalqmfgeadpqsyzpd.jpg,00744941201fa.jpg,sunaeomlfaabhpswasy.jpg,,,<,Face,,,,,1,,,,,,,o
4,21,Presentation,0,00127931230fa_sunaampvucecsfbdafn.jpg,00777941205fa_sunagcinxkccdtrjmlv.jpg,00127931230fa.jpg,sunaampvucecsfbdafn.jpg,00777941205fa.jpg,sunagcinxkccdtrjmlv.jpg,,,<,Face,,,,,1,,,,,,,o
5,21,Presentation,0,00784941205fb_sunagjzcrjvmxzqzljx.jpg,00895960530fa_sunamczizlzavhzhpay.jpg,00784941205fb.jpg,sunagjzcrjvmxzqzljx.jpg,00895960530fa.jpg,sunamczizlzavhzhpay.jpg,,,<,Face,,,,,1,,,,,,,o
6,21,Presentation,0,00787941205fa_sunagmwxxwymwojbvgi.jpg,00063931230fa_sunaaelyvurpntclgau.jpg,00787941205fa.jpg,sunagmwxxwymwojbvgi.jpg,00063931230fa.jpg,sunaaelyvurpntclgau.jpg,,,<,Face,,,,,1,,,,,,,o
7,21,Presentation,0,00864940307fa_sunajawzbrlrwafowen.jpg,01005960627fa_sunbwyuesflwdpqtgoy.jpg,00864940307fa.jpg,sunajawzbrlrwafowen.jpg,01005960627fa.jpg,sunbwyuesflwdpqtgoy.jpg,,,<,Face,,,,,1,,,,,,,o
8,21,Presentation,0,00145931230fb_sunaatjesvdupctftmn.jpg,00571940928fa_sunacuatpqpqhyjhjqk.jpg,00145931230fb.jpg,sunaatjesvdupctftmn.jpg,00571940928fa.jpg,sunacuatpqpqhyjhjqk.jpg,,,<,Face,,,,,1,,,,,,,o
9,21,Presentation,0,00976960627fa_sunbbhqyyzmsxhsbjmp.jpg,00943960627fa_sunarpsxqkduedrrzyi.jpg,00976960627fa.jpg,sunbbhqyyzmsxhsbjmp.jpg,00943960627fa.jpg,sunarpsxqkduedrrzyi.jpg,,,<,Face,,,,,1,,,,,,,o
10,21,Memory,0,,,,,,,01005960627fa.jpg,,,,,,,,,,,,,,,
11,21,Memory,0,,,,,,,00750941201fa.jpg,,,,,,,,,,,,,,,
12,21,Memory,0,,,,,,,00120931230fa.jpg,,,,,,,,,,,,,,,
13,21,Memory,0,,,,,,,sunaeuzwggvibufclwf.jpg,,,,,,,,,,,,,,,
14,21,Memory,0,,,,,,,sunabwjvmoaddlyxfjr.jpg,,,,,,,,,,,,,,,
15,21,Memory,0,,,,,,,sunabrwnslxalcohfre.jpg,,,,,,,,,,,,,,,
16,21,Memory,0,,,,,,,sunbwyuesflwdpqtgoy.jpg,,,,,,,,,,,,,,,
17,21,Memory,0,,,,,,,00063931230fa.jpg,,,,,,,,,,,,,,,
18,21,Memory,0,,,,,,,00071941031fa.jpg,,,,,,,,,,,,,,,
19,21,Memory,0,,,,,,,00864940307fa.jpg,,,,,,,,,,,,,,,
20,21,Memory,0,,,,,,,sunagmwxxwymwojbvgi.jpg,,,,,,,,,,,,,,,
21,21,Memory,0,,,,,,,sunagmhildamktmqjss.jpg,,,,,,,,,,,,,,,
22,21,Memory,0,,,,,,,sunacuatpqpqhyjhjqk.jpg,,,,,,,,,,,,,,,
23,21,Memory,0,,,,,,,sunarpsxqkduedrrzyi.jpg,,,,,,,,,,,,,,,
24,21,Memory,0,,,,,,,00902960530fa.jpg,,,,,,,,,,,,,,,
25,21,Memory,0,,,,,,,00598940928fa.jpg,,,,,,,,,,,,,,,
26,21,Memory,0,,,,,,,00961960627fa.jpg,,,,,,,,,,,,,,,
27,21,Memory,0,,,,,,,00786941205fa.jpg,,,,,,,,,,,,,,,
28,21,Memory,0,,,,,,,00127931230fa.jpg,,,,,,,,,,,,,,,
29,21,Memory,0,,,,,,,00313940422fa.jpg,,,,,,,,,,,,,,,
30,21,Memory,0,,,,,,,sunamczizlzavhzhpay.jpg,,,,,,,,,,,,,,,
31,21,Memory,0,,,,,,,00308940422fb.jpg,,,,,,,,,,,,,,,
32,21,Memory,0,,,,,,,sunawotxrevnqvamsfp.jpg,,,,,,,,,,,,,,,
33,21,Memory,0,,,,,,,sunabasphceswhwwqvv.jpg,,,,,,,,,,,,,,,
34,21,Memory,0,,,,,,,sunaaexqbtdswxrqjvz.jpg,,,,,,,,,,,,,,,
35,21,Memory,0,,,,,,,00073931230fa.jpg,,,,,,,,,,,,,,,
36,21,Memory,0,,,,,,,00943960627fa.jpg,,,,,,,,,,,,,,,
37,21,Memory,0,,,,,,,00571940928fa.jpg,,,,,,,,,,,,,,,
38,21,Memory,0,,,,,,,sunajawzbrlrwafowen.jpg,,,,,,,,,,,,,,,
39,21,Memory,0,,,,,,,00211940128fa.jpg,,,,,,,,,,,,,,,
40,21,Memory,0,,,,,,,sunaakxgygjfqrzpyoz.jpg,,,,,,,,,,,,,,,
41,21,Memory,0,,,,,,,sunaafbmtoniaasysgu.jpg,,,,,,,,,,,,,,,
42,21,Memory,0,,,,,,,sunacxeheuiigkcgquf.jpg,,,,,,,,,,,,,,,
43,21,Memory,0,,,,,,,00296940422fa.jpg,,,,,,,,,,,,,,,
44,21,Memory,0,,,,,,,00895960530fa.jpg,,,,,,,,,,,,,,,
45,21,Memory,0,,,,,,,sunanaacmmosxrfwmvl.jpg,,,,,,,,,,,,,,,
46,21,Memory,0,,,,,,,00787941205fa.jpg,,,,,,,,,,,,,,,
47,21,Memory,0,,,,,,,sunaaelyvurpntclgau.jpg,,,,,,,,,,,,,,,
48,21,Memory,0,,,,,,,sunabwfvcqqidycwypa.jpg,,,,,,,,,,,,,,,
49,21,Memory,0,,,,,,,sunaampvucecsfbdafn.jpg,,,,,,,,,,,,,,,
50,21,Presentation,1,00634940928fa_sunadcphrizvfpljiqt.jpg,00136931230fb_sunaanptmsknhirrzed.jpg,00634940928fa.jpg,sunadcphrizvfpljiqt.jpg,00136931230fb.jpg,sunaanptmsknhirrzed.jpg,,,>,Face,,,,,1,,,,,,,x
51,21,Presentation,1,00131931230fb_sunaangbuylfvckqqoo.jpg,00811960530fa_sunahedfrhtcwpneund.jpg,00131931230fb.jpg,sunaangbuylfvckqqoo.jpg,00811960530fa.jpg,sunahedfrhtcwpneund.jpg,,,>,Face,,,,,1,,,,,,,x
52,21,Presentation,1,00214940128fa_sunabbafjowbzcvbucc.jpg,00081941031fa_sunaaftlyfudyzuhqzf.jpg,00214940128fa.jpg,sunabbafjowbzcvbucc.jpg,00081941031fa.jpg,sunaaftlyfudyzuhqzf.jpg,,,>,Face,,,,,1,,,,,,,x
53,21,Presentation,1,00869940307fa_sunajoveqhiprwqgoco.jpg,00264940128fb_sunabjzyxcjnmztdonj.jpg,00869940307fa.jpg,sunajoveqhiprwqgoco.jpg,00264940128fb.jpg,sunabjzyxcjnmztdonj.jpg,,,>,Face,,,,,1,,,,,,,o
54,21,Presentation,1,00564940928fa_sunacmpqqfbsvlzinzl.jpg,00979960627fa_sunbdycacjfaujxitbw.jpg,00564940928fa.jpg,sunacmpqqfbsvlzinzl.jpg,00979960627fa.jpg,sunbdycacjfaujxitbw.jpg,,,>,Face,,,,,1,,,,,,,o
55,21,Presentation,1,00854940307fa_sunaiwduelojtwaqeyh.jpg,00775941205fa_sunafvwfsmqkjrutjta.jpg,00854940307fa.jpg,sunaiwduelojtwaqeyh.jpg,00775941205fa.jpg,sunafvwfsmqkjrutjta.jpg,,,>,Face,,,,,1,,,,,,,o
56,21,Presentation,1,00581940928fa_sunacvzhvcksnwqcqbw.jpg,00768941205fa_sunafkmnlytenlsywia.jpg,00581940928fa.jpg,sunacvzhvcksnwqcqbw.jpg,00768941205fa.jpg,sunafkmnlytenlsywia.jpg,,,>,Face,,,,,1,,,,,,,o
57,21,Presentation,1,00559940519fa_sunacjkmnpawfzbyvae.jpg,00936960627fa_sunaqgjuuwvdcyiccjt.jpg,00559940519fa.jpg,sunacjkmnpawfzbyvae.jpg,00936960627fa.jpg,sunaqgjuuwvdcyiccjt.jpg,,,>,Face,,,,,1,,,,,,,o
58,21,Presentation,1,00483940519fa_sunabyvpwkgsjtijdwj.jpg,00905960530fa_sunanmoqeyprjjjfxjt.jpg,00483940519fa.jpg,sunabyvpwkgsjtijdwj.jpg,00905960530fa.jpg,sunanmoqeyprjjjfxjt.jpg,,,>,Face,,,,,1,,,,,,,o
59,21,Presentation,1,00789960620fa_sunagpancjmxqfazssf.jpg,00988960627fa_sunbmaiocftdtvnzgap.jpg,00789960620fa.jpg,sunagpancjmxqfazssf.jpg,00988960627fa.jpg,sunbmaiocftdtvnzgap.jpg,,,>,Face,,,,,1,,,,,,,o
60,21,Memory,1,,,,,,,sunaffstbkappprzxnv.jpg,,,,,,,,,,,,,,,
61,21,Memory,1,,,,,,,00768941205fa.jpg,,,,,,,,,,,,,,,
62,21,Memory,1,,,,,,,sunafvwfsmqkjrutjta.jpg,,,,,,,,,,,,,,,
63,21,Memory,1,,,,,,,00559940519fa.jpg,,,,,,,,,,,,,,,
64,21,Memory,1,,,,,,,sunafkmnlytenlsywia.jpg,,,,,,,,,,,,,,,
65,21,Memory,1,,,,,,,sunadpnqovzckyikrjo.jpg,,,,,,,,,,,,,,,
66,21,Memory,1,,,,,,,sunaqbmgkgqucajzrkp.jpg,,,,,,,,,,,,,,,
67,21,Memory,1,,,,,,,sunacmpqqfbsvlzinzl.jpg,,,,,,,,,,,,,,,
68,21,Memory,1,,,,,,,00893960530Fa.jpg,,,,,,,,,,,,,,,
69,21,Memory,1,,,,,,,00775941205fa.jpg,,,,,,,,,,,,,,,
70,21,Memory,1,,,,,,,00564940928fa.jpg,,,,,,,,,,,,,,,
71,21,Memory,1,,,,,,,sunacjkmnpawfzbyvae.jpg,,,,,,,,,,,,,,,
72,21,Memory,1,,,,,,,sunalkiibhqpxfamlll.jpg,,,,,,,,,,,,,,,
73,21,Memory,1,,,,,,,00650941031fa.jpg,,,,,,,,,,,,,,,
74,21,Memory,1,,,,,,,00854940307fa.jpg,,,,,,,,,,,,,,,
75,21,Memory,1,,,,,,,00869940307fa.jpg,,,,,,,,,,,,,,,
76,21,Memory,1,,,,,,,sunapileznnbbmrwoei.jpg,,,,,,,,,,,,,,,
77,21,Memory,1,,,,,,,00089931230fa.jpg,,,,,,,,,,,,,,,
78,21,Memory,1,,,,,,,sunaloffvbvysigxent.jpg,,,,,,,,,,,,,,,
79,21,Memory,1,,,,,,,00885960530fa.jpg,,,,,,,,,,,,,,,
80,21,Memory,1,,,,,,,00935960627fa.jpg,,,,,,,,,,,,,,,
81,21,Memory,1,,,,,,,sunaagcpoejbuzyvddd.jpg,,,,,,,,,,,,,,,
82,21,Memory,1,,,,,,,00891960530fa.jpg,,,,,,,,,,,,,,,
83,21,Memory,1,,,,,,,sunanmoqeyprjjjfxjt.jpg,,,,,,,,,,,,,,,
84,21,Memory,1,,,,,,,00760960620fa.jpg,,,,,,,,,,,,,,,
85,21,Memory,1,,,,,,,sunaangbuylfvckqqoo.jpg,,,,,,,,,,,,,,,
86,21,Memory,1,,,,,,,00131931230fb.jpg,,,,,,,,,,,,,,,
87,21,Memory,1,,,,,,,00905960530fa.jpg,,,,,,,,,,,,,,,
88,21,Memory,1,,,,,,,00915960620fa.jpg,,,,,,,,,,,,,,,
89,21,Memory,1,,,,,,,sunabeyhmxodahoieyk.jpg,,,,,,,,,,,,,,,
90,21,Memory,1,,,,,,,sunabjzyxcjnmztdonj.jpg,,,,,,,,,,,,,,,
91,21,Memory,1,,,,,,,sunaiwduelojtwaqeyh.jpg,,,,,,,,,,,,,,,
92,21,Memory,1,,,,,,,sunakwlvxjpddialozd.jpg,,,,,,,,,,,,,,,
93,21,Memory,1,,,,,,,00081941031fa.jpg,,,,,,,,,,,,,,,
94,21,Memory,1,,,,,,,00264940128fb.jpg,,,,,,,,,,,,,,,
95,21,Memory,1,,,,,,,00676941121fa.jpg,,,,,,,,,,,,,,,
96,21,Memory,1,,,,,,,sunajoveqhiprwqgoco.jpg,,,,,,,,,,,,,,,
97,21,Memory,1,,,,,,,sunadikxpvqeabxrvvc.jpg,,,,,,,,,,,,,,,
98,21,Memory,1,,,,,,,00245940128fa.jpg,,,,,,,,,,,,,,,
99,21,Memory,1,,,,,,,sunaaftlyfudyzuhqzf.jpg,,,,,,,,,,,,,,,
100,21,Presentation,2,00913960530fa_sunaooffzffbhcpirmm.jpg,00154931230fa_sunaauueuhhvklldjik.jpg,00913960530fa.jpg,sunaooffzffbhcpirmm.jpg,00154931230fa.jpg,sunaauueuhhvklldjik.jpg,,,>,Place,,,,,1,,,,,,,x
101,21,Presentation,2,00773941201fa_sunafvcflzhlqloapyo.jpg,00914960620fa_sunaozisvwfbmlkfhzv.jpg,00773941201fa.jpg,sunafvcflzhlqloapyo.jpg,00914960620fa.jpg,sunaozisvwfbmlkfhzv.jpg,,,>,Place,,,,,1,,,,,,,x
102,21,Presentation,2,00062931230fb_sunaaelotvjgibjtjhs.jpg,00785941205fa_sunaglqunwuycxydmyu.jpg,00062931230fb.jpg,sunaaelotvjgibjtjhs.jpg,00785941205fa.jpg,sunaglqunwuycxydmyu.jpg,,,>,Place,,,,,1,,,,,,,o
103,21,Presentation,2,00778941205fa_sunagcthdfirrcawoic.jpg,00507940519fa_sunacacflqoyxhsqzhe.jpg,00778941205fa.jpg,sunagcthdfirrcawoic.jpg,00507940519fa.jpg,sunacacflqoyxhsqzhe.jpg,,,>,Place,,,,,1,,,,,,,o
104,21,Presentation,2,00532960627fa_sunaccdtpgenvcbcbcf.jpg,00102931230fa_sunaajspcoepticvplv.jpg,00532960627fa.jpg,sunaccdtpgenvcbcbcf.jpg,00102931230fa.jpg,sunaajspcoepticvplv.jpg,,,>,Place,,,,,1,,,,,,,o
105,21,Presentation,2,00763941205fa_sunafhmnhsdurlvddpw.jpg,00754941201fa_sunaffgsyyvoqdlkmnk.jpg,00763941205fa.jpg,sunafhmnhsdurlvddpw.jpg,00754941201fa.jpg,sunaffgsyyvoqdlkmnk.jpg,,,>,Place,,,,,1,,,,,,,x
106,21,Presentation,2,00825940307fa_sunahrltmuwbiehihpe.jpg,00280940422fb_sunabohxbskznglnrhv.jpg,00825940307fa.jpg,sunahrltmuwbiehihpe.jpg,00280940422fb.jpg,sunabohxbskznglnrhv.jpg,,,>,Place,,,,,0,,,,,,,x
107,21,Presentation,2,01002960627fb_sunbwaafjdebjzttuvq.jpg,00967960627fa_sunbaejotfklekvpxcz.jpg,01002960627fb.jpg,sunbwaafjdebjzttuvq.jpg,00967960627fa.jpg,sunbaejotfklekvpxcz.jpg,,,>,Place,,,,,1,,,,,,,x
108,21,Presentation,2,00095931230fa_sunaahzooisqkwlxwoz.jpg,00589940928fa_sunacwggadqsfpovdjv.jpg,00095931230fa.jpg,sunaahzooisqkwlxwoz.jpg,00589940928fa.jpg,sunacwggadqsfpovdjv.jpg,,,>,Place,,,,,1,,,,,,,x
109,21,Presentation,2,00125931230fa_sunaalltyvjhbzhkmvg.jpg,00568940928fa_sunacsdhbbsybcyxnel.jpg,00125931230fa.jpg,sunaalltyvjhbzhkmvg.jpg,00568940928fa.jpg,sunacsdhbbsybcyxnel.jpg,,,>,Place,,,,,1,,,,,,,o
110,21,Memory,2,,,,,,,sunaeisnjeetzmkbuad.jpg,,,,,,,,,,,,,,,
111,21,Memory,2,,,,,,,sunaccdtpgenvcbcbcf.jpg,,,,,,,,,,,,,,,
112,21,Memory,2,,,,,,,00507940519fa.jpg,,,,,,,,,,,,,,,
113,21,Memory,2,,,,,,,sunaglqunwuycxydmyu.jpg,,,,,,,,,,,,,,,
114,21,Memory,2,,,,,,,sunaajtnvzzpsjdzres.jpg,,,,,,,,,,,,,,,
115,21,Memory,2,,,,,,,sunaaexpnawiehinlpy.jpg,,,,,,,,,,,,,,,
116,21,Memory,2,,,,,,,00829940307fa.jpg,,,,,,,,,,,,,,,
117,21,Memory,2,,,,,,,00909960530.jpg,,,,,,,,,,,,,,,
118,21,Memory,2,,,,,,,sunacacflqoyxhsqzhe.jpg,,,,,,,,,,,,,,,
119,21,Memory,2,,,,,,,00265940128fb.jpg,,,,,,,,,,,,,,,
120,21,Memory,2,,,,,,,00835940307fa.jpg,,,,,,,,,,,,,,,
121,21,Memory,2,,,,,,,sunaaelotvjgibjtjhs.jpg,,,,,,,,,,,,,,,
122,21,Memory,2,,,,,,,sunaooffzffbhcpirmm.jpg,,,,,,,,,,,,,,,
123,21,Memory,2,,,,,,,00633940928fa.jpg,,,,,,,,,,,,,,,
124,21,Memory,2,,,,,,,00785941205fa.jpg,,,,,,,,,,,,,,,
125,21,Memory,2,,,,,,,sunacsdhbbsybcyxnel.jpg,,,,,,,,,,,,,,,
126,21,Memory,2,,,,,,,sunaijsqpvodplbwxkf.jpg,,,,,,,,,,,,,,,
127,21,Memory,2,,,,,,,sunakgbnzxmfohgehnu.jpg,,,,,,,,,,,,,,,
128,21,Memory,2,,,,,,,00967960627fa.jpg,,,,,,,,,,,,,,,
129,21,Memory,2,,,,,,,00878960530fa.jpg,,,,,,,,,,,,,,,
130,21,Memory,2,,,,,,,00071940128fa.jpg,,,,,,,,,,,,,,,
131,21,Memory,2,,,,,,,00568940928fa.jpg,,,,,,,,,,,,,,,
132,21,Memory,2,,,,,,,sunaknlirqjqiwbbeeg.jpg,,,,,,,,,,,,,,,
133,21,Memory,2,,,,,,,00108960530fa.jpg,,,,,,,,,,,,,,,
134,21,Memory,2,,,,,,,sunabkmdplkdbvxriff.jpg,,,,,,,,,,,,,,,
135,21,Memory,2,,,,,,,00532960627fa.jpg,,,,,,,,,,,,,,,
136,21,Memory,2,,,,,,,sunbwaafjdebjzttuvq.jpg,,,,,,,,,,,,,,,
137,21,Memory,2,,,,,,,00778941205fa.jpg,,,,,,,,,,,,,,,
138,21,Memory,2,,,,,,,sunaajspcoepticvplv.jpg,,,,,,,,,,,,,,,
139,21,Memory,2,,,,,,,01002960627fb.jpg,,,,,,,,,,,,,,,
140,21,Memory,2,,,,,,,00102931230fa.jpg,,,,,,,,,,,,,,,
141,21,Memory,2,,,,,,,00882960530fa.jpg,,,,,,,,,,,,,,,
142,21,Memory,2,,,,,,,sunahwgbqkqcrwprgvh.jpg,,,,,,,,,,,,,,,
143,21,Memory,2,,,,,,,sunagcthdfirrcawoic.jpg,,,,,,,,,,,,,,,
144,21,Memory,2,,,,,,,sunadbhmrgrrpyzglxs.jpg,,,,,,,,,,,,,,,
145,21,Memory,2,,,,,,,sunbaejotfklekvpxcz.jpg,,,,,,,,,,,,,,,
146,21,Memory,2,,,,,,,00727941205fa.jpg,,,,,,,,,,,,,,,
147,21,Memory,2,,,,,,,sunaobtizabegtwfwul.jpg,,,,,,,,,,,,,,,
148,21,Memory,2,,,,,,,00062931230fb.jpg,,,,,,,,,,,,,,,
149,21,Memory,2,,,,,,,00913960530fa.jpg,,,,,,,,,,,,,,,
150,21,Presentation,3,00270940422fb_sunabllobxadqcyttej.jpg,00636941031fa_sunaddtdkycxbqlpfqa.jpg,00270940422fb.jpg,sunabllobxadqcyttej.jpg,00636941031fa.jpg,sunaddtdkycxbqlpfqa.jpg,,,>,Face,,,,,1,,,,,,,x
151,21,Presentation,3,00746941201fa_sunaetydippjxikifsb.jpg,00208940128fa_sunaazzyhbvqjpmazjq.jpg,00746941201fa.jpg,sunaetydippjxikifsb.jpg,00208940128fa.jpg,sunaazzyhbvqjpmazjq.jpg,,,>,Face,,,,,0,,,,,,,o
152,21,Presentation,3,00132931230fb_sunaanjcbzdvtvblsdy.jpg,00921960627fa_sunapqkpqdfvxlbqwyo.jpg,00132931230fb.jpg,sunaanjcbzdvtvblsdy.jpg,00921960627fa.jpg,sunapqkpqdfvxlbqwyo.jpg,,,>,Face,,,,,1,,,,,,,o
153,21,Presentation,3,00730960620fa_sunaekgzpfilgjxpeyq.jpg,00576941031fa_sunacvjlsylseoghjup.jpg,00730960620fa.jpg,sunaekgzpfilgjxpeyq.jpg,00576941031fa.jpg,sunacvjlsylseoghjup.jpg,,,>,Face,,,,,1,,,,,,,o
154,21,Presentation,3,00060931230fa_sunaaehaikpckyjsety.jpg,00859940307fa_sunaiycurtqsfkvcaso.jpg,00060931230fa.jpg,sunaaehaikpckyjsety.jpg,00859940307fa.jpg,sunaiycurtqsfkvcaso.jpg,,,>,Face,,,,,1,,,,,,,x
155,21,Presentation,3,00880960530fa_sunakmnfgklupjijsgf.jpg,00931960627fa_sunaptrqvaooxfvktvw.jpg,00880960530fa.jpg,sunakmnfgklupjijsgf.jpg,00931960627fa.jpg,sunaptrqvaooxfvktvw.jpg,,,>,Face,,,,,1,,,,,,,x
156,21,Presentation,3,00970960627fa_sunbasypfgzjtomktmu.jpg,00866940307fa_sunajbwkywmsqkldfml.jpg,00970960627fa.jpg,sunbasypfgzjtomktmu.jpg,00866940307fa.jpg,sunajbwkywmsqkldfml.jpg,,,>,Face,,,,,1,,,,,,,o
157,21,Presentation,3,00810941205fa_sunahctntqrunhdxhtb.jpg,00266940128fb_sunabkngeblodihjvbk.jpg,00810941205fa.jpg,sunahctntqrunhdxhtb.jpg,00266940128fb.jpg,sunabkngeblodihjvbk.jpg,,,>,Face,,,,,1,,,,,,,x
158,21,Presentation,3,00092931230fa_sunaaheqzstzxuadglu.jpg,00959960627fa_sunavxokzybtomhbmvm.jpg,00092931230fa.jpg,sunaaheqzstzxuadglu.jpg,00959960627fa.jpg,sunavxokzybtomhbmvm.jpg,,,>,Face,,,,,1,,,,,,,o
159,21,Presentation,3,00812941205fa_sunahgtbwgsmtqeodwh.jpg,00887960530_sunalcrtwiycqobgelp.jpg,00812941205fa.jpg,sunahgtbwgsmtqeodwh.jpg,00887960530.jpg,sunalcrtwiycqobgelp.jpg,,,>,Face,,,,,1,,,,,,,o
160,21,Memory,3,,,,,,,sunagpjzsbltchlwvou.jpg,,,,,,,,,,,,,,,
161,21,Memory,3,,,,,,,sunacxtcahkymosigud.jpg,,,,,,,,,,,,,,,
162,21,Memory,3,,,,,,,sunagsiwrmuixqgdimb.jpg,,,,,,,,,,,,,,,
163,21,Memory,3,,,,,,,00999960627fa.jpg,,,,,,,,,,,,,,,
164,21,Memory,3,,,,,,,00576941031fa.jpg,,,,,,,,,,,,,,,
165,21,Memory,3,,,,,,,sunahqrxievfeusiqlt.jpg,,,,,,,,,,,,,,,
166,21,Memory,3,,,,,,,00810941205fa.jpg,,,,,,,,,,,,,,,
167,21,Memory,3,,,,,,,sunaazzyhbvqjpmazjq.jpg,,,,,,,,,,,,,,,
168,21,Memory,3,,,,,,,sunaddtdkycxbqlpfqa.jpg,,,,,,,,,,,,,,,
169,21,Memory,3,,,,,,,00792941205fa.jpg,,,,,,,,,,,,,,,
170,21,Memory,3,,,,,,,sunaaheqzstzxuadglu.jpg,,,,,,,,,,,,,,,
171,21,Memory,3,,,,,,,00822940307fa.jpg,,,,,,,,,,,,,,,
172,21,Memory,3,,,,,,,sunaanjcbzdvtvblsdy.jpg,,,,,,,,,,,,,,,
173,21,Memory,3,,,,,,,sunabwmcbaxwioksdgw.jpg,,,,,,,,,,,,,,,
174,21,Memory,3,,,,,,,00790941205fa.jpg,,,,,,,,,,,,,,,
175,21,Memory,3,,,,,,,00800941205fb.jpg,,,,,,,,,,,,,,,
176,21,Memory,3,,,,,,,sunabxsbfwjccqxxzxq.jpg,,,,,,,,,,,,,,,
177,21,Memory,3,,,,,,,00880960530fa.jpg,,,,,,,,,,,,,,,
178,21,Memory,3,,,,,,,00132931230fb.jpg,,,,,,,,,,,,,,,
179,21,Memory,3,,,,,,,sunabllobxadqcyttej.jpg,,,,,,,,,,,,,,,
180,21,Memory,3,,,,,,,sunaguchqqnrtodtezq.jpg,,,,,,,,,,,,,,,
181,21,Memory,3,,,,,,,00796941205fa.jpg,,,,,,,,,,,,,,,
182,21,Memory,3,,,,,,,00598941031fa.jpg,,,,,,,,,,,,,,,
183,21,Memory,3,,,,,,,00479940519fa.jpg,,,,,,,,,,,,,,,
184,21,Memory,3,,,,,,,00636941031fa.jpg,,,,,,,,,,,,,,,
185,21,Memory,3,,,,,,,sunaisiwfgppimtnmxl.jpg,,,,,,,,,,,,,,,
186,21,Memory,3,,,,,,,sunajbwkywmsqkldfml.jpg,,,,,,,,,,,,,,,
187,21,Memory,3,,,,,,,00270940422fb.jpg,,,,,,,,,,,,,,,
188,21,Memory,3,,,,,,,sunakmnfgklupjijsgf.jpg,,,,,,,,,,,,,,,
189,21,Memory,3,,,,,,,00841940307fa.jpg,,,,,,,,,,,,,,,
190,21,Memory,3,,,,,,,sunbvbrvgbpanfrawft.jpg,,,,,,,,,,,,,,,
191,21,Memory,3,,,,,,,00208940128fa.jpg,,,,,,,,,,,,,,,
192,21,Memory,3,,,,,,,00314940422fa.jpg,,,,,,,,,,,,,,,
193,21,Memory,3,,,,,,,sunalcrtwiycqobgelp.jpg,,,,,,,,,,,,,,,
194,21,Memory,3,,,,,,,00887960530.jpg,,,,,,,,,,,,,,,
195,21,Memory,3,,,,,,,00866940307fa.jpg,,,,,,,,,,,,,,,
196,21,Memory,3,,,,,,,sunagvjurcwdbixvnyi.jpg,,,,,,,,,,,,,,,
197,21,Memory,3,,,,,,,00092931230fa.jpg,,,,,,,,,,,,,,,
198,21,Memory,3,,,,,,,sunahctntqrunhdxhtb.jpg,,,,,,,,,,,,,,,
199,21,Memory,3,,,,,,,sunacvjlsylseoghjup.jpg,,,,,,,,,,,,,,,
200,21,Presentation,4,00965960627fa_sunaydywdmvlfddbxbk.jpg,00153931230fa_sunaauhozyxzeeqstxi.jpg,00965960627fa.jpg,sunaydywdmvlfddbxbk.jpg,00153931230fa.jpg,sunaauhozyxzeeqstxi.jpg,,,<,Face,,,,,1,,,,,,,o
201,21,Presentation,4,00989960627fa_sunbondbduabvijnmch.jpg,00663941121fa_sunadnjjzohjhbohlwq.jpg,00989960627fa.jpg,sunbondbduabvijnmch.jpg,00663941121fa.jpg,sunadnjjzohjhbohlwq.jpg,,,<,Face,,,,,1,,,,,,,x
202,21,Presentation,4,00922960627fa_sunapqkyghktgtosuuk.jpg,00743941201fa_sunaeoghzrjarigmwua.jpg,00922960627fa.jpg,sunapqkyghktgtosuuk.jpg,00743941201fa.jpg,sunaeoghzrjarigmwua.jpg,,,<,Face,,,,,1,,,,,,,x
203,21,Presentation,4,00097931230fa_sunaajayojuslbbnneg.jpg,00952960627fa_sunathzzbcwjykldrem.jpg,00097931230fa.jpg,sunaajayojuslbbnneg.jpg,00952960627fa.jpg,sunathzzbcwjykldrem.jpg,,,<,Face,,,,,1,,,,,,,o
204,21,Presentation,4,00096931230fa_sunaaiqiqcggrskoqgy.jpg,00871940307_sunajrujcsdxmfbssmc.jpg,00096931230fa.jpg,sunaaiqiqcggrskoqgy.jpg,00871940307.jpg,sunajrujcsdxmfbssmc.jpg,,,<,Face,,,,,1,,,,,,,o
205,21,Presentation,4,00986960627fa_sunbgzjryivyczuvkvm.jpg,00700941121fa_sunadsgmtznewzyasnk.jpg,00986960627fa.jpg,sunbgzjryivyczuvkvm.jpg,00700941121fa.jpg,sunadsgmtznewzyasnk.jpg,,,<,Face,,,,,1,,,,,,,x
206,21,Presentation,4,00985960627fa_sunbgklxeqjhdbyfhhy.jpg,00933960627fa_sunapwjkcxdaeqehfql.jpg,00985960627fa.jpg,sunbgklxeqjhdbyfhhy.jpg,00933960627fa.jpg,sunapwjkcxdaeqehfql.jpg,,,<,Face,,,,,0,,,,,,,x
207,21,Presentation,4,00262940128fa_sunabizydfotqddlnjp.jpg,00911960530fa_sunaooaqzputrowwbsw.jpg,00262940128fa.jpg,sunabizydfotqddlnjp.jpg,00911960530fa.jpg,sunaooaqzputrowwbsw.jpg,,,<,Face,,,,,1,,,,,,,o
208,21,Presentation,4,00834940307fa_sunaibnpvhkdpdnzcnz.jpg,00194940128fb_sunaayehfdqcyxggsej.jpg,00834940307fa.jpg,sunaibnpvhkdpdnzcnz.jpg,00194940128fb.jpg,sunaayehfdqcyxggsej.jpg,,,<,Face,,,,,1,,,,,,,x
209,21,Presentation,4,00631940928fa_sunadbdqzigzwipuipr.jpg,00901960530fa_sunammbnoambmhdxdwd.jpg,00631940928fa.jpg,sunadbdqzigzwipuipr.jpg,00901960530fa.jpg,sunammbnoambmhdxdwd.jpg,,,<,Face,,,,,1,,,,,,,x
210,21,Memory,4,,,,,,,00942960627fa.jpg,,,,,,,,,,,,,,,
211,21,Memory,4,,,,,,,00828940307fa.jpg,,,,,,,,,,,,,,,
212,21,Memory,4,,,,,,,sunarfdklgdnjgeqfjg.jpg,,,,,,,,,,,,,,,
213,21,Memory,4,,,,,,,sunacypmnujalygkunp.jpg,,,,,,,,,,,,,,,
214,21,Memory,4,,,,,,,00901960530fa.jpg,,,,,,,,,,,,,,,
215,21,Memory,4,,,,,,,00153931230fa.jpg,,,,,,,,,,,,,,,
216,21,Memory,4,,,,,,,sunadoxcchtmsxewsau.jpg,,,,,,,,,,,,,,,
217,21,Memory,4,,,,,,,sunbwdrdvsweerwsdrj.jpg,,,,,,,,,,,,,,,
218,21,Memory,4,,,,,,,00949960627fb.jpg,,,,,,,,,,,,,,,
219,21,Memory,4,,,,,,,00242940128fa.jpg,,,,,,,,,,,,,,,
220,21,Memory,4,,,,,,,sunahuynahneraqftyz.jpg,,,,,,,,,,,,,,,
221,21,Memory,4,,,,,,,sunammbnoambmhdxdwd.jpg,,,,,,,,,,,,,,,
222,21,Memory,4,,,,,,,00620940928fa.jpg,,,,,,,,,,,,,,,
223,21,Memory,4,,,,,,,00848940307fa.jpg,,,,,,,,,,,,,,,
224,21,Memory,4,,,,,,,sunabcuurugvxwparpk.jpg,,,,,,,,,,,,,,,
225,21,Memory,4,,,,,,,00700941121fa.jpg,,,,,,,,,,,,,,,
226,21,Memory,4,,,,,,,sunadsgmtznewzyasnk.jpg,,,,,,,,,,,,,,,
227,21,Memory,4,,,,,,,sunagountlxpzkytsmp.jpg,,,,,,,,,,,,,,,
228,21,Memory,4,,,,,,,00097931230fa.jpg,,,,,,,,,,,,,,,
229,21,Memory,4,,,,,,,sunadnjjzohjhbohlwq.jpg,,,,,,,,,,,,,,,
230,21,Memory,4,,,,,,,00663941121fa.jpg,,,,,,,,,,,,,,,
231,21,Memory,4,,,,,,,00876960620fa.jpg,,,,,,,,,,,,,,,
232,21,Memory,4,,,,,,,00922960627fa.jpg,,,,,,,,,,,,,,,
233,21,Memory,4,,,,,,,sunbgklxeqjhdbyfhhy.jpg,,,,,,,,,,,,,,,
234,21,Memory,4,,,,,,,sunathzzbcwjykldrem.jpg,,,,,,,,,,,,,,,
235,21,Memory,4,,,,,,,00262940128fa.jpg,,,,,,,,,,,,,,,
236,21,Memory,4,,,,,,,00675941121fa.jpg,,,,,,,,,,,,,,,
237,21,Memory,4,,,,,,,sunaydywdmvlfddbxbk.jpg,,,,,,,,,,,,,,,
238,21,Memory,4,,,,,,,sunasnqkkyhilqkxiqm.jpg,,,,,,,,,,,,,,,
239,21,Memory,4,,,,,,,sunajwqkfsykceonyig.jpg,,,,,,,,,,,,,,,
240,21,Memory,4,,,,,,,sunabizydfotqddlnjp.jpg,,,,,,,,,,,,,,,
241,21,Memory,4,,,,,,,00788941205fa.jpg,,,,,,,,,,,,,,,
242,21,Memory,4,,,,,,,sunaivdylrawbmhryfp.jpg,,,,,,,,,,,,,,,
243,21,Memory,4,,,,,,,sunaajayojuslbbnneg.jpg,,,,,,,,,,,,,,,
244,21,Memory,4,,,,,,,00952960627fa.jpg,,,,,,,,,,,,,,,
245,21,Memory,4,,,,,,,00965960627fa.jpg,,,,,,,,,,,,,,,
246,21,Memory,4,,,,,,,01003960627fb.jpg,,,,,,,,,,,,,,,
247,21,Memory,4,,,,,,,sunapqkyghktgtosuuk.jpg,,,,,,,,,,,,,,,
248,21,Memory,4,,,,,,,00985960627fa.jpg,,,,,,,,,,,,,,,
249,21,Memory,4,,,,,,,sunaauhozyxzeeqstxi.jpg,,,,,,,,,,,,,,,
250,21,Presentation,5,00070940307fa_sunaaeplwsfslcbtojr.jpg,00316940422fa_sunabxmguapjekttvwm.jpg,00070940307fa.jpg,sunaaeplwsfslcbtojr.jpg,00316940422fa.jpg,sunabxmguapjekttvwm.jpg,,,<,Place,,,,,1,,,,,,,x
251,21,Presentation,5,00990960627fa_sunbpflsdaxnddnwcqi.jpg,00742941201fa_sunaenwuebvlpdmntju.jpg,00990960627fa.jpg,sunbpflsdaxnddnwcqi.jpg,00742941201fa.jpg,sunaenwuebvlpdmntju.jpg,,,<,Place,,,,,1,,,,,,,o
252,21,Presentation,5,00144931230fb_sunaathajvxrgptwhoj.jpg,00197940128fa_sunaaylzyqlqrsmfwif.jpg,00144931230fb.jpg,sunaathajvxrgptwhoj.jpg,00197940128fa.jpg,sunaaylzyqlqrsmfwif.jpg,,,<,Place,,,,,1,,,,,,,o
253,21,Presentation,5,00193940928fa_sunaaxjpzcnxligjtjq.jpg,00966960627fa_sunaygrtwrwfezqjizr.jpg,00193940928fa.jpg,sunaaxjpzcnxligjtjq.jpg,00966960627fa.jpg,sunaygrtwrwfezqjizr.jpg,,,<,Place,,,,,1,,,,,,,x
254,21,Presentation,5,01004960627fa_sunbwtlihsuptkrckid.jpg,00807941205fa_sunahawfngukizslzsd.jpg,01004960627fa.jpg,sunbwtlihsuptkrckid.jpg,00807941205fa.jpg,sunahawfngukizslzsd.jpg,,,<,Place,,,,,1,,,,,,,x
255,21,Presentation,5,00749941201fa_sunaeuvjbmdpknaqqaj.jpg,00126931230fb_sunaamdjwemxpmmtypi.jpg,00749941201fa.jpg,sunaeuvjbmdpknaqqaj.jpg,00126931230fb.jpg,sunaamdjwemxpmmtypi.jpg,,,<,Place,,,,,1,,,,,,,x
256,21,Presentation,5,00892960530fa_sunalntxqqadigcletd.jpg,00929960627fa_sunaprnrbmgkomdbchr.jpg,00892960530fa.jpg,sunalntxqqadigcletd.jpg,00929960627fa.jpg,sunaprnrbmgkomdbchr.jpg,,,<,Place,,,,,1,,,,,,,x
257,21,Presentation,5,00218940128fa_sunabbwggenhfbftyvi.jpg,00839940307fa_sunaipyohrqlwngaqif.jpg,00218940128fa.jpg,sunabbwggenhfbftyvi.jpg,00839940307fa.jpg,sunaipyohrqlwngaqif.jpg,,,<,Place,,,,,1,,,,,,,x
258,21,Presentation,5,00147931230fb_sunaatpkocdkocwxpkb.jpg,00124931230fa_sunaalhlvzmjmitybdn.jpg,00147931230fb.jpg,sunaatpkocdkocwxpkb.jpg,00124931230fa.jpg,sunaalhlvzmjmitybdn.jpg,,,<,Place,,,,,1,,,,,,,x
259,21,Presentation,5,00294940422fb_sunabrlndkruqokhury.jpg,00805941205fa_sunagwzdbtlixdhgolm.jpg,00294940422fb.jpg,sunabrlndkruqokhury.jpg,00805941205fa.jpg,sunagwzdbtlixdhgolm.jpg,,,<,Place,,,,,1,,,,,,,o
260,21,Memory,5,,,,,,,01004960627fa.jpg,,,,,,,,,,,,,,,
261,21,Memory,5,,,,,,,sunadkazmlajmohnwfl.jpg,,,,,,,,,,,,,,,
262,21,Memory,5,,,,,,,00780960530fa.jpg,,,,,,,,,,,,,,,
263,21,Memory,5,,,,,,,sunaipyohrqlwngaqif.jpg,,,,,,,,,,,,,,,
264,21,Memory,5,,,,,,,sunaeuvjbmdpknaqqaj.jpg,,,,,,,,,,,,,,,
265,21,Memory,5,,,,,,,sunaathajvxrgptwhoj.jpg,,,,,,,,,,,,,,,
266,21,Memory,5,,,,,,,00144931230fb.jpg,,,,,,,,,,,,,,,
267,21,Memory,5,,,,,,,sunahawfngukizslzsd.jpg,,,,,,,,,,,,,,,
268,21,Memory,5,,,,,,,sunagtjwilqjvxohypn.jpg,,,,,,,,,,,,,,,
269,21,Memory,5,,,,,,,sunaafvitpexrpvumsa.jpg,,,,,,,,,,,,,,,
270,21,Memory,5,,,,,,,00807941205fa.jpg,,,,,,,,,,,,,,,
271,21,Memory,5,,,,,,,sunabmytpyhsgigllxu.jpg,,,,,,,,,,,,,,,
272,21,Memory,5,,,,,,,sunbwtlihsuptkrckid.jpg,,,,,,,,,,,,,,,
273,21,Memory,5,,,,,,,00797960620fa.jpg,,,,,,,,,,,,,,,
274,21,Memory,5,,,,,,,00990960627fa.jpg,,,,,,,,,,,,,,,
275,21,Memory,5,,,,,,,00978960627fa.jpg,,,,,,,,,,,,,,,
276,21,Memory,5,,,,,,,sunaeouogqolxvggaoq.jpg,,,,,,,,,,,,,,,
277,21,Memory,5,,,,,,,00749941201fa.jpg,,,,,,,,,,,,,,,
278,21,Memory,5,,,,,,,00662941121fa.jpg,,,,,,,,,,,,,,,
279,21,Memory,5,,,,,,,sunagetqixeypsysbpn.jpg,,,,,,,,,,,,,,,
280,21,Memory,5,,,,,,,00609940928fa.jpg,,,,,,,,,,,,,,,
281,21,Memory,5,,,,,,,sunabbwggenhfbftyvi.jpg,,,,,,,,,,,,,,,
282,21,Memory,5,,,,,,,sunaalhlvzmjmitybdn.jpg,,,,,,,,,,,,,,,
283,21,Memory,5,,,,,,,sunaaylzyqlqrsmfwif.jpg,,,,,,,,,,,,,,,
284,21,Memory,5,,,,,,,00793941205fa.jpg,,,,,,,,,,,,,,,
285,21,Memory,5,,,,,,,00805941205fa.jpg,,,,,,,,,,,,,,,
286,21,Memory,5,,,,,,,00218940128fa.jpg,,,,,,,,,,,,,,,
287,21,Memory,5,,,,,,,00124931230fa.jpg,,,,,,,,,,,,,,,
288,21,Memory,5,,,,,,,sunagwzdbtlixdhgolm.jpg,,,,,,,,,,,,,,,
289,21,Memory,5,,,,,,,00197940128fa.jpg,,,,,,,,,,,,,,,
290,21,Memory,5,,,,,,,sunagufzbeteqdjxais.jpg,,,,,,,,,,,,,,,
291,21,Memory,5,,,,,,,sunbddbivbptlrlauhy.jpg,,,,,,,,,,,,,,,
292,21,Memory,5,,,,,,,00839940307fa.jpg,,,,,,,,,,,,,,,
293,21,Memory,5,,,,,,,sunbpflsdaxnddnwcqi.jpg,,,,,,,,,,,,,,,
294,21,Memory,5,,,,,,,00889960530fa.jpg,,,,,,,,,,,,,,,
295,21,Memory,5,,,,,,,00082931230fa.jpg,,,,,,,,,,,,,,,
296,21,Memory,5,,,,,,,00276940422fa.jpg,,,,,,,,,,,,,,,
297,21,Memory,5,,,,,,,sunaletopenvvozhpxc.jpg,,,,,,,,,,,,,,,
298,21,Memory,5,,,,,,,00745941205fa.jpg,,,,,,,,,,,,,,,
299,21,Memory,5,,,,,,,sunacycdoztxoluxjyk.jpg,,,,,,,,,,,,,,,
300,21,Presentation,6,00111931230fb_sunaakgekhjklxmvulj.jpg,00210940128fb_sunabanoxjtqxamkucc.jpg,00111931230fb.jpg,sunaakgekhjklxmvulj.jpg,00210940128fb.jpg,sunabanoxjtqxamkucc.jpg,,,<,Place,,,,,1,,,,,,,x
301,21,Presentation,6,00795941205fa_sunagtumacdlmciqamz.jpg,00562941031fa_sunacjnahdmqfnjfwqx.jpg,00795941205fa.jpg,sunagtumacdlmciqamz.jpg,00562941031fa.jpg,sunacjnahdmqfnjfwqx.jpg,,,<,Place,,,,,1,,,,,,,o
302,21,Presentation,6,00090931230fa_sunaahedjlmtqekgyvj.jpg,00719960620fa_sunadzuvtmtmgupotmf.jpg,00090931230fa.jpg,sunaahedjlmtqekgyvj.jpg,00719960620fa.jpg,sunadzuvtmtmgupotmf.jpg,,,<,Place,,,,,0,,,,,,,o
303,21,Presentation,6,00481940519fa_sunabxsuqbleluwczoy.jpg,00239940128fa_sunabctlikybqabezjv.jpg,00481940519fa.jpg,sunabxsuqbleluwczoy.jpg,00239940128fa.jpg,sunabctlikybqabezjv.jpg,,,<,Place,,,,,1,,,,,,,x
304,21,Presentation,6,00960960627fa_sunawksfbacycuhbrsc.jpg,00694941121fa_sunadrmfzmstgdjdcod.jpg,00960960627fa.jpg,sunawksfbacycuhbrsc.jpg,00694941121fa.jpg,sunadrmfzmstgdjdcod.jpg,,,<,Place,,,,,1,,,,,,,x
305,21,Presentation,6,00977960627fa_sunbbxkanhzjgbwyxqs.jpg,00982960627fa_sunbesrwkdsffeogeqq.jpg,00977960627fa.jpg,sunbbxkanhzjgbwyxqs.jpg,00982960627fa.jpg,sunbesrwkdsffeogeqq.jpg,,,<,Place,,,,,1,,,,,,,x
306,21,Presentation,6,00773960620fa_sunafvsxtzaizojicxx.jpg,00926960627Fa_sunapqwoeotxshkukbh.jpg,00773960620fa.jpg,sunafvsxtzaizojicxx.jpg,00926960627Fa.jpg,sunapqwoeotxshkukbh.jpg,,,<,Place,,,,,0,,,,,,,x
307,21,Presentation,6,00548940519fa_sunacerqowiaeoqkmsq.jpg,00116931230fa_sunaakqepfoeqomfgxf.jpg,00548940519fa.jpg,sunacerqowiaeoqkmsq.jpg,00116931230fa.jpg,sunaakqepfoeqomfgxf.jpg,,,<,Place,,,,,1,,,,,,,x
308,21,Presentation,6,00771941205fa_sunafowswglhxcsufpo.jpg,00868960307fa_sunajjxttslobudoqbv.jpg,00771941205fa.jpg,sunafowswglhxcsufpo.jpg,00868960307fa.jpg,sunajjxttslobudoqbv.jpg,,,<,Place,,,,,1,,,,,,,o
309,21,Presentation,6,00815941205fa_sunahiphsekjihkafsl.jpg,00158931230fb_sunaavchcbptaerhcfy.jpg,00815941205fa.jpg,sunahiphsekjihkafsl.jpg,00158931230fb.jpg,sunaavchcbptaerhcfy.jpg,,,<,Place,,,,,0,,,,,,,x
310,21,Memory,6,,,,,,,sunabctlikybqabezjv.jpg,,,,,,,,,,,,,,,
311,21,Memory,6,,,,,,,00158931230fb.jpg,,,,,,,,,,,,,,,
312,21,Memory,6,,,,,,,sunacerqowiaeoqkmsq.jpg,,,,,,,,,,,,,,,
313,21,Memory,6,,,,,,,sunaaeowapdkwzqpgqr.jpg,,,,,,,,,,,,,,,
314,21,Memory,6,,,,,,,sunaqsolmfydodnakub.jpg,,,,,,,,,,,,,,,
315,21,Memory,6,,,,,,,sunahiphsekjihkafsl.jpg,,,,,,,,,,,,,,,
316,21,Memory,6,,,,,,,00116931230fa.jpg,,,,,,,,,,,,,,,
317,21,Memory,6,,,,,,,sunbesrwkdsffeogeqq.jpg,,,,,,,,,,,,,,,
318,21,Memory,6,,,,,,,sunawksfbacycuhbrsc.jpg,,,,,,,,,,,,,,,
319,21,Memory,6,,,,,,,sunaajqmsaavkmgbsth.jpg,,,,,,,,,,,,,,,
320,21,Memory,6,,,,,,,00937960627fa.jpg,,,,,,,,,,,,,,,
321,21,Memory,6,,,,,,,sunaakvmbftkrgqhjun.jpg,,,,,,,,,,,,,,,
322,21,Memory,6,,,,,,,00548940519fa.jpg,,,,,,,,,,,,,,,
323,21,Memory,6,,,,,,,sunasmmcxdddtmtazwx.jpg,,,,,,,,,,,,,,,
324,21,Memory,6,,,,,,,00955960627fb.jpg,,,,,,,,,,,,,,,
325,21,Memory,6,,,,,,,00771941205fa.jpg,,,,,,,,,,,,,,,
326,21,Memory,6,,,,,,,sunafvtpfczkzopbgue.jpg,,,,,,,,,,,,,,,
327,21,Memory,6,,,,,,,sunaahwnmtqsrhocysw.jpg,,,,,,,,,,,,,,,
328,21,Memory,6,,,,,,,sunaakqepfoeqomfgxf.jpg,,,,,,,,,,,,,,,
329,21,Memory,6,,,,,,,00947960627fa.jpg,,,,,,,,,,,,,,,
330,21,Memory,6,,,,,,,00925960627fa.jpg,,,,,,,,,,,,,,,
331,21,Memory,6,,,,,,,sunadrmfzmstgdjdcod.jpg,,,,,,,,,,,,,,,
332,21,Memory,6,,,,,,,sunaavchcbptaerhcfy.jpg,,,,,,,,,,,,,,,
333,21,Memory,6,,,,,,,00960960627fa.jpg,,,,,,,,,,,,,,,
334,21,Memory,6,,,,,,,00069931230fb.jpg,,,,,,,,,,,,,,,
335,21,Memory,6,,,,,,,sunafvsxtzaizojicxx.jpg,,,,,,,,,,,,,,,
336,21,Memory,6,,,,,,,sunauburywlkjszngcq.jpg,,,,,,,,,,,,,,,
337,21,Memory,6,,,,,,,00119931230fb.jpg,,,,,,,,,,,,,,,
338,21,Memory,6,,,,,,,00815941205fa.jpg,,,,,,,,,,,,,,,
339,21,Memory,6,,,,,,,00694941121fa.jpg,,,,,,,,,,,,,,,
340,21,Memory,6,,,,,,,00239940128fa.jpg,,,,,,,,,,,,,,,
341,21,Memory,6,,,,,,,sunapqwnqzxlsfvgsjm.jpg,,,,,,,,,,,,,,,
342,21,Memory,6,,,,,,,00302940422fa.jpg,,,,,,,,,,,,,,,
343,21,Memory,6,,,,,,,00773960620fa.jpg,,,,,,,,,,,,,,,
344,21,Memory,6,,,,,,,00093931230fa.jpg,,,,,,,,,,,,,,,
345,21,Memory,6,,,,,,,00982960627fa.jpg,,,,,,,,,,,,,,,
346,21,Memory,6,,,,,,,00101931230fb.jpg,,,,,,,,,,,,,,,
347,21,Memory,6,,,,,,,00774941201fa.jpg,,,,,,,,,,,,,,,
348,21,Memory,6,,,,,,,sunabtlfmiwtljmoues.jpg,,,,,,,,,,,,,,,
349,21,Memory,6,,,,,,,sunafowswglhxcsufpo.jpg,,,,,,,,,,,,,,,
350,21,Presentation,7,00705960530fa_sunaduslxfzlbxlllnz.jpg,00130931230fa_sunaamvxnvouicstkjb.jpg,00705960530fa.jpg,sunaduslxfzlbxlllnz.jpg,00130931230fa.jpg,sunaamvxnvouicstkjb.jpg,,,>,Place,,,,,1,,,,,,,x
351,21,Presentation,7,00112931230fa_sunaakjaacuzulqckgl.jpg,00939960627fa_sunarceibpcyacbmfga.jpg,00112931230fa.jpg,sunaakjaacuzulqckgl.jpg,00939960627fa.jpg,sunarceibpcyacbmfga.jpg,,,>,Place,,,,,0,,,,,,,o
352,21,Presentation,7,00857940307fa_sunaiwfobocrruqznsv.jpg,00292940422fb_sunabrjdpmoedcdjbpo.jpg,00857940307fa.jpg,sunaiwfobocrruqznsv.jpg,00292940422fb.jpg,sunabrjdpmoedcdjbpo.jpg,,,>,Place,,,,,1,,,,,,,o
353,21,Presentation,7,00751960620fa_sunaezuszgtxnmsxdbk.jpg,00877960530fa_sunajxpkuhbizeveguy.jpg,00751960620fa.jpg,sunaezuszgtxnmsxdbk.jpg,00877960530fa.jpg,sunajxpkuhbizeveguy.jpg,,,>,Place,,,,,1,,,,,,,x
354,21,Presentation,7,00681941121fa_sunadqmjrhfjyuzyvdd.jpg,00919960620fa_sunapmfmzadmosuogaz.jpg,00681941121fa.jpg,sunadqmjrhfjyuzyvdd.jpg,00919960620fa.jpg,sunapmfmzadmosuogaz.jpg,,,>,Place,,,,,1,,,,,,,o
355,21,Presentation,7,00163931230fb_sunaavodbcpygkggnfp.jpg,00938960627fa_sunaqyylsngywqzwfmx.jpg,00163931230fb.jpg,sunaavodbcpygkggnfp.jpg,00938960627fa.jpg,sunaqyylsngywqzwfmx.jpg,,,>,Place,,,,,0,,,,,,,x
356,21,Presentation,7,00554940519fa_sunacfdkbsrughwqwtt.jpg,01000960627fa_sunbvzmgrdvaakxusbu.jpg,00554940519fa.jpg,sunacfdkbsrughwqwtt.jpg,01000960627fa.jpg,sunbvzmgrdvaakxusbu.jpg,,,>,Place,,,,,1,,,,,,,x
357,21,Presentation,7,00753941201fa_sunafcofuuzebuadceo.jpg,00996960627fa_sunbpvgllfdejxcpjqp.jpg,00753941201fa.jpg,sunafcofuuzebuadceo.jpg,00996960627fa.jpg,sunbpvgllfdejxcpjqp.jpg,,,>,Place,,,,,1,,,,,,,o
358,21,Presentation,7,00884960530fa_sunakodkcslgqhqlgwl.jpg,00086931230fa_sunaafynehyrzpsoaml.jpg,00884960530fa.jpg,sunakodkcslgqhqlgwl.jpg,00086931230fa.jpg,sunaafynehyrzpsoaml.jpg,,,>,Place,,,,,1,,,,,,,x
359,21,Presentation,7,00900960530fa_sunamlotskmmsjeogby.jpg,00705941205fa_sunadtlxenqqxsyjvix.jpg,00900960530fa.jpg,sunamlotskmmsjeogby.jpg,00705941205fa.jpg,sunadtlxenqqxsyjvix.jpg,,,>,Place,,,,,1,,,,,,,o
360,21,Memory,7,,,,,,,00112931230fa.jpg,,,,,,,,,,,,,,,
361,21,Memory,7,,,,,,,sunaafynehyrzpsoaml.jpg,,,,,,,,,,,,,,,
362,21,Memory,7,,,,,,,sunadtlxenqqxsyjvix.jpg,,,,,,,,,,,,,,,
363,21,Memory,7,,,,,,,sunaddsaeicthrfbkhe.jpg,,,,,,,,,,,,,,,
364,21,Memory,7,,,,,,,00884960530fa.jpg,,,,,,,,,,,,,,,
365,21,Memory,7,,,,,,,00080931230fb.jpg,,,,,,,,,,,,,,,
366,21,Memory,7,,,,,,,sunagvxkjokqimstxpe.jpg,,,,,,,,,,,,,,,
367,21,Memory,7,,,,,,,00803941205fa.jpg,,,,,,,,,,,,,,,
368,21,Memory,7,,,,,,,00782941205fa.jpg,,,,,,,,,,,,,,,
369,21,Memory,7,,,,,,,sunamlotskmmsjeogby.jpg,,,,,,,,,,,,,,,
370,21,Memory,7,,,,,,,sunaafjszryxyavjzln.jpg,,,,,,,,,,,,,,,
371,21,Memory,7,,,,,,,00862940307fa.jpg,,,,,,,,,,,,,,,
372,21,Memory,7,,,,,,,00086931230fa.jpg,,,,,,,,,,,,,,,
373,21,Memory,7,,,,,,,00163931230fb.jpg,,,,,,,,,,,,,,,
374,21,Memory,7,,,,,,,00635941031fa.jpg,,,,,,,,,,,,,,,
375,21,Memory,7,,,,,,,sunagfvluwixdsozaql.jpg,,,,,,,,,,,,,,,
376,21,Memory,7,,,,,,,00900960530fa.jpg,,,,,,,,,,,,,,,
377,21,Memory,7,,,,,,,00766960620fa.jpg,,,,,,,,,,,,,,,
378,21,Memory,7,,,,,,,sunaezuszgtxnmsxdbk.jpg,,,,,,,,,,,,,,,
379,21,Memory,7,,,,,,,00741941201fa.jpg,,,,,,,,,,,,,,,
380,21,Memory,7,,,,,,,00705941205fa.jpg,,,,,,,,,,,,,,,
381,21,Memory,7,,,,,,,sunakodkcslgqhqlgwl.jpg,,,,,,,,,,,,,,,
382,21,Memory,7,,,,,,,00719941201fa.jpg,,,,,,,,,,,,,,,
383,21,Memory,7,,,,,,,sunaizgnnplsvajzhkc.jpg,,,,,,,,,,,,,,,
384,21,Memory,7,,,,,,,sunafijbgncijwykrnl.jpg,,,,,,,,,,,,,,,
385,21,Memory,7,,,,,,,00061931230fb.jpg,,,,,,,,,,,,,,,
386,21,Memory,7,,,,,,,00939960627fa.jpg,,,,,,,,,,,,,,,
387,21,Memory,7,,,,,,,sunadvithllcgmfxsrn.jpg,,,,,,,,,,,,,,,
388,21,Memory,7,,,,,,,sunaakjaacuzulqckgl.jpg,,,,,,,,,,,,,,,
389,21,Memory,7,,,,,,,sunaemcowdozyphwknd.jpg,,,,,,,,,,,,,,,
390,21,Memory,7,,,,,,,00770941201fa.jpg,,,,,,,,,,,,,,,
391,21,Memory,7,,,,,,,sunarceibpcyacbmfga.jpg,,,,,,,,,,,,,,,
392,21,Memory,7,,,,,,,sunaaekxzjzrfgtkwjf.jpg,,,,,,,,,,,,,,,
393,21,Memory,7,,,,,,,sunajxpkuhbizeveguy.jpg,,,,,,,,,,,,,,,
394,21,Memory,7,,,,,,,sunapmfmzadmosuogaz.jpg,,,,,,,,,,,,,,,
395,21,Memory,7,,,,,,,00877960530fa.jpg,,,,,,,,,,,,,,,
396,21,Memory,7,,,,,,,sunaflojskatpeqyzqp.jpg,,,,,,,,,,,,,,,
397,21,Memory,7,,,,,,,00919960620fa.jpg,,,,,,,,,,,,,,,
398,21,Memory,7,,,,,,,00751960620fa.jpg,,,,,,,,,,,,,,,
399,21,Memory,7,,,,,,,sunaavodbcpygkggnfp.jpg,,,,,,,,,,,,,,,
