,Subject,Trial Type,Run,Cued Composite,Uncued Composite,Cued Face,Cued Place,Uncued Face,Uncued Place,Memory Image,Category,Cued Side,Cued Category,Attention Reaction Time (s),Familiarity Reaction Time (s),Familiarity Rating,Attention Level,Cue Validity,Post Invalid Cue,Pre Invalid Cue,Attention Button,Rating History,Stimulus Onset,Stimulus End,Attention Probe
160,21,Memory,3,,,,,,,sunagpjzsbltchlwvou.jpg,,,,,1.17,1.0,,,,,,,1539537943.377199,1539537945.844366,
161,21,Memory,3,,,,,,,sunacxtcahkymosigud.jpg,,,,,1.551,4.0,,,,,,,1539537947.378479,1539537949.679436,
162,21,Memory,3,,,,,,,sunagsiwrmuixqgdimb.jpg,,,,,1.471,3.0,,,,,,,1539537951.078892,1539537953.464434,
163,21,Memory,3,,,,,,,00999960627fa.jpg,,,,,0.969,3.0,,,,,,,1539537954.881325,1539537957.281755,
164,21,Memory,3,,,,,,,00576941031fa.jpg,,,,,0.904,3.0,,,,,,,1539537958.699099,1539537961.032773,
165,21,Memory,3,,,,,,,sunahqrxievfeusiqlt.jpg,,,,,1.069,2.0,,,,,,,1539537962.384323,1539537964.884317,
166,21,Memory,3,,,,,,,00810941205fa.jpg,,,,,1.087,4.0,,,,,,,1539537966.484476,1539537968.884785,
167,21,Memory,3,,,,,,,sunaazzyhbvqjpmazjq.jpg,,,,,0.938,2.0,,,,,,,1539537970.335657,1539537972.803422,
168,21,Memory,3,,,,,,,sunaddtdkycxbqlpfqa.jpg,,,,,1.554,4.0,,,,,,,1539537974.220599,1539537976.654986,
169,21,Memory,3,,,,,,,00792941205fa.jpg,,,,,1.853,2.0,,,,,,,1539537978.137978,1539537980.605302,
170,21,Memory,3,,,,,,,sunaaheqzstzxuadglu.jpg,,,,,1.869,2.0,,,,,,,1539537981.955956,1539537984.439524,
171,21,Memory,3,,,,,,,00822940307fa.jpg,,,,,0.887,3.0,,,,,,,1539537985.75696,1539537988.30857,
172,21,Memory,3,,,,,,,sunaanjcbzdvtvblsdy.jpg,,,,,2.072,1.0,,,,,,,1539537989.875398,1539537992.293727,
173,21,Memory,3,,,,,,,sunabwmcbaxwioksdgw.jpg,,,,,1.605,3.0,,,,,,,1539537993.693432,1539537996.360589,
174,21,Memory,3,,,,,,,00790941205fa.jpg,,,,,0.867,3.0,,,,,,,1539537997.878614,1539538000.34447,
175,21,Memory,3,,,,,,,00800941205fb.jpg,,,,,1.387,4.0,,,,,,,1539538001.796839,1539538004.163367,
176,21,Memory,3,,,,,,,sunabxsbfwjccqxxzxq.jpg,,,,,1.322,1.0,,,,,,,1539538005.730565,1539538008.098607,
177,21,Memory,3,,,,,,,00880960530fa.jpg,,,,,0.771,3.0,,,,,,,1539538009.515314,1539538011.999915,
178,21,Memory,3,,,,,,,00132931230fb.jpg,,,,,0.854,3.0,,,,,,,1539538013.400518,1539538015.883608,
179,21,Memory,3,,,,,,,sunabllobxadqcyttej.jpg,,,,,1.57,2.0,,,,,,,1539538017.334447,1539538019.818008,
180,21,Memory,3,,,,,,,sunaguchqqnrtodtezq.jpg,,,,,1.304,2.0,,,,,,,1539538021.235556,1539538023.670815,
181,21,Memory,3,,,,,,,00796941205fa.jpg,,,,,0.003,2.0,,,,,,,1539538025.203983,1539538027.655239,
182,21,Memory,3,,,,,,,00598941031fa.jpg,,,,,0.969,2.0,,,,,,,1539538029.171934,1539538031.707049,
183,21,Memory,3,,,,,,,00479940519fa.jpg,,,,,1.035,4.0,,,,,,,1539538033.372542,1539538035.739889,
184,21,Memory,3,,,,,,,00636941031fa.jpg,,,,,1.005,3.0,,,,,,,1539538037.174853,1539538039.659479,
185,21,Memory,3,,,,,,,sunaisiwfgppimtnmxl.jpg,,,,,1.187,2.0,,,,,,,1539538041.208969,1539538043.626537,
186,21,Memory,3,,,,,,,sunajbwkywmsqkldfml.jpg,,,,,1.404,2.0,,,,,,,1539538045.093974,1539538047.526977,
187,21,Memory,3,,,,,,,00270940422fb.jpg,,,,,0.669,3.0,,,,,,,1539538048.978512,1539538051.294174,
188,21,Memory,3,,,,,,,sunakmnfgklupjijsgf.jpg,,,,,1.12,2.0,,,,,,,1539538052.712638,1539538055.01309,
189,21,Memory,3,,,,,,,00841940307fa.jpg,,,,,1.086,2.0,,,,,,,1539538056.52982,1539538058.84795,
190,21,Memory,3,,,,,,,sunbvbrvgbpanfrawft.jpg,,,,,1.871,2.0,,,,,,,1539538060.430477,1539538062.816269,
191,21,Memory,3,,,,,,,00208940128fa.jpg,,,,,1.402,3.0,,,,,,,1539538064.532897,1539538067.01792,
192,21,Memory,3,,,,,,,00314940422fa.jpg,,,,,1.069,3.0,,,,,,,1539538068.384696,1539538070.90018,
193,21,Memory,3,,,,,,,sunalcrtwiycqobgelp.jpg,,,,,0.0,,,,,,,,1539538072.386041,1539538074.769117,
194,21,Memory,3,,,,,,,00887960530.jpg,,,,,1.837,3.0,,,,,,,1539538076.170043,1539538078.504036,
195,21,Memory,3,,,,,,,00866940307fa.jpg,,,,,0.0,,,,,,,,1539538079.887526,1539538082.271139,
196,21,Memory,3,,,,,,,sunagvjurcwdbixvnyi.jpg,,,,,1.418,3.0,,,,,,,1539538083.70576,1539538086.071975,
197,21,Memory,3,,,,,,,00092931230fa.jpg,,,,,0.0,,,,,,,,1539538087.690806,1539538090.123891,
198,21,Memory,3,,,,,,,sunahctntqrunhdxhtb.jpg,,,,,0.817,2.0,,,,,,,1539538091.607911,1539538093.908114,
199,21,Memory,3,,,,,,,sunacvjlsylseoghjup.jpg,,,,,1.27,2.0,,,,,,,1539538095.408425,1539538097.693564,
