,Subject,Trial Type,Run,Cued Composite,Uncued Composite,Cued Face,Cued Place,Uncued Face,Uncued Place,Memory Image,Category,Cued Side,Cued Category,Attention Reaction Time (s),Familiarity Reaction Time (s),Familiarity Rating,Attention Level,Cue Validity,Post Invalid Cue,Pre Invalid Cue,Attention Button,Rating History,Stimulus Onset,Stimulus End,Attention Probe
0,tryAgain,Presentation,0,00193940928fa_sunaaxjpzcnxligjtjq.jpg,00483940519fa_sunabyvpwkgsjtijdwj.jpg,00193940928fa.jpg,sunaaxjpzcnxligjtjq.jpg,00483940519fa.jpg,sunabyvpwkgsjtijdwj.jpg,,,<,Face,,,,,1,,,,,,,o
1,tryAgain,Presentation,0,00792941205fa_sunagsiwrmuixqgdimb.jpg,01207940128fa_sundbixjudsgeuuehrn.jpg,00792941205fa.jpg,sunagsiwrmuixqgdimb.jpg,01207940128fa.jpg,sundbixjudsgeuuehrn.jpg,,,<,Face,,,,,1,,,,,,,x
2,tryAgain,Presentation,0,00959960627fa_sunavxokzybtomhbmvm.jpg,00725941201fa_sunaefgzwiramypjvtd.jpg,00959960627fa.jpg,sunavxokzybtomhbmvm.jpg,00725941201fa.jpg,sunaefgzwiramypjvtd.jpg,,,<,Face,,,,,1,,,,,,,x
3,tryAgain,Presentation,0,00305940422fa_sunabtrnbvpppgczjim.jpg,00874940307fa_sunajtrfunvzdfticna.jpg,00305940422fa.jpg,sunabtrnbvpppgczjim.jpg,00874940307fa.jpg,sunajtrfunvzdfticna.jpg,,,<,Face,,,,,1,,,,,,,x
4,tryAgain,Presentation,0,00562941031fa_sunacjnahdmqfnjfwqx.jpg,00208940128fa_sunaazzyhbvqjpmazjq.jpg,00562941031fa.jpg,sunacjnahdmqfnjfwqx.jpg,00208940128fa.jpg,sunaazzyhbvqjpmazjq.jpg,,,<,Face,,,,,1,,,,,,,x
5,tryAgain,Presentation,0,00841940307fa_sunaisiwfgppimtnmxl.jpg,00576941031fa_sunacvjlsylseoghjup.jpg,00841940307fa.jpg,sunaisiwfgppimtnmxl.jpg,00576941031fa.jpg,sunacvjlsylseoghjup.jpg,,,<,Face,,,,,1,,,,,,,o
6,tryAgain,Presentation,0,00828940307fa_sunahuynahneraqftyz.jpg,00719941201fa_sunadvithllcgmfxsrn.jpg,00828940307fa.jpg,sunahuynahneraqftyz.jpg,00719941201fa.jpg,sunadvithllcgmfxsrn.jpg,,,<,Face,,,,,1,,,,,,,x
7,tryAgain,Presentation,0,00082931230fa_sunaafvitpexrpvumsa.jpg,00949960627fb_sunasnqkkyhilqkxiqm.jpg,00082931230fa.jpg,sunaafvitpexrpvumsa.jpg,00949960627fb.jpg,sunasnqkkyhilqkxiqm.jpg,,,<,Face,,,,,1,,,,,,,x
8,tryAgain,Presentation,0,00834940307fa_sunaibnpvhkdpdnzcnz.jpg,00929960627fa_sunaprnrbmgkomdbchr.jpg,00834940307fa.jpg,sunaibnpvhkdpdnzcnz.jpg,00929960627fa.jpg,sunaprnrbmgkomdbchr.jpg,,,<,Face,,,,,1,,,,,,,x
9,tryAgain,Presentation,0,00943960627fa_sunarpsxqkduedrrzyi.jpg,00961960627fa_sunawotxrevnqvamsfp.jpg,00943960627fa.jpg,sunarpsxqkduedrrzyi.jpg,00961960627fa.jpg,sunawotxrevnqvamsfp.jpg,,,<,Face,,,,,1,,,,,,,o
10,tryAgain,Memory,0,,,,,,,00129931230fb.jpg,,,,,,,,,,,,,,,
11,tryAgain,Memory,0,,,,,,,00827940307fa.jpg,,,,,,,,,,,,,,,
12,tryAgain,Memory,0,,,,,,,sunaisiwfgppimtnmxl.jpg,,,,,,,,,,,,,,,
13,tryAgain,Memory,0,,,,,,,sunahtfxgsrmkiulnwk.jpg,,,,,,,,,,,,,,,
14,tryAgain,Memory,0,,,,,,,00835940307fa.jpg,,,,,,,,,,,,,,,
15,tryAgain,Memory,0,,,,,,,sunadvithllcgmfxsrn.jpg,,,,,,,,,,,,,,,
16,tryAgain,Memory,0,,,,,,,sunaamsdyakblkfoydx.jpg,,,,,,,,,,,,,,,
17,tryAgain,Memory,0,,,,,,,sunarpsxqkduedrrzyi.jpg,,,,,,,,,,,,,,,
18,tryAgain,Memory,0,,,,,,,00959960627fa.jpg,,,,,,,,,,,,,,,
19,tryAgain,Memory,0,,,,,,,00270940422fb.jpg,,,,,,,,,,,,,,,
20,tryAgain,Memory,0,,,,,,,00874940307fa.jpg,,,,,,,,,,,,,,,
21,tryAgain,Memory,0,,,,,,,sunaletopenvvozhpxc.jpg,,,,,,,,,,,,,,,
22,tryAgain,Memory,0,,,,,,,sunasnqkkyhilqkxiqm.jpg,,,,,,,,,,,,,,,
23,tryAgain,Memory,0,,,,,,,sunahuynahneraqftyz.jpg,,,,,,,,,,,,,,,
24,tryAgain,Memory,0,,,,,,,00929960627fa.jpg,,,,,,,,,,,,,,,
25,tryAgain,Memory,0,,,,,,,sunaprnrbmgkomdbchr.jpg,,,,,,,,,,,,,,,
26,tryAgain,Memory,0,,,,,,,00943960627fa.jpg,,,,,,,,,,,,,,,
27,tryAgain,Memory,0,,,,,,,00081941031fa.jpg,,,,,,,,,,,,,,,
28,tryAgain,Memory,0,,,,,,,sunafgzgbisbopcyslr.jpg,,,,,,,,,,,,,,,
29,tryAgain,Memory,0,,,,,,,sunaijsqpvodplbwxkf.jpg,,,,,,,,,,,,,,,
30,tryAgain,Memory,0,,,,,,,00828940307fa.jpg,,,,,,,,,,,,,,,
31,tryAgain,Memory,0,,,,,,,sunajtrfunvzdfticna.jpg,,,,,,,,,,,,,,,
32,tryAgain,Memory,0,,,,,,,00790941205fa.jpg,,,,,,,,,,,,,,,
33,tryAgain,Memory,0,,,,,,,sunaiycurtqsfkvcaso.jpg,,,,,,,,,,,,,,,
34,tryAgain,Memory,0,,,,,,,00719941201fa.jpg,,,,,,,,,,,,,,,
35,tryAgain,Memory,0,,,,,,,00841940307fa.jpg,,,,,,,,,,,,,,,
36,tryAgain,Memory,0,,,,,,,sunacvjlsylseoghjup.jpg,,,,,,,,,,,,,,,
37,tryAgain,Memory,0,,,,,,,sunagpjzsbltchlwvou.jpg,,,,,,,,,,,,,,,
38,tryAgain,Memory,0,,,,,,,00576941031fa.jpg,,,,,,,,,,,,,,,
39,tryAgain,Memory,0,,,,,,,00638941031fa.jpg,,,,,,,,,,,,,,,
40,tryAgain,Memory,0,,,,,,,00889960530fa.jpg,,,,,,,,,,,,,,,
41,tryAgain,Memory,0,,,,,,,sunaaftlyfudyzuhqzf.jpg,,,,,,,,,,,,,,,
42,tryAgain,Memory,0,,,,,,,00562941031fa.jpg,,,,,,,,,,,,,,,
43,tryAgain,Memory,0,,,,,,,sunavxokzybtomhbmvm.jpg,,,,,,,,,,,,,,,
44,tryAgain,Memory,0,,,,,,,00762941201fa.jpg,,,,,,,,,,,,,,,
45,tryAgain,Memory,0,,,,,,,00859940307fa.jpg,,,,,,,,,,,,,,,
46,tryAgain,Memory,0,,,,,,,00949960627fb.jpg,,,,,,,,,,,,,,,
47,tryAgain,Memory,0,,,,,,,sunabllobxadqcyttej.jpg,,,,,,,,,,,,,,,
48,tryAgain,Memory,0,,,,,,,sunacjnahdmqfnjfwqx.jpg,,,,,,,,,,,,,,,
49,tryAgain,Memory,0,,,,,,,sunadfktsqjthoglcsm.jpg,,,,,,,,,,,,,,,
50,tryAgain,Presentation,1,00979960627fa_sunbdycacjfaujxitbw.jpg,00631940928fa_sunadbdqzigzwipuipr.jpg,00979960627fa.jpg,sunbdycacjfaujxitbw.jpg,00631940928fa.jpg,sunadbdqzigzwipuipr.jpg,,,<,Place,,,,,1,,,,,,,o
51,tryAgain,Presentation,1,00540940519fa_sunacdnquypmsshhsbk.jpg,00086931230fa_sunaafynehyrzpsoaml.jpg,00540940519fa.jpg,sunacdnquypmsshhsbk.jpg,00086931230fa.jpg,sunaafynehyrzpsoaml.jpg,,,<,Place,,,,,1,,,,,,,o
52,tryAgain,Presentation,1,00498960627fa_sunabzjxlmkwnwzimua.jpg,00761960627fa_sunafgdqbclkwfocdhg.jpg,00498960627fa.jpg,sunabzjxlmkwnwzimua.jpg,00761960627fa.jpg,sunafgdqbclkwfocdhg.jpg,,,<,Place,,,,,1,,,,,,,o
53,tryAgain,Presentation,1,00770941201fa_sunaflojskatpeqyzqp.jpg,00905960530fa_sunanmoqeyprjjjfxjt.jpg,00770941201fa.jpg,sunaflojskatpeqyzqp.jpg,00905960530fa.jpg,sunanmoqeyprjjjfxjt.jpg,,,<,Place,,,,,1,,,,,,,x
54,tryAgain,Presentation,1,00797960620fa_sunagufzbeteqdjxais.jpg,00185940422fb_sunaawqdbpihmlbwyyn.jpg,00797960620fa.jpg,sunagufzbeteqdjxais.jpg,00185940422fb.jpg,sunaawqdbpihmlbwyyn.jpg,,,<,Place,,,,,1,,,,,,,o
55,tryAgain,Presentation,1,00158931230fb_sunaavchcbptaerhcfy.jpg,00851940307fa_sunaivflshbyfrfzhqb.jpg,00158931230fb.jpg,sunaavchcbptaerhcfy.jpg,00851940307fa.jpg,sunaivflshbyfrfzhqb.jpg,,,<,Place,,,,,1,,,,,,,o
56,tryAgain,Presentation,1,00880960530fa_sunakmnfgklupjijsgf.jpg,00093931230fa_sunaahwnmtqsrhocysw.jpg,00880960530fa.jpg,sunakmnfgklupjijsgf.jpg,00093931230fa.jpg,sunaahwnmtqsrhocysw.jpg,,,<,Place,,,,,1,,,,,,,x
57,tryAgain,Presentation,1,00987960627fa_sunbloeoiozwjjsiamp.jpg,00746941201fa_sunaetydippjxikifsb.jpg,00987960627fa.jpg,sunbloeoiozwjjsiamp.jpg,00746941201fa.jpg,sunaetydippjxikifsb.jpg,,,<,Place,,,,,1,,,,,,,x
58,tryAgain,Presentation,1,00931960627fa_sunaptrqvaooxfvktvw.jpg,00210940128fb_sunabanoxjtqxamkucc.jpg,00931960627fa.jpg,sunaptrqvaooxfvktvw.jpg,00210940128fb.jpg,sunabanoxjtqxamkucc.jpg,,,<,Place,,,,,1,,,,,,,o
59,tryAgain,Presentation,1,00862940307fa_sunaizgnnplsvajzhkc.jpg,00815941205fa_sunahiphsekjihkafsl.jpg,00862940307fa.jpg,sunaizgnnplsvajzhkc.jpg,00815941205fa.jpg,sunahiphsekjihkafsl.jpg,,,<,Place,,,,,1,,,,,,,x
60,tryAgain,Memory,1,,,,,,,00965960627fa.jpg,,,,,,,,,,,,,,,
61,tryAgain,Memory,1,,,,,,,00905960530fa.jpg,,,,,,,,,,,,,,,
62,tryAgain,Memory,1,,,,,,,sunaydywdmvlfddbxbk.jpg,,,,,,,,,,,,,,,
63,tryAgain,Memory,1,,,,,,,sunaavchcbptaerhcfy.jpg,,,,,,,,,,,,,,,
64,tryAgain,Memory,1,,,,,,,00960960627fa.jpg,,,,,,,,,,,,,,,
65,tryAgain,Memory,1,,,,,,,sunagufzbeteqdjxais.jpg,,,,,,,,,,,,,,,
66,tryAgain,Memory,1,,,,,,,sunaizgnnplsvajzhkc.jpg,,,,,,,,,,,,,,,
67,tryAgain,Memory,1,,,,,,,sunanmoqeyprjjjfxjt.jpg,,,,,,,,,,,,,,,
68,tryAgain,Memory,1,,,,,,,00761960627fa.jpg,,,,,,,,,,,,,,,
69,tryAgain,Memory,1,,,,,,,sunaahwnmtqsrhocysw.jpg,,,,,,,,,,,,,,,
70,tryAgain,Memory,1,,,,,,,00786941205fa.jpg,,,,,,,,,,,,,,,
71,tryAgain,Memory,1,,,,,,,00719960620fa.jpg,,,,,,,,,,,,,,,
72,tryAgain,Memory,1,,,,,,,sunbdycacjfaujxitbw.jpg,,,,,,,,,,,,,,,
73,tryAgain,Memory,1,,,,,,,00498960627fa.jpg,,,,,,,,,,,,,,,
74,tryAgain,Memory,1,,,,,,,00862940307fa.jpg,,,,,,,,,,,,,,,
75,tryAgain,Memory,1,,,,,,,00647941031fa.jpg,,,,,,,,,,,,,,,
76,tryAgain,Memory,1,,,,,,,00210940128fb.jpg,,,,,,,,,,,,,,,
77,tryAgain,Memory,1,,,,,,,sunaguchqqnrtodtezq.jpg,,,,,,,,,,,,,,,
78,tryAgain,Memory,1,,,,,,,00803941205fa.jpg,,,,,,,,,,,,,,,
79,tryAgain,Memory,1,,,,,,,sunawksfbacycuhbrsc.jpg,,,,,,,,,,,,,,,
80,tryAgain,Memory,1,,,,,,,sunadflbrkckmepztql.jpg,,,,,,,,,,,,,,,
81,tryAgain,Memory,1,,,,,,,sunagmhildamktmqjss.jpg,,,,,,,,,,,,,,,
82,tryAgain,Memory,1,,,,,,,00158931230fb.jpg,,,,,,,,,,,,,,,
83,tryAgain,Memory,1,,,,,,,sunagvxkjokqimstxpe.jpg,,,,,,,,,,,,,,,
84,tryAgain,Memory,1,,,,,,,sunabzjxlmkwnwzimua.jpg,,,,,,,,,,,,,,,
85,tryAgain,Memory,1,,,,,,,00631940928fa.jpg,,,,,,,,,,,,,,,
86,tryAgain,Memory,1,,,,,,,sunabanoxjtqxamkucc.jpg,,,,,,,,,,,,,,,
87,tryAgain,Memory,1,,,,,,,00914960620fa.jpg,,,,,,,,,,,,,,,
88,tryAgain,Memory,1,,,,,,,sunaozisvwfbmlkfhzv.jpg,,,,,,,,,,,,,,,
89,tryAgain,Memory,1,,,,,,,sunaajspcoepticvplv.jpg,,,,,,,,,,,,,,,
90,tryAgain,Memory,1,,,,,,,00979960627fa.jpg,,,,,,,,,,,,,,,
91,tryAgain,Memory,1,,,,,,,sunafgdqbclkwfocdhg.jpg,,,,,,,,,,,,,,,
92,tryAgain,Memory,1,,,,,,,00797960620fa.jpg,,,,,,,,,,,,,,,
93,tryAgain,Memory,1,,,,,,,00102931230fa.jpg,,,,,,,,,,,,,,,
94,tryAgain,Memory,1,,,,,,,sunadbdqzigzwipuipr.jpg,,,,,,,,,,,,,,,
95,tryAgain,Memory,1,,,,,,,suncnkvbhypnivcohyx.jpg,,,,,,,,,,,,,,,
96,tryAgain,Memory,1,,,,,,,00093931230fa.jpg,,,,,,,,,,,,,,,
97,tryAgain,Memory,1,,,,,,,01010960627fa.jpg,,,,,,,,,,,,,,,
98,tryAgain,Memory,1,,,,,,,00796941205fa.jpg,,,,,,,,,,,,,,,
99,tryAgain,Memory,1,,,,,,,sunadzuvtmtmgupotmf.jpg,,,,,,,,,,,,,,,
100,tryAgain,Presentation,2,00772941201fa_sunafpfpiiujzoesnqg.jpg,00720960620fa_sunaecpkgfewqqreqwe.jpg,00772941201fa.jpg,sunafpfpiiujzoesnqg.jpg,00720960620fa.jpg,sunaecpkgfewqqreqwe.jpg,,,<,Place,,,,,1,,,,,,,o
101,tryAgain,Presentation,2,00197940128fa_sunaaylzyqlqrsmfwif.jpg,00153931230fa_sunaauhozyxzeeqstxi.jpg,00197940128fa.jpg,sunaaylzyqlqrsmfwif.jpg,00153931230fa.jpg,sunaauhozyxzeeqstxi.jpg,,,<,Place,,,,,1,,,,,,,o
102,tryAgain,Presentation,2,00235940128fb_sunabclssnoeuigtawp.jpg,00571940928fa_sunacuatpqpqhyjhjqk.jpg,00235940128fb.jpg,sunabclssnoeuigtawp.jpg,00571940928fa.jpg,sunacuatpqpqhyjhjqk.jpg,,,<,Place,,,,,1,,,,,,,x
103,tryAgain,Presentation,2,00065931230fb_sunaaemixhfquhnxxlm.jpg,00568940928fa_sunacsdhbbsybcyxnel.jpg,00065931230fb.jpg,sunaaemixhfquhnxxlm.jpg,00568940928fa.jpg,sunacsdhbbsybcyxnel.jpg,,,<,Place,,,,,1,,,,,,,x
104,tryAgain,Presentation,2,00868960307fa_sunajjxttslobudoqbv.jpg,00313940422fa_sunabwjvmoaddlyxfjr.jpg,00868960307fa.jpg,sunajjxttslobudoqbv.jpg,00313940422fa.jpg,sunabwjvmoaddlyxfjr.jpg,,,<,Place,,,,,1,,,,,,,x
105,tryAgain,Presentation,2,00847940307fa_sunaivdjruhkrfywfed.jpg,00829940307fa_sunahwgbqkqcrwprgvh.jpg,00847940307fa.jpg,sunaivdjruhkrfywfed.jpg,00829940307fa.jpg,sunahwgbqkqcrwprgvh.jpg,,,<,Place,,,,,1,,,,,,,o
106,tryAgain,Presentation,2,00239940128fa_sunabctlikybqabezjv.jpg,00752960620fa_sunafbwnojpqeyzssoe.jpg,00239940128fa.jpg,sunabctlikybqabezjv.jpg,00752960620fa.jpg,sunafbwnojpqeyzssoe.jpg,,,<,Place,,,,,1,,,,,,,o
107,tryAgain,Presentation,2,00882960530fa_sunaknlirqjqiwbbeeg.jpg,00095931230fa_sunaahzooisqkwlxwoz.jpg,00882960530fa.jpg,sunaknlirqjqiwbbeeg.jpg,00095931230fa.jpg,sunaahzooisqkwlxwoz.jpg,,,<,Place,,,,,1,,,,,,,o
108,tryAgain,Presentation,2,00750941201fa_sunaeuzwggvibufclwf.jpg,00127931230fa_sunaampvucecsfbdafn.jpg,00750941201fa.jpg,sunaeuzwggvibufclwf.jpg,00127931230fa.jpg,sunaampvucecsfbdafn.jpg,,,<,Place,,,,,1,,,,,,,o
109,tryAgain,Presentation,2,00990960627fa_sunbpflsdaxnddnwcqi.jpg,00125931230fa_sunaalltyvjhbzhkmvg.jpg,00990960627fa.jpg,sunbpflsdaxnddnwcqi.jpg,00125931230fa.jpg,sunaalltyvjhbzhkmvg.jpg,,,<,Place,,,,,1,,,,,,,o
110,tryAgain,Memory,2,,,,,,,sunbpflsdaxnddnwcqi.jpg,,,,,,,,,,,,,,,
111,tryAgain,Memory,2,,,,,,,00153931230fa.jpg,,,,,,,,,,,,,,,
112,tryAgain,Memory,2,,,,,,,00290940422fa.jpg,,,,,,,,,,,,,,,
113,tryAgain,Memory,2,,,,,,,00080931230fb.jpg,,,,,,,,,,,,,,,
114,tryAgain,Memory,2,,,,,,,sunaauhozyxzeeqstxi.jpg,,,,,,,,,,,,,,,
115,tryAgain,Memory,2,,,,,,,sunajjxttslobudoqbv.jpg,,,,,,,,,,,,,,,
116,tryAgain,Memory,2,,,,,,,00116931230fa.jpg,,,,,,,,,,,,,,,
117,tryAgain,Memory,2,,,,,,,00919960620fa.jpg,,,,,,,,,,,,,,,
118,tryAgain,Memory,2,,,,,,,00720960620fa.jpg,,,,,,,,,,,,,,,
119,tryAgain,Memory,2,,,,,,,00868960307fa.jpg,,,,,,,,,,,,,,,
120,tryAgain,Memory,2,,,,,,,sunafpfpiiujzoesnqg.jpg,,,,,,,,,,,,,,,
121,tryAgain,Memory,2,,,,,,,sunaizeyhvjzknwjudw.jpg,,,,,,,,,,,,,,,
122,tryAgain,Memory,2,,,,,,,00568940928fa.jpg,,,,,,,,,,,,,,,
123,tryAgain,Memory,2,,,,,,,sunapmfmzadmosuogaz.jpg,,,,,,,,,,,,,,,
124,tryAgain,Memory,2,,,,,,,00860940307fa.jpg,,,,,,,,,,,,,,,
125,tryAgain,Memory,2,,,,,,,sunaffstbkappprzxnv.jpg,,,,,,,,,,,,,,,
126,tryAgain,Memory,2,,,,,,,00071940128fa.jpg,,,,,,,,,,,,,,,
127,tryAgain,Memory,2,,,,,,,00235940128fb.jpg,,,,,,,,,,,,,,,
128,tryAgain,Memory,2,,,,,,,sunainqelldeebvxtcz.jpg,,,,,,,,,,,,,,,
129,tryAgain,Memory,2,,,,,,,sunaaexpnawiehinlpy.jpg,,,,,,,,,,,,,,,
130,tryAgain,Memory,2,,,,,,,sunaakqepfoeqomfgxf.jpg,,,,,,,,,,,,,,,
131,tryAgain,Memory,2,,,,,,,sunaeuzwggvibufclwf.jpg,,,,,,,,,,,,,,,
132,tryAgain,Memory,2,,,,,,,sunaalltyvjhbzhkmvg.jpg,,,,,,,,,,,,,,,
133,tryAgain,Memory,2,,,,,,,sunafvsxtzaizojicxx.jpg,,,,,,,,,,,,,,,
134,tryAgain,Memory,2,,,,,,,00829940307fa.jpg,,,,,,,,,,,,,,,
135,tryAgain,Memory,2,,,,,,,00292940422fb.jpg,,,,,,,,,,,,,,,
136,tryAgain,Memory,2,,,,,,,sunacsdhbbsybcyxnel.jpg,,,,,,,,,,,,,,,
137,tryAgain,Memory,2,,,,,,,sunaecpkgfewqqreqwe.jpg,,,,,,,,,,,,,,,
138,tryAgain,Memory,2,,,,,,,sunabqowuarvqqcnipn.jpg,,,,,,,,,,,,,,,
139,tryAgain,Memory,2,,,,,,,00750941201fa.jpg,,,,,,,,,,,,,,,
140,tryAgain,Memory,2,,,,,,,00760960620fa.jpg,,,,,,,,,,,,,,,
141,tryAgain,Memory,2,,,,,,,00836940307fa.jpg,,,,,,,,,,,,,,,
142,tryAgain,Memory,2,,,,,,,sunaafjszryxyavjzln.jpg,,,,,,,,,,,,,,,
143,tryAgain,Memory,2,,,,,,,sunabclssnoeuigtawp.jpg,,,,,,,,,,,,,,,
144,tryAgain,Memory,2,,,,,,,00773960620fa.jpg,,,,,,,,,,,,,,,
145,tryAgain,Memory,2,,,,,,,00772941201fa.jpg,,,,,,,,,,,,,,,
146,tryAgain,Memory,2,,,,,,,sunahwgbqkqcrwprgvh.jpg,,,,,,,,,,,,,,,
147,tryAgain,Memory,2,,,,,,,00125931230fa.jpg,,,,,,,,,,,,,,,
148,tryAgain,Memory,2,,,,,,,sunabrjdpmoedcdjbpo.jpg,,,,,,,,,,,,,,,
149,tryAgain,Memory,2,,,,,,,00990960627fa.jpg,,,,,,,,,,,,,,,
150,tryAgain,Presentation,3,00985960627fa_sunbgklxeqjhdbyfhhy.jpg,00957960627fa_sunavhxgmgrqsaptynb.jpg,00985960627fa.jpg,sunbgklxeqjhdbyfhhy.jpg,00957960627fa.jpg,sunavhxgmgrqsaptynb.jpg,,,<,Face,,,,,1,,,,,,,x
151,tryAgain,Presentation,3,00906960530fa_sunantryfbloeaomfta.jpg,00069931230fb_sunaaeowapdkwzqpgqr.jpg,00906960530fa.jpg,sunantryfbloeaomfta.jpg,00069931230fb.jpg,sunaaeowapdkwzqpgqr.jpg,,,<,Face,,,,,1,,,,,,,x
152,tryAgain,Presentation,3,00276940422fa_sunabmytpyhsgigllxu.jpg,00787960620fa_sunagoufulkpsxrmklt.jpg,00276940422fa.jpg,sunabmytpyhsgigllxu.jpg,00787960620fa.jpg,sunagoufulkpsxrmklt.jpg,,,<,Face,,,,,1,,,,,,,o
153,tryAgain,Presentation,3,00780960530fa_sunagetqixeypsysbpn.jpg,00209940128fb_sunabaergayifsgacxt.jpg,00780960530fa.jpg,sunagetqixeypsysbpn.jpg,00209940128fb.jpg,sunabaergayifsgacxt.jpg,,,<,Face,,,,,1,,,,,,,x
154,tryAgain,Presentation,3,00554940519fa_sunacfdkbsrughwqwtt.jpg,00811960530fa_sunahedfrhtcwpneund.jpg,00554940519fa.jpg,sunacfdkbsrughwqwtt.jpg,00811960530fa.jpg,sunahedfrhtcwpneund.jpg,,,<,Face,,,,,1,,,,,,,x
155,tryAgain,Presentation,3,00900960530fa_sunamlotskmmsjeogby.jpg,00876960620fa_sunajwqkfsykceonyig.jpg,00900960530fa.jpg,sunamlotskmmsjeogby.jpg,00876960620fa.jpg,sunajwqkfsykceonyig.jpg,,,<,Face,,,,,1,,,,,,,o
156,tryAgain,Presentation,3,00969960627fa_sunbaoizrfijvhpnnjn.jpg,00262940128fa_sunabizydfotqddlnjp.jpg,00969960627fa.jpg,sunbaoizrfijvhpnnjn.jpg,00262940128fa.jpg,sunabizydfotqddlnjp.jpg,,,<,Face,,,,,0,,,,,,,x
157,tryAgain,Presentation,3,00866940307fa_sunajbwkywmsqkldfml.jpg,00903960620fa_sunanainkqdvktzoxyl.jpg,00866940307fa.jpg,sunajbwkywmsqkldfml.jpg,00903960620fa.jpg,sunanainkqdvktzoxyl.jpg,,,<,Face,,,,,1,,,,,,,x
158,tryAgain,Presentation,3,00742941201fa_sunaenwuebvlpdmntju.jpg,00559940519fa_sunacjkmnpawfzbyvae.jpg,00742941201fa.jpg,sunaenwuebvlpdmntju.jpg,00559940519fa.jpg,sunacjkmnpawfzbyvae.jpg,,,<,Face,,,,,1,,,,,,,x
159,tryAgain,Presentation,3,00260940128fa_sunabgfhvifeijihhjw.jpg,00771941205fa_sunafowswglhxcsufpo.jpg,00260940128fa.jpg,sunabgfhvifeijihhjw.jpg,00771941205fa.jpg,sunafowswglhxcsufpo.jpg,,,<,Face,,,,,0,,,,,,,x
160,tryAgain,Memory,3,,,,,,,00559940519fa.jpg,,,,,,,,,,,,,,,
161,tryAgain,Memory,3,,,,,,,00191940128fb.jpg,,,,,,,,,,,,,,,
162,tryAgain,Memory,3,,,,,,,00589940928fa.jpg,,,,,,,,,,,,,,,
163,tryAgain,Memory,3,,,,,,,sunahedfrhtcwpneund.jpg,,,,,,,,,,,,,,,
164,tryAgain,Memory,3,,,,,,,00866940307fa.jpg,,,,,,,,,,,,,,,
165,tryAgain,Memory,3,,,,,,,sunacwggadqsfpovdjv.jpg,,,,,,,,,,,,,,,
166,tryAgain,Memory,3,,,,,,,sunajbwkywmsqkldfml.jpg,,,,,,,,,,,,,,,
167,tryAgain,Memory,3,,,,,,,00787960620fa.jpg,,,,,,,,,,,,,,,
168,tryAgain,Memory,3,,,,,,,00262940128fa.jpg,,,,,,,,,,,,,,,
169,tryAgain,Memory,3,,,,,,,sunaapllqyqlykszopd.jpg,,,,,,,,,,,,,,,
170,tryAgain,Memory,3,,,,,,,00900960530fa.jpg,,,,,,,,,,,,,,,
171,tryAgain,Memory,3,,,,,,,sunapqkpqdfvxlbqwyo.jpg,,,,,,,,,,,,,,,
172,tryAgain,Memory,3,,,,,,,sunagcthdfirrcawoic.jpg,,,,,,,,,,,,,,,
173,tryAgain,Memory,3,,,,,,,sunagoufulkpsxrmklt.jpg,,,,,,,,,,,,,,,
174,tryAgain,Memory,3,,,,,,,00529940519fa.jpg,,,,,,,,,,,,,,,
175,tryAgain,Memory,3,,,,,,,00276940422fa.jpg,,,,,,,,,,,,,,,
176,tryAgain,Memory,3,,,,,,,00921960627fa.jpg,,,,,,,,,,,,,,,
177,tryAgain,Memory,3,,,,,,,00780960530fa.jpg,,,,,,,,,,,,,,,
178,tryAgain,Memory,3,,,,,,,00901960530fa.jpg,,,,,,,,,,,,,,,
179,tryAgain,Memory,3,,,,,,,sunbaoizrfijvhpnnjn.jpg,,,,,,,,,,,,,,,
180,tryAgain,Memory,3,,,,,,,sunamlotskmmsjeogby.jpg,,,,,,,,,,,,,,,
181,tryAgain,Memory,3,,,,,,,00903960620fa.jpg,,,,,,,,,,,,,,,
182,tryAgain,Memory,3,,,,,,,00811960530fa.jpg,,,,,,,,,,,,,,,
183,tryAgain,Memory,3,,,,,,,00749941201fa.jpg,,,,,,,,,,,,,,,
184,tryAgain,Memory,3,,,,,,,00783941205fa.jpg,,,,,,,,,,,,,,,
185,tryAgain,Memory,3,,,,,,,sunabizydfotqddlnjp.jpg,,,,,,,,,,,,,,,
186,tryAgain,Memory,3,,,,,,,sunaawsdjisukbbginm.jpg,,,,,,,,,,,,,,,
187,tryAgain,Memory,3,,,,,,,sunacbeefkxpymwevpk.jpg,,,,,,,,,,,,,,,
188,tryAgain,Memory,3,,,,,,,sunaeuvjbmdpknaqqaj.jpg,,,,,,,,,,,,,,,
189,tryAgain,Memory,3,,,,,,,00098931230fa.jpg,,,,,,,,,,,,,,,
190,tryAgain,Memory,3,,,,,,,00140931230fb.jpg,,,,,,,,,,,,,,,
191,tryAgain,Memory,3,,,,,,,sunagetqixeypsysbpn.jpg,,,,,,,,,,,,,,,
192,tryAgain,Memory,3,,,,,,,sunammbnoambmhdxdwd.jpg,,,,,,,,,,,,,,,
193,tryAgain,Memory,3,,,,,,,sunacjkmnpawfzbyvae.jpg,,,,,,,,,,,,,,,
194,tryAgain,Memory,3,,,,,,,sunagjeesomrwjsfqie.jpg,,,,,,,,,,,,,,,
195,tryAgain,Memory,3,,,,,,,00969960627fa.jpg,,,,,,,,,,,,,,,
196,tryAgain,Memory,3,,,,,,,00778941205fa.jpg,,,,,,,,,,,,,,,
197,tryAgain,Memory,3,,,,,,,sunabmytpyhsgigllxu.jpg,,,,,,,,,,,,,,,
198,tryAgain,Memory,3,,,,,,,sunaajpqmulidejvjsr.jpg,,,,,,,,,,,,,,,
199,tryAgain,Memory,3,,,,,,,sunanainkqdvktzoxyl.jpg,,,,,,,,,,,,,,,
200,tryAgain,Presentation,4,00952960627fa_sunathzzbcwjykldrem.jpg,00574940928fa_sunacvbrcejzwmcgnoq.jpg,00952960627fa.jpg,sunathzzbcwjykldrem.jpg,00574940928fa.jpg,sunacvbrcejzwmcgnoq.jpg,,,>,Face,,,,,1,,,,,,,o
201,tryAgain,Presentation,4,00902960530fa_sunanaacmmosxrfwmvl.jpg,00926960627Fa_sunapqwoeotxshkukbh.jpg,00902960530fa.jpg,sunanaacmmosxrfwmvl.jpg,00926960627Fa.jpg,sunapqwoeotxshkukbh.jpg,,,>,Face,,,,,0,,,,,,,o
202,tryAgain,Presentation,4,00936960627fa_sunaqgjuuwvdcyiccjt.jpg,00564940928fa_sunacmpqqfbsvlzinzl.jpg,00936960627fa.jpg,sunaqgjuuwvdcyiccjt.jpg,00564940928fa.jpg,sunacmpqqfbsvlzinzl.jpg,,,>,Face,,,,,1,,,,,,,x
203,tryAgain,Presentation,4,00727941205fa_sunaeisnjeetzmkbuad.jpg,00636941031fa_sunaddtdkycxbqlpfqa.jpg,00727941205fa.jpg,sunaeisnjeetzmkbuad.jpg,00636941031fa.jpg,sunaddtdkycxbqlpfqa.jpg,,,>,Face,,,,,1,,,,,,,x
204,tryAgain,Presentation,4,00966960627fa_sunaygrtwrwfezqjizr.jpg,00870940307fa_sunajrgtewnualfcerj.jpg,00966960627fa.jpg,sunaygrtwrwfezqjizr.jpg,00870940307fa.jpg,sunajrgtewnualfcerj.jpg,,,>,Face,,,,,1,,,,,,,x
205,tryAgain,Presentation,4,00482940519fa_sunabyfxcxhdebvdyfd.jpg,00807941205fa_sunahawfngukizslzsd.jpg,00482940519fa.jpg,sunabyfxcxhdebvdyfd.jpg,00807941205fa.jpg,sunahawfngukizslzsd.jpg,,,>,Face,,,,,1,,,,,,,o
206,tryAgain,Presentation,4,00633940928fa_sunadbhmrgrrpyzglxs.jpg,00133931230fa_sunaanlwnpqndclffxt.jpg,00633940928fa.jpg,sunadbhmrgrrpyzglxs.jpg,00133931230fa.jpg,sunaanlwnpqndclffxt.jpg,,,>,Face,,,,,1,,,,,,,o
207,tryAgain,Presentation,4,00805941205fa_sunagwzdbtlixdhgolm.jpg,00864940307fa_sunajawzbrlrwafowen.jpg,00805941205fa.jpg,sunagwzdbtlixdhgolm.jpg,00864940307fa.jpg,sunajawzbrlrwafowen.jpg,,,>,Face,,,,,1,,,,,,,x
208,tryAgain,Presentation,4,00548940519fa_sunacerqowiaeoqkmsq.jpg,00096931230fa_sunaaiqiqcggrskoqgy.jpg,00548940519fa.jpg,sunacerqowiaeoqkmsq.jpg,00096931230fa.jpg,sunaaiqiqcggrskoqgy.jpg,,,>,Face,,,,,1,,,,,,,x
209,tryAgain,Presentation,4,00791941205fa_sunagrmyoovzukhxmlo.jpg,00877960530fa_sunajxpkuhbizeveguy.jpg,00791941205fa.jpg,sunagrmyoovzukhxmlo.jpg,00877960530fa.jpg,sunajxpkuhbizeveguy.jpg,,,>,Face,,,,,1,,,,,,,x
210,tryAgain,Memory,4,,,,,,,sunbbgtoeuzierkkajt.jpg,,,,,,,,,,,,,,,
211,tryAgain,Memory,4,,,,,,,00727941205fa.jpg,,,,,,,,,,,,,,,
212,tryAgain,Memory,4,,,,,,,00902960530fa.jpg,,,,,,,,,,,,,,,
213,tryAgain,Memory,4,,,,,,,00154931230fa.jpg,,,,,,,,,,,,,,,
214,tryAgain,Memory,4,,,,,,,sunaddtdkycxbqlpfqa.jpg,,,,,,,,,,,,,,,
215,tryAgain,Memory,4,,,,,,,00973960627fa.jpg,,,,,,,,,,,,,,,
216,tryAgain,Memory,4,,,,,,,00939960627fa.jpg,,,,,,,,,,,,,,,
217,tryAgain,Memory,4,,,,,,,sunarceibpcyacbmfga.jpg,,,,,,,,,,,,,,,
218,tryAgain,Memory,4,,,,,,,sunabyfxcxhdebvdyfd.jpg,,,,,,,,,,,,,,,
219,tryAgain,Memory,4,,,,,,,00966960627fa.jpg,,,,,,,,,,,,,,,
220,tryAgain,Memory,4,,,,,,,sunakodkcslgqhqlgwl.jpg,,,,,,,,,,,,,,,
221,tryAgain,Memory,4,,,,,,,00482940519fa.jpg,,,,,,,,,,,,,,,
222,tryAgain,Memory,4,,,,,,,sunanaacmmosxrfwmvl.jpg,,,,,,,,,,,,,,,
223,tryAgain,Memory,4,,,,,,,sunaanlwnpqndclffxt.jpg,,,,,,,,,,,,,,,
224,tryAgain,Memory,4,,,,,,,00302940422fa.jpg,,,,,,,,,,,,,,,
225,tryAgain,Memory,4,,,,,,,sunadakkdovnuzlycvp.jpg,,,,,,,,,,,,,,,
226,tryAgain,Memory,4,,,,,,,00807941205fa.jpg,,,,,,,,,,,,,,,
227,tryAgain,Memory,4,,,,,,,sunagwzdbtlixdhgolm.jpg,,,,,,,,,,,,,,,
228,tryAgain,Memory,4,,,,,,,sunahawfngukizslzsd.jpg,,,,,,,,,,,,,,,
229,tryAgain,Memory,4,,,,,,,sunabtlfmiwtljmoues.jpg,,,,,,,,,,,,,,,
230,tryAgain,Memory,4,,,,,,,sunbddbivbptlrlauhy.jpg,,,,,,,,,,,,,,,
231,tryAgain,Memory,4,,,,,,,sunaauueuhhvklldjik.jpg,,,,,,,,,,,,,,,
232,tryAgain,Memory,4,,,,,,,00978960627fa.jpg,,,,,,,,,,,,,,,
233,tryAgain,Memory,4,,,,,,,00877960530fa.jpg,,,,,,,,,,,,,,,
234,tryAgain,Memory,4,,,,,,,00630941031fa.jpg,,,,,,,,,,,,,,,
235,tryAgain,Memory,4,,,,,,,sunahctntqrunhdxhtb.jpg,,,,,,,,,,,,,,,
236,tryAgain,Memory,4,,,,,,,00636941031fa.jpg,,,,,,,,,,,,,,,
237,tryAgain,Memory,4,,,,,,,sunablfqiwfqomjarht.jpg,,,,,,,,,,,,,,,
238,tryAgain,Memory,4,,,,,,,00124931230fa.jpg,,,,,,,,,,,,,,,
239,tryAgain,Memory,4,,,,,,,sunapqwoeotxshkukbh.jpg,,,,,,,,,,,,,,,
240,tryAgain,Memory,4,,,,,,,00884960530fa.jpg,,,,,,,,,,,,,,,
241,tryAgain,Memory,4,,,,,,,sunaeisnjeetzmkbuad.jpg,,,,,,,,,,,,,,,
242,tryAgain,Memory,4,,,,,,,sunaygrtwrwfezqjizr.jpg,,,,,,,,,,,,,,,
243,tryAgain,Memory,4,,,,,,,00267940128fb.jpg,,,,,,,,,,,,,,,
244,tryAgain,Memory,4,,,,,,,sunaalhlvzmjmitybdn.jpg,,,,,,,,,,,,,,,
245,tryAgain,Memory,4,,,,,,,00805941205fa.jpg,,,,,,,,,,,,,,,
246,tryAgain,Memory,4,,,,,,,00133931230fa.jpg,,,,,,,,,,,,,,,
247,tryAgain,Memory,4,,,,,,,sunajxpkuhbizeveguy.jpg,,,,,,,,,,,,,,,
248,tryAgain,Memory,4,,,,,,,00926960627Fa.jpg,,,,,,,,,,,,,,,
249,tryAgain,Memory,4,,,,,,,00810941205fa.jpg,,,,,,,,,,,,,,,
250,tryAgain,Presentation,5,00804960530fa_sunagwswhkvnsmuszlz.jpg,00801941205fa_sunagvprlbprarvgdvj.jpg,00804960530fa.jpg,sunagwswhkvnsmuszlz.jpg,00801941205fa.jpg,sunagvprlbprarvgdvj.jpg,,,>,Place,,,,,1,,,,,,,o
251,tryAgain,Presentation,5,00944960627fa_sunasbbntuiheekqyaq.jpg,00793941205fa_sunagtjwilqjvxohypn.jpg,00944960627fa.jpg,sunasbbntuiheekqyaq.jpg,00793941205fa.jpg,sunagtjwilqjvxohypn.jpg,,,>,Place,,,,,1,,,,,,,o
252,tryAgain,Presentation,5,00481940519fa_sunabxsuqbleluwczoy.jpg,00194940128fb_sunaayehfdqcyxggsej.jpg,00481940519fa.jpg,sunabxsuqbleluwczoy.jpg,00194940128fb.jpg,sunaayehfdqcyxggsej.jpg,,,>,Place,,,,,0,,,,,,,x
253,tryAgain,Presentation,5,00218940128fa_sunabbwggenhfbftyvi.jpg,00163931230fb_sunaavodbcpygkggnfp.jpg,00218940128fa.jpg,sunabbwggenhfbftyvi.jpg,00163931230fb.jpg,sunaavodbcpygkggnfp.jpg,,,>,Place,,,,,1,,,,,,,o
254,tryAgain,Presentation,5,00812941205fa_sunahgtbwgsmtqeodwh.jpg,00126931230fb_sunaamdjwemxpmmtypi.jpg,00812941205fa.jpg,sunahgtbwgsmtqeodwh.jpg,00126931230fb.jpg,sunaamdjwemxpmmtypi.jpg,,,>,Place,,,,,1,,,,,,,x
255,tryAgain,Presentation,5,00953960627fa_sunatstrpjxhvtbaczf.jpg,00785941205fa_sunaglqunwuycxydmyu.jpg,00953960627fa.jpg,sunatstrpjxhvtbaczf.jpg,00785941205fa.jpg,sunaglqunwuycxydmyu.jpg,,,>,Place,,,,,1,,,,,,,x
256,tryAgain,Presentation,5,00694941121fa_sunadrmfzmstgdjdcod.jpg,00753941201fa_sunafcofuuzebuadceo.jpg,00694941121fa.jpg,sunadrmfzmstgdjdcod.jpg,00753941201fa.jpg,sunafcofuuzebuadceo.jpg,,,>,Place,,,,,1,,,,,,,o
257,tryAgain,Presentation,5,00743941201fa_sunaeoghzrjarigmwua.jpg,00681941121fa_sunadqmjrhfjyuzyvdd.jpg,00743941201fa.jpg,sunaeoghzrjarigmwua.jpg,00681941121fa.jpg,sunadqmjrhfjyuzyvdd.jpg,,,>,Place,,,,,1,,,,,,,o
258,tryAgain,Presentation,5,00245940128fa_sunabeyhmxodahoieyk.jpg,00984960627fa_sunbfzchmomnvzhbxdg.jpg,00245940128fa.jpg,sunabeyhmxodahoieyk.jpg,00984960627fa.jpg,sunbfzchmomnvzhbxdg.jpg,,,>,Place,,,,,1,,,,,,,x
259,tryAgain,Presentation,5,00122931230fa_sunaakxjfbrrequcjmx.jpg,00913960530fa_sunaooffzffbhcpirmm.jpg,00122931230fa.jpg,sunaakxjfbrrequcjmx.jpg,00913960530fa.jpg,sunaooffzffbhcpirmm.jpg,,,>,Place,,,,,0,,,,,,,o
260,tryAgain,Memory,5,,,,,,,00505960627fa.jpg,,,,,,,,,,,,,,,
261,tryAgain,Memory,5,,,,,,,sunabbwggenhfbftyvi.jpg,,,,,,,,,,,,,,,
262,tryAgain,Memory,5,,,,,,,00242940128fa.jpg,,,,,,,,,,,,,,,
263,tryAgain,Memory,5,,,,,,,00122931230fa.jpg,,,,,,,,,,,,,,,
264,tryAgain,Memory,5,,,,,,,sunabeyhmxodahoieyk.jpg,,,,,,,,,,,,,,,
265,tryAgain,Memory,5,,,,,,,sunacxtcahkymosigud.jpg,,,,,,,,,,,,,,,
266,tryAgain,Memory,5,,,,,,,sunahgtbwgsmtqeodwh.jpg,,,,,,,,,,,,,,,
267,tryAgain,Memory,5,,,,,,,sunabwfvcqqidycwypa.jpg,,,,,,,,,,,,,,,
268,tryAgain,Memory,5,,,,,,,00308940422fb.jpg,,,,,,,,,,,,,,,
269,tryAgain,Memory,5,,,,,,,00784941205fb.jpg,,,,,,,,,,,,,,,
270,tryAgain,Memory,5,,,,,,,sunaayehfdqcyxggsej.jpg,,,,,,,,,,,,,,,
271,tryAgain,Memory,5,,,,,,,00245940128fa.jpg,,,,,,,,,,,,,,,
272,tryAgain,Memory,5,,,,,,,sunagdzlvkqtpnfxfcg.jpg,,,,,,,,,,,,,,,
273,tryAgain,Memory,5,,,,,,,sunabzuqsrgcsonqlkz.jpg,,,,,,,,,,,,,,,
274,tryAgain,Memory,5,,,,,,,sunafcofuuzebuadceo.jpg,,,,,,,,,,,,,,,
275,tryAgain,Memory,5,,,,,,,00598941031fa.jpg,,,,,,,,,,,,,,,
276,tryAgain,Memory,5,,,,,,,00218940128fa.jpg,,,,,,,,,,,,,,,
277,tryAgain,Memory,5,,,,,,,00138931230fa.jpg,,,,,,,,,,,,,,,
278,tryAgain,Memory,5,,,,,,,00126931230fb.jpg,,,,,,,,,,,,,,,
279,tryAgain,Memory,5,,,,,,,sunaatjesvdupctftmn.jpg,,,,,,,,,,,,,,,
280,tryAgain,Memory,5,,,,,,,00785941205fa.jpg,,,,,,,,,,,,,,,
281,tryAgain,Memory,5,,,,,,,sunaglqunwuycxydmyu.jpg,,,,,,,,,,,,,,,
282,tryAgain,Memory,5,,,,,,,sunabcuurugvxwparpk.jpg,,,,,,,,,,,,,,,
283,tryAgain,Memory,5,,,,,,,sunbasypfgzjtomktmu.jpg,,,,,,,,,,,,,,,
284,tryAgain,Memory,5,,,,,,,sunabxsuqbleluwczoy.jpg,,,,,,,,,,,,,,,
285,tryAgain,Memory,5,,,,,,,00970960627fa.jpg,,,,,,,,,,,,,,,
286,tryAgain,Memory,5,,,,,,,00779941205fa.jpg,,,,,,,,,,,,,,,
287,tryAgain,Memory,5,,,,,,,sunabjzyxcjnmztdonj.jpg,,,,,,,,,,,,,,,
288,tryAgain,Memory,5,,,,,,,sunadqmjrhfjyuzyvdd.jpg,,,,,,,,,,,,,,,
289,tryAgain,Memory,5,,,,,,,00481940519fa.jpg,,,,,,,,,,,,,,,
290,tryAgain,Memory,5,,,,,,,sunaapfaivxqoynnwwp.jpg,,,,,,,,,,,,,,,
291,tryAgain,Memory,5,,,,,,,sunagjzcrjvmxzqzljx.jpg,,,,,,,,,,,,,,,
292,tryAgain,Memory,5,,,,,,,00264940128fb.jpg,,,,,,,,,,,,,,,
293,tryAgain,Memory,5,,,,,,,00812941205fa.jpg,,,,,,,,,,,,,,,
294,tryAgain,Memory,5,,,,,,,00753941201fa.jpg,,,,,,,,,,,,,,,
295,tryAgain,Memory,5,,,,,,,00681941121fa.jpg,,,,,,,,,,,,,,,
296,tryAgain,Memory,5,,,,,,,00145931230fb.jpg,,,,,,,,,,,,,,,
297,tryAgain,Memory,5,,,,,,,sunaakxjfbrrequcjmx.jpg,,,,,,,,,,,,,,,
298,tryAgain,Memory,5,,,,,,,00194940128fb.jpg,,,,,,,,,,,,,,,
299,tryAgain,Memory,5,,,,,,,sunaamdjwemxpmmtypi.jpg,,,,,,,,,,,,,,,
300,tryAgain,Presentation,6,00146960620fb_sunaatpeezlljqaxlhj.jpg,00063931230fa_sunaaelyvurpntclgau.jpg,00146960620fb.jpg,sunaatpeezlljqaxlhj.jpg,00063931230fa.jpg,sunaaelyvurpntclgau.jpg,,,>,Face,,,,,1,,,,,,,x
301,tryAgain,Presentation,6,00925960627fa_sunapqwnqzxlsfvgsjm.jpg,00077931230fb_sunaafgqutfaishsxyu.jpg,00925960627fa.jpg,sunapqwnqzxlsfvgsjm.jpg,00077931230fb.jpg,sunaafgqutfaishsxyu.jpg,,,>,Face,,,,,0,,,,,,,x
302,tryAgain,Presentation,6,00955960627fb_sunauburywlkjszngcq.jpg,00996960627fa_sunbpvgllfdejxcpjqp.jpg,00955960627fb.jpg,sunauburywlkjszngcq.jpg,00996960627fa.jpg,sunbpvgllfdejxcpjqp.jpg,,,>,Face,,,,,0,,,,,,,o
303,tryAgain,Presentation,6,00816941205fa_sunahmhrncocyhsjpxk.jpg,00211940128fa_sunabasphceswhwwqvv.jpg,00816941205fa.jpg,sunahmhrncocyhsjpxk.jpg,00211940128fa.jpg,sunabasphceswhwwqvv.jpg,,,>,Face,,,,,1,,,,,,,x
304,tryAgain,Presentation,6,00938960627fa_sunaqyylsngywqzwfmx.jpg,00885960530fa_sunakwlvxjpddialozd.jpg,00938960627fa.jpg,sunaqyylsngywqzwfmx.jpg,00885960530fa.jpg,sunakwlvxjpddialozd.jpg,,,>,Face,,,,,1,,,,,,,x
305,tryAgain,Presentation,6,00763941205fa_sunafhmnhsdurlvddpw.jpg,00221940128fa_sunabcfpwlpolnutyju.jpg,00763941205fa.jpg,sunafhmnhsdurlvddpw.jpg,00221940128fa.jpg,sunabcfpwlpolnutyju.jpg,,,>,Face,,,,,1,,,,,,,o
306,tryAgain,Presentation,6,00766960620fa_sunafijbgncijwykrnl.jpg,00774941201fa_sunafvtpfczkzopbgue.jpg,00766960620fa.jpg,sunafijbgncijwykrnl.jpg,00774941201fa.jpg,sunafvtpfczkzopbgue.jpg,,,>,Face,,,,,1,,,,,,,o
307,tryAgain,Presentation,6,00800941205fb_sunagvjurcwdbixvnyi.jpg,00634940928fa_sunadcphrizvfpljiqt.jpg,00800941205fb.jpg,sunagvjurcwdbixvnyi.jpg,00634940928fa.jpg,sunadcphrizvfpljiqt.jpg,,,>,Face,,,,,0,,,,,,,o
308,tryAgain,Presentation,6,00983960627fa_sunbfyvfqiimvdaxlqn.jpg,00662941121fa_sunadkazmlajmohnwfl.jpg,00983960627fa.jpg,sunbfyvfqiimvdaxlqn.jpg,00662941121fa.jpg,sunadkazmlajmohnwfl.jpg,,,>,Face,,,,,1,,,,,,,x
309,tryAgain,Presentation,6,00911960530fa_sunaooaqzputrowwbsw.jpg,00557940519fa_sunachtuarilwyqnvjx.jpg,00911960530fa.jpg,sunaooaqzputrowwbsw.jpg,00557940519fa.jpg,sunachtuarilwyqnvjx.jpg,,,>,Face,,,,,1,,,,,,,o
310,tryAgain,Memory,6,,,,,,,sunbfyvfqiimvdaxlqn.jpg,,,,,,,,,,,,,,,
311,tryAgain,Memory,6,,,,,,,00675941121fa.jpg,,,,,,,,,,,,,,,
312,tryAgain,Memory,6,,,,,,,00662941121fa.jpg,,,,,,,,,,,,,,,
313,tryAgain,Memory,6,,,,,,,sunadtlxenqqxsyjvix.jpg,,,,,,,,,,,,,,,
314,tryAgain,Memory,6,,,,,,,00768941205fa.jpg,,,,,,,,,,,,,,,
315,tryAgain,Memory,6,,,,,,,00955960627fb.jpg,,,,,,,,,,,,,,,
316,tryAgain,Memory,6,,,,,,,00077931230fb.jpg,,,,,,,,,,,,,,,
317,tryAgain,Memory,6,,,,,,,sunaooaqzputrowwbsw.jpg,,,,,,,,,,,,,,,
318,tryAgain,Memory,6,,,,,,,sunaaekxzjzrfgtkwjf.jpg,,,,,,,,,,,,,,,
319,tryAgain,Memory,6,,,,,,,sunadkazmlajmohnwfl.jpg,,,,,,,,,,,,,,,
320,tryAgain,Memory,6,,,,,,,00063931230fa.jpg,,,,,,,,,,,,,,,
321,tryAgain,Memory,6,,,,,,,00296940422fa.jpg,,,,,,,,,,,,,,,
322,tryAgain,Memory,6,,,,,,,00634940928fa.jpg,,,,,,,,,,,,,,,
323,tryAgain,Memory,6,,,,,,,00648941031fa.jpg,,,,,,,,,,,,,,,
324,tryAgain,Memory,6,,,,,,,sunahmhrncocyhsjpxk.jpg,,,,,,,,,,,,,,,
325,tryAgain,Memory,6,,,,,,,sunaejnvnpltdmhbcsi.jpg,,,,,,,,,,,,,,,
326,tryAgain,Memory,6,,,,,,,00816941205fa.jpg,,,,,,,,,,,,,,,
327,tryAgain,Memory,6,,,,,,,sunauburywlkjszngcq.jpg,,,,,,,,,,,,,,,
328,tryAgain,Memory,6,,,,,,,00910960530fa.jpg,,,,,,,,,,,,,,,
329,tryAgain,Memory,6,,,,,,,sunaofikylqtxphvdem.jpg,,,,,,,,,,,,,,,
330,tryAgain,Memory,6,,,,,,,00911960530fa.jpg,,,,,,,,,,,,,,,
331,tryAgain,Memory,6,,,,,,,00983960627fa.jpg,,,,,,,,,,,,,,,
332,tryAgain,Memory,6,,,,,,,00705941205fa.jpg,,,,,,,,,,,,,,,
333,tryAgain,Memory,6,,,,,,,01000960627fa.jpg,,,,,,,,,,,,,,,
334,tryAgain,Memory,6,,,,,,,sunaatpkocdkocwxpkb.jpg,,,,,,,,,,,,,,,
335,tryAgain,Memory,6,,,,,,,sunadoxcchtmsxewsau.jpg,,,,,,,,,,,,,,,
336,tryAgain,Memory,6,,,,,,,sunakwlvxjpddialozd.jpg,,,,,,,,,,,,,,,
337,tryAgain,Memory,6,,,,,,,00800941205fb.jpg,,,,,,,,,,,,,,,
338,tryAgain,Memory,6,,,,,,,sunadfndyrtqqiasoig.jpg,,,,,,,,,,,,,,,
339,tryAgain,Memory,6,,,,,,,sunagvjurcwdbixvnyi.jpg,,,,,,,,,,,,,,,
340,tryAgain,Memory,6,,,,,,,00061931230fb.jpg,,,,,,,,,,,,,,,
341,tryAgain,Memory,6,,,,,,,sunaafgqutfaishsxyu.jpg,,,,,,,,,,,,,,,
342,tryAgain,Memory,6,,,,,,,sunaaelyvurpntclgau.jpg,,,,,,,,,,,,,,,
343,tryAgain,Memory,6,,,,,,,sunabrwnslxalcohfre.jpg,,,,,,,,,,,,,,,
344,tryAgain,Memory,6,,,,,,,sunbvzmgrdvaakxusbu.jpg,,,,,,,,,,,,,,,
345,tryAgain,Memory,6,,,,,,,sunafkmnlytenlsywia.jpg,,,,,,,,,,,,,,,
346,tryAgain,Memory,6,,,,,,,sunadcphrizvfpljiqt.jpg,,,,,,,,,,,,,,,
347,tryAgain,Memory,6,,,,,,,00885960530fa.jpg,,,,,,,,,,,,,,,
348,tryAgain,Memory,6,,,,,,,00728941205fa.jpg,,,,,,,,,,,,,,,
349,tryAgain,Memory,6,,,,,,,00147931230fb.jpg,,,,,,,,,,,,,,,
350,tryAgain,Presentation,7,00630940928fa_sunaczwgyukesaajxnx.jpg,00788941205fa_sunagountlxpzkytsmp.jpg,00630940928fa.jpg,sunaczwgyukesaajxnx.jpg,00788941205fa.jpg,sunagountlxpzkytsmp.jpg,,,>,Place,,,,,1,,,,,,,x
351,tryAgain,Presentation,7,01002960627fb_sunbwaafjdebjzttuvq.jpg,00609940928fa_sunacycdoztxoluxjyk.jpg,01002960627fb.jpg,sunbwaafjdebjzttuvq.jpg,00609940928fa.jpg,sunacycdoztxoluxjyk.jpg,,,>,Place,,,,,1,,,,,,,o
352,tryAgain,Presentation,7,00839940307fa_sunaipyohrqlwngaqif.jpg,00794960620fa_sunagtqhhwxjeuxdebe.jpg,00839940307fa.jpg,sunaipyohrqlwngaqif.jpg,00794960620fa.jpg,sunagtqhhwxjeuxdebe.jpg,,,>,Place,,,,,1,,,,,,,o
353,tryAgain,Presentation,7,00089931230fa_sunaagcpoejbuzyvddd.jpg,00136931230fb_sunaanptmsknhirrzed.jpg,00089931230fa.jpg,sunaagcpoejbuzyvddd.jpg,00136931230fb.jpg,sunaanptmsknhirrzed.jpg,,,>,Place,,,,,1,,,,,,,o
354,tryAgain,Presentation,7,01005960627fa_sunbwyuesflwdpqtgoy.jpg,00898960530fa_sunamkmeblgteyggink.jpg,01005960627fa.jpg,sunbwyuesflwdpqtgoy.jpg,00898960530fa.jpg,sunamkmeblgteyggink.jpg,,,>,Place,,,,,1,,,,,,,x
355,tryAgain,Presentation,7,00988960627fa_sunbmaiocftdtvnzgap.jpg,00933960627fa_sunapwjkcxdaeqehfql.jpg,00988960627fa.jpg,sunbmaiocftdtvnzgap.jpg,00933960627fa.jpg,sunapwjkcxdaeqehfql.jpg,,,>,Place,,,,,1,,,,,,,o
356,tryAgain,Presentation,7,00892960530fa_sunalntxqqadigcletd.jpg,00507940519fa_sunacacflqoyxhsqzhe.jpg,00892960530fa.jpg,sunalntxqqadigcletd.jpg,00507940519fa.jpg,sunacacflqoyxhsqzhe.jpg,,,>,Place,,,,,1,,,,,,,o
357,tryAgain,Presentation,7,00809960620fa_sunahbvlpavurqoxdeq.jpg,00776941205fa_sunafxokyavhgptyfye.jpg,00809960620fa.jpg,sunahbvlpavurqoxdeq.jpg,00776941205fa.jpg,sunafxokyavhgptyfye.jpg,,,>,Place,,,,,1,,,,,,,x
358,tryAgain,Presentation,7,00123931230fb_sunaalcrrdbjgdztbiz.jpg,01003960627fb_sunbwdrdvsweerwsdrj.jpg,00123931230fb.jpg,sunaalcrrdbjgdztbiz.jpg,01003960627fb.jpg,sunbwdrdvsweerwsdrj.jpg,,,>,Place,,,,,1,,,,,,,o
359,tryAgain,Presentation,7,00741941201fa_sunaemcowdozyphwknd.jpg,00288940422fa_sunabppokiyglaxpcha.jpg,00741941201fa.jpg,sunaemcowdozyphwknd.jpg,00288940422fa.jpg,sunabppokiyglaxpcha.jpg,,,>,Place,,,,,1,,,,,,,o
360,tryAgain,Memory,7,,,,,,,00988960627fa.jpg,,,,,,,,,,,,,,,
361,tryAgain,Memory,7,,,,,,,01005960627fa.jpg,,,,,,,,,,,,,,,
362,tryAgain,Memory,7,,,,,,,00968960627fa.jpg,,,,,,,,,,,,,,,
363,tryAgain,Memory,7,,,,,,,01002960627fb.jpg,,,,,,,,,,,,,,,
364,tryAgain,Memory,7,,,,,,,sunadikxpvqeabxrvvc.jpg,,,,,,,,,,,,,,,
365,tryAgain,Memory,7,,,,,,,sunbwaafjdebjzttuvq.jpg,,,,,,,,,,,,,,,
366,tryAgain,Memory,7,,,,,,,sunamkmeblgteyggink.jpg,,,,,,,,,,,,,,,
367,tryAgain,Memory,7,,,,,,,00818940307fa.jpg,,,,,,,,,,,,,,,
368,tryAgain,Memory,7,,,,,,,sunbmaiocftdtvnzgap.jpg,,,,,,,,,,,,,,,
369,tryAgain,Memory,7,,,,,,,sunbagfpovqwbuexqdn.jpg,,,,,,,,,,,,,,,
370,tryAgain,Memory,7,,,,,,,00839940307fa.jpg,,,,,,,,,,,,,,,
371,tryAgain,Memory,7,,,,,,,00676941121fa.jpg,,,,,,,,,,,,,,,
372,tryAgain,Memory,7,,,,,,,00271940422fa.jpg,,,,,,,,,,,,,,,
373,tryAgain,Memory,7,,,,,,,sunadsgmtznewzyasnk.jpg,,,,,,,,,,,,,,,
374,tryAgain,Memory,7,,,,,,,sunahpblecxtmuzkmxb.jpg,,,,,,,,,,,,,,,
375,tryAgain,Memory,7,,,,,,,00144931230fb.jpg,,,,,,,,,,,,,,,
376,tryAgain,Memory,7,,,,,,,sunapwjkcxdaeqehfql.jpg,,,,,,,,,,,,,,,
377,tryAgain,Memory,7,,,,,,,00898960530fa.jpg,,,,,,,,,,,,,,,
378,tryAgain,Memory,7,,,,,,,sunafxokyavhgptyfye.jpg,,,,,,,,,,,,,,,
379,tryAgain,Memory,7,,,,,,,00788941205fa.jpg,,,,,,,,,,,,,,,
380,tryAgain,Memory,7,,,,,,,00892960530fa.jpg,,,,,,,,,,,,,,,
381,tryAgain,Memory,7,,,,,,,sunbwyuesflwdpqtgoy.jpg,,,,,,,,,,,,,,,
382,tryAgain,Memory,7,,,,,,,00149931230fa.jpg,,,,,,,,,,,,,,,
383,tryAgain,Memory,7,,,,,,,00532960627fa.jpg,,,,,,,,,,,,,,,
384,tryAgain,Memory,7,,,,,,,sunaipyohrqlwngaqif.jpg,,,,,,,,,,,,,,,
385,tryAgain,Memory,7,,,,,,,00776941205fa.jpg,,,,,,,,,,,,,,,
386,tryAgain,Memory,7,,,,,,,sunaauglwmctnkxyird.jpg,,,,,,,,,,,,,,,
387,tryAgain,Memory,7,,,,,,,00650941031fa.jpg,,,,,,,,,,,,,,,
388,tryAgain,Memory,7,,,,,,,sunabmbnddafmywtjjj.jpg,,,,,,,,,,,,,,,
389,tryAgain,Memory,7,,,,,,,sunagountlxpzkytsmp.jpg,,,,,,,,,,,,,,,
390,tryAgain,Memory,7,,,,,,,01003960627fb.jpg,,,,,,,,,,,,,,,
391,tryAgain,Memory,7,,,,,,,00700941121fa.jpg,,,,,,,,,,,,,,,
392,tryAgain,Memory,7,,,,,,,sunaakmxzhuceuiryah.jpg,,,,,,,,,,,,,,,
393,tryAgain,Memory,7,,,,,,,sunadpnqovzckyikrjo.jpg,,,,,,,,,,,,,,,
394,tryAgain,Memory,7,,,,,,,sunaccdtpgenvcbcbcf.jpg,,,,,,,,,,,,,,,
395,tryAgain,Memory,7,,,,,,,sunalntxqqadigcletd.jpg,,,,,,,,,,,,,,,
396,tryAgain,Memory,7,,,,,,,00115931230fa.jpg,,,,,,,,,,,,,,,
397,tryAgain,Memory,7,,,,,,,sunaathajvxrgptwhoj.jpg,,,,,,,,,,,,,,,
398,tryAgain,Memory,7,,,,,,,sunbwdrdvsweerwsdrj.jpg,,,,,,,,,,,,,,,
399,tryAgain,Memory,7,,,,,,,00933960627fa.jpg,,,,,,,,,,,,,,,
