,Subject,Trial Type,Run,Cued Composite,Uncued Composite,Cued Face,Cued Place,Uncued Face,Uncued Place,Memory Image,Category,Cued Side,Cued Category,Attention Reaction Time (s),Familiarity Reaction Time (s),Familiarity Rating,Attention Level,Cue Validity,Post Invalid Cue,Pre Invalid Cue,Attention Button,Rating History,Stimulus Onset,Stimulus End,Attention Probe
260,23,Memory,5,,,,,,,00874940307fa.jpg,,,,,0.994,3.0,,,,,,,1554922026.631759,1554922030.466894,
261,23,Memory,5,,,,,,,sunbprywzqxjcezkbch.jpg,,,,,1.443,2.0,,,,,,,1554922031.9001,1554922035.852182,
262,23,Memory,5,,,,,,,sunawotxrevnqvamsfp.jpg,,,,,1.11,2.0,,,,,,,1554922037.185481,1554922040.93596,
263,23,Memory,5,,,,,,,sunaafjszryxyavjzln.jpg,,,,,0.976,3.0,,,,,,,1554922042.252743,1554922046.188915,
264,23,Memory,5,,,,,,,00933960627fa.jpg,,,,,0.876,1.0,,,,,,,1554922047.521888,1554922051.372252,
265,23,Memory,5,,,,,,,sunaahedjlmtqekgyvj.jpg,,,,,1.077,2.0,,,,,,,1554922052.673958,1554922056.441158,
266,23,Memory,5,,,,,,,sunbpflsdaxnddnwcqi.jpg,,,,,0.642,1.0,,,,,,,1554922057.758519,1554922061.559732,
267,23,Memory,5,,,,,,,sunajjxttslobudoqbv.jpg,,,,,1.376,4.0,,,,,,,1554922062.876855,1554922066.77745,
268,23,Memory,5,,,,,,,sunaazezcsunmhttzxz.jpg,,,,,0.877,1.0,,,,,,,1554922068.128069,1554922071.913359,
269,23,Memory,5,,,,,,,sunapwjkcxdaeqehfql.jpg,,,,,1.245,2.0,,,,,,,1554922073.23029,1554922077.147483,
270,23,Memory,5,,,,,,,00479940519fa.jpg,,,,,0.677,1.0,,,,,,,1554922078.481494,1554922082.227511,
271,23,Memory,5,,,,,,,00822940307fa.jpg,,,,,0.709,1.0,,,,,,,1554922083.550032,1554922087.385055,
272,23,Memory,5,,,,,,,sunabasphceswhwwqvv.jpg,,,,,1.245,3.0,,,,,,,1554922088.71854,1554922092.068278,
273,23,Memory,5,,,,,,,00990960627fa.jpg,,,,,1.587,3.0,,,,,,,1554922093.386386,1554922095.370518,
274,23,Memory,5,,,,,,,sunaezuszgtxnmsxdbk.jpg,,,,,0.698,1.0,,,,,,,1554922096.704201,1554922098.683471,
275,23,Memory,5,,,,,,,sunajawzbrlrwafowen.jpg,,,,,0.867,2.0,,,,,,,1554922099.968269,1554922101.951913,
276,23,Memory,5,,,,,,,sunaefgzwiramypjvtd.jpg,,,,,1.116,3.0,,,,,,,1554922103.268363,1554922105.253211,
277,23,Memory,5,,,,,,,sunaccdtpgenvcbcbcf.jpg,,,,,1.215,3.0,,,,,,,1554922106.703431,1554922108.68842,
278,23,Memory,5,,,,,,,00780960530fa.jpg,,,,,1.152,2.0,,,,,,,1554922109.971407,1554922111.958516,
279,23,Memory,5,,,,,,,00532960627fa.jpg,,,,,0.832,1.0,,,,,,,1554922113.243334,1554922115.223239,
280,23,Memory,5,,,,,,,00145931230fb.jpg,,,,,0.698,1.0,,,,,,,1554922116.489348,1554922118.473633,
281,23,Memory,5,,,,,,,00198940128fb.jpg,,,,,0.586,1.0,,,,,,,1554922119.740687,1554922121.72696,
282,23,Memory,5,,,,,,,sunabxsbfwjccqxxzxq.jpg,,,,,0.782,4.0,,,,,,,1554922123.025074,1554922125.012034,
283,23,Memory,5,,,,,,,00725941201fa.jpg,,,,,0.936,1.0,,,,,,,1554922126.292416,1554922128.280257,
284,23,Memory,5,,,,,,,00838940307fa.jpg,,,,,1.065,4.0,,,,,,,1554922129.548699,1554922131.913634,
285,23,Memory,5,,,,,,,sunahqrxievfeusiqlt.jpg,,,,,1.435,3.0,,,,,,,1554922133.194508,1554922135.180896,
286,23,Memory,5,,,,,,,sunaiozxhxgtfrmoagh.jpg,,,,,1.003,2.0,,,,,,,1554922136.445861,1554922138.431,
287,23,Memory,5,,,,,,,sunbbegcweqnetpdlrh.jpg,,,,,0.709,1.0,,,,,,,1554922139.719252,1554922143.651983,
288,23,Memory,5,,,,,,,00868960307fa.jpg,,,,,0.81,1.0,,,,,,,1554922144.954326,1554922148.838428,
289,23,Memory,5,,,,,,,00751960620fa.jpg,,,,,0.976,2.0,,,,,,,1554922150.155718,1554922153.923118,
290,23,Memory,5,,,,,,,00971960627fa.jpg,,,,,0.676,1.0,,,,,,,1554922155.240818,1554922159.074202,
291,23,Memory,5,,,,,,,sunaatjesvdupctftmn.jpg,,,,,1.476,1.0,,,,,,,1554922160.393049,1554922163.705456,
292,23,Memory,5,,,,,,,00090931230fa.jpg,,,,,0.86,1.0,,,,,,,1554922164.989294,1554922168.444526,
293,23,Memory,5,,,,,,,00864940307fa.jpg,,,,,0.743,1.0,,,,,,,1554922169.761867,1554922173.678916,
294,23,Memory,5,,,,,,,00211940128fa.jpg,,,,,1.076,1.0,,,,,,,1554922174.996372,1554922178.58046,
295,23,Memory,5,,,,,,,00080931230fb.jpg,,,,,0.877,1.0,,,,,,,1554922179.898311,1554922183.782465,
296,23,Memory,5,,,,,,,sunajtrfunvzdfticna.jpg,,,,,1.111,3.0,,,,,,,1554922185.083812,1554922188.883734,
297,23,Memory,5,,,,,,,00993960627fa.jpg,,,,,0.843,1.0,,,,,,,1554922190.16903,1554922193.985969,
298,23,Memory,5,,,,,,,00961960627fa.jpg,,,,,1.243,1.0,,,,,,,1554922195.304086,1554922199.254275,
299,23,Memory,5,,,,,,,sunagetqixeypsysbpn.jpg,,,,,1.143,3.0,,,,,,,1554922200.588794,1554922204.489113,
