,Subject,Trial Type,Run,Cued Composite,Uncued Composite,Cued Face,Cued Place,Uncued Face,Uncued Place,Memory Image,Category,Cued Side,Cued Category,Attention Response Time (s),Familiarity Reaction Time (s),Familiarity Rating,Attention Level,Cue Validity,Post Invalid Cue,Pre Invalid Cue,Attention Button,Rating History,Stimulus Onset,Stimulus End,Attention Probe
0,20,Presentation,0,00163931230fb_sunaavodbcpygkggnfp.jpg,00777941205fa_sunagcinxkccdtrjmlv.jpg,00163931230fb.jpg,sunaavodbcpygkggnfp.jpg,00777941205fa.jpg,sunagcinxkccdtrjmlv.jpg,,,<,Face,,,,,1,,,,,,,o
1,20,Presentation,0,00854940307fa_sunaiwduelojtwaqeyh.jpg,00131931230fb_sunaangbuylfvckqqoo.jpg,00854940307fa.jpg,sunaiwduelojtwaqeyh.jpg,00131931230fb.jpg,sunaangbuylfvckqqoo.jpg,,,<,Face,,,,,1,,,,,,,x
2,20,Presentation,0,00581940928fa_sunacvzhvcksnwqcqbw.jpg,00898960530fa_sunamkmeblgteyggink.jpg,00581940928fa.jpg,sunacvzhvcksnwqcqbw.jpg,00898960530fa.jpg,sunamkmeblgteyggink.jpg,,,<,Face,,,,,1,,,,,,,o
3,20,Presentation,0,00184940128fa_sunaavtbadenwnzeutj.jpg,00913960530fa_sunaooffzffbhcpirmm.jpg,00184940128fa.jpg,sunaavtbadenwnzeutj.jpg,00913960530fa.jpg,sunaooffzffbhcpirmm.jpg,,,<,Face,,,,,1,,,,,,,o
4,20,Presentation,0,00903960620fa_sunanainkqdvktzoxyl.jpg,00952960627fa_sunathzzbcwjykldrem.jpg,00903960620fa.jpg,sunanainkqdvktzoxyl.jpg,00952960627fa.jpg,sunathzzbcwjykldrem.jpg,,,<,Face,,,,,1,,,,,,,x
5,20,Presentation,0,00925960627fa_sunapqwnqzxlsfvgsjm.jpg,00125931230fa_sunaalltyvjhbzhkmvg.jpg,00925960627fa.jpg,sunapqwnqzxlsfvgsjm.jpg,00125931230fa.jpg,sunaalltyvjhbzhkmvg.jpg,,,<,Face,,,,,0,,,,,,,x
6,20,Presentation,0,00774941201fa_sunafvtpfczkzopbgue.jpg,00276940422fa_sunabmytpyhsgigllxu.jpg,00774941201fa.jpg,sunafvtpfczkzopbgue.jpg,00276940422fa.jpg,sunabmytpyhsgigllxu.jpg,,,<,Face,,,,,1,,,,,,,x
7,20,Presentation,0,00681941121fa_sunadqmjrhfjyuzyvdd.jpg,00136931230fb_sunaanptmsknhirrzed.jpg,00681941121fa.jpg,sunadqmjrhfjyuzyvdd.jpg,00136931230fb.jpg,sunaanptmsknhirrzed.jpg,,,<,Face,,,,,0,,,,,,,o
8,20,Presentation,0,00620940928fa_sunacypmnujalygkunp.jpg,00914960620fa_sunaozisvwfbmlkfhzv.jpg,00620940928fa.jpg,sunacypmnujalygkunp.jpg,00914960620fa.jpg,sunaozisvwfbmlkfhzv.jpg,,,<,Face,,,,,1,,,,,,,x
9,20,Presentation,0,00966960627fa_sunaygrtwrwfezqjizr.jpg,00129931230fb_sunaamsdyakblkfoydx.jpg,00966960627fa.jpg,sunaygrtwrwfezqjizr.jpg,00129931230fb.jpg,sunaamsdyakblkfoydx.jpg,,,<,Face,,,,,1,,,,,,,x
10,20,Memory,0,,,,,,,sunathzzbcwjykldrem.jpg,,,,,,,,,,,,,,,
11,20,Memory,0,,,,,,,sunagmhildamktmqjss.jpg,,,,,,,,,,,,,,,
12,20,Memory,0,,,,,,,00925960627fa.jpg,,,,,,,,,,,,,,,
13,20,Memory,0,,,,,,,00101931230fb.jpg,,,,,,,,,,,,,,,
14,20,Memory,0,,,,,,,00854940307fa.jpg,,,,,,,,,,,,,,,
15,20,Memory,0,,,,,,,suncnkvbhypnivcohyx.jpg,,,,,,,,,,,,,,,
16,20,Memory,0,,,,,,,00784941205fb.jpg,,,,,,,,,,,,,,,
17,20,Memory,0,,,,,,,sunafvtpfczkzopbgue.jpg,,,,,,,,,,,,,,,
18,20,Memory,0,,,,,,,00910960530fa.jpg,,,,,,,,,,,,,,,
19,20,Memory,0,,,,,,,00786941205fa.jpg,,,,,,,,,,,,,,,
20,20,Memory,0,,,,,,,01010960627fa.jpg,,,,,,,,,,,,,,,
21,20,Memory,0,,,,,,,sunacjkmnpawfzbyvae.jpg,,,,,,,,,,,,,,,
22,20,Memory,0,,,,,,,sunaamsdyakblkfoydx.jpg,,,,,,,,,,,,,,,
23,20,Memory,0,,,,,,,00774941201fa.jpg,,,,,,,,,,,,,,,
24,20,Memory,0,,,,,,,sunaofikylqtxphvdem.jpg,,,,,,,,,,,,,,,
25,20,Memory,0,,,,,,,00966960627fa.jpg,,,,,,,,,,,,,,,
26,20,Memory,0,,,,,,,00952960627fa.jpg,,,,,,,,,,,,,,,
27,20,Memory,0,,,,,,,00276940422fa.jpg,,,,,,,,,,,,,,,
28,20,Memory,0,,,,,,,sunbbfqwjpdxniyhies.jpg,,,,,,,,,,,,,,,
29,20,Memory,0,,,,,,,00903960620fa.jpg,,,,,,,,,,,,,,,
30,20,Memory,0,,,,,,,sunaiwduelojtwaqeyh.jpg,,,,,,,,,,,,,,,
31,20,Memory,0,,,,,,,sunahiphsekjihkafsl.jpg,,,,,,,,,,,,,,,
32,20,Memory,0,,,,,,,00914960620fa.jpg,,,,,,,,,,,,,,,
33,20,Memory,0,,,,,,,sunaygrtwrwfezqjizr.jpg,,,,,,,,,,,,,,,
34,20,Memory,0,,,,,,,sunapqwnqzxlsfvgsjm.jpg,,,,,,,,,,,,,,,
35,20,Memory,0,,,,,,,sunbprywzqxjcezkbch.jpg,,,,,,,,,,,,,,,
36,20,Memory,0,,,,,,,sunabmytpyhsgigllxu.jpg,,,,,,,,,,,,,,,
37,20,Memory,0,,,,,,,00129931230fb.jpg,,,,,,,,,,,,,,,
38,20,Memory,0,,,,,,,sunagjzcrjvmxzqzljx.jpg,,,,,,,,,,,,,,,
39,20,Memory,0,,,,,,,00972960627fa.jpg,,,,,,,,,,,,,,,
40,20,Memory,0,,,,,,,sunanainkqdvktzoxyl.jpg,,,,,,,,,,,,,,,
41,20,Memory,0,,,,,,,00815941205fa.jpg,,,,,,,,,,,,,,,
42,20,Memory,0,,,,,,,00898960530fa.jpg,,,,,,,,,,,,,,,
43,20,Memory,0,,,,,,,sunavxokzybtomhbmvm.jpg,,,,,,,,,,,,,,,
44,20,Memory,0,,,,,,,sunamkmeblgteyggink.jpg,,,,,,,,,,,,,,,
45,20,Memory,0,,,,,,,00959960627fa.jpg,,,,,,,,,,,,,,,
46,20,Memory,0,,,,,,,00993960627fa.jpg,,,,,,,,,,,,,,,
47,20,Memory,0,,,,,,,00559940519fa.jpg,,,,,,,,,,,,,,,
48,20,Memory,0,,,,,,,sunaajqmsaavkmgbsth.jpg,,,,,,,,,,,,,,,
49,20,Memory,0,,,,,,,sunaozisvwfbmlkfhzv.jpg,,,,,,,,,,,,,,,
50,20,Presentation,1,00772941201fa_sunafpfpiiujzoesnqg.jpg,00933960627fa_sunapwjkcxdaeqehfql.jpg,00772941201fa.jpg,sunafpfpiiujzoesnqg.jpg,00933960627fa.jpg,sunapwjkcxdaeqehfql.jpg,,,<,Place,,,,,1,,,,,,,o
51,20,Presentation,1,00828940307fa_sunahuynahneraqftyz.jpg,00751960620fa_sunaezuszgtxnmsxdbk.jpg,00828940307fa.jpg,sunahuynahneraqftyz.jpg,00751960620fa.jpg,sunaezuszgtxnmsxdbk.jpg,,,<,Place,,,,,1,,,,,,,x
52,20,Presentation,1,00481940519fa_sunabxsuqbleluwczoy.jpg,00778941205fa_sunagcthdfirrcawoic.jpg,00481940519fa.jpg,sunabxsuqbleluwczoy.jpg,00778941205fa.jpg,sunagcthdfirrcawoic.jpg,,,<,Place,,,,,1,,,,,,,o
53,20,Presentation,1,00965960627fa_sunaydywdmvlfddbxbk.jpg,00482940519fa_sunabyfxcxhdebvdyfd.jpg,00965960627fa.jpg,sunaydywdmvlfddbxbk.jpg,00482940519fa.jpg,sunabyfxcxhdebvdyfd.jpg,,,<,Place,,,,,1,,,,,,,x
54,20,Presentation,1,00908960530fa_sunanwjjyqqwzqrqagd.jpg,00557940519fa_sunachtuarilwyqnvjx.jpg,00908960530fa.jpg,sunanwjjyqqwzqrqagd.jpg,00557940519fa.jpg,sunachtuarilwyqnvjx.jpg,,,<,Place,,,,,1,,,,,,,o
55,20,Presentation,1,00123931230fb_sunaalcrrdbjgdztbiz.jpg,00305940422fa_sunabtrnbvpppgczjim.jpg,00123931230fb.jpg,sunaalcrrdbjgdztbiz.jpg,00305940422fa.jpg,sunabtrnbvpppgczjim.jpg,,,<,Place,,,,,1,,,,,,,x
56,20,Presentation,1,00768941205fa_sunafkmnlytenlsywia.jpg,00967960627fa_sunbaejotfklekvpxcz.jpg,00768941205fa.jpg,sunafkmnlytenlsywia.jpg,00967960627fa.jpg,sunbaejotfklekvpxcz.jpg,,,<,Place,,,,,1,,,,,,,x
57,20,Presentation,1,00816941205fa_sunahmhrncocyhsjpxk.jpg,00936960627fa_sunaqgjuuwvdcyiccjt.jpg,00816941205fa.jpg,sunahmhrncocyhsjpxk.jpg,00936960627fa.jpg,sunaqgjuuwvdcyiccjt.jpg,,,<,Place,,,,,1,,,,,,,o
58,20,Presentation,1,00662941121fa_sunadkazmlajmohnwfl.jpg,00598941031fa_sunacxtcahkymosigud.jpg,00662941121fa.jpg,sunadkazmlajmohnwfl.jpg,00598941031fa.jpg,sunacxtcahkymosigud.jpg,,,<,Place,,,,,1,,,,,,,x
59,20,Presentation,1,00308940422fb_sunabwfvcqqidycwypa.jpg,00985960627fa_sunbgklxeqjhdbyfhhy.jpg,00308940422fb.jpg,sunabwfvcqqidycwypa.jpg,00985960627fa.jpg,sunbgklxeqjhdbyfhhy.jpg,,,<,Place,,,,,1,,,,,,,x
60,20,Memory,1,,,,,,,sunabwfvcqqidycwypa.jpg,,,,,,,,,,,,,,,
61,20,Memory,1,,,,,,,00968960627fa.jpg,,,,,,,,,,,,,,,
62,20,Memory,1,,,,,,,00969960627fa.jpg,,,,,,,,,,,,,,,
63,20,Memory,1,,,,,,,00860940307fa.jpg,,,,,,,,,,,,,,,
64,20,Memory,1,,,,,,,sundahdxwmcdluscvot.jpg,,,,,,,,,,,,,,,
65,20,Memory,1,,,,,,,00816941205fa.jpg,,,,,,,,,,,,,,,
66,20,Memory,1,,,,,,,00841940307fa.jpg,,,,,,,,,,,,,,,
67,20,Memory,1,,,,,,,00848940307fa.jpg,,,,,,,,,,,,,,,
68,20,Memory,1,,,,,,,00931960627fa.jpg,,,,,,,,,,,,,,,
69,20,Memory,1,,,,,,,sunabyfxcxhdebvdyfd.jpg,,,,,,,,,,,,,,,
70,20,Memory,1,,,,,,,sunaptrqvaooxfvktvw.jpg,,,,,,,,,,,,,,,
71,20,Memory,1,,,,,,,sunanwjjyqqwzqrqagd.jpg,,,,,,,,,,,,,,,
72,20,Memory,1,,,,,,,sunaayehfdqcyxggsej.jpg,,,,,,,,,,,,,,,
73,20,Memory,1,,,,,,,sunaecpkgfewqqreqwe.jpg,,,,,,,,,,,,,,,
74,20,Memory,1,,,,,,,sunbaejotfklekvpxcz.jpg,,,,,,,,,,,,,,,
75,20,Memory,1,,,,,,,00908960530fa.jpg,,,,,,,,,,,,,,,
76,20,Memory,1,,,,,,,00194940128fb.jpg,,,,,,,,,,,,,,,
77,20,Memory,1,,,,,,,00598941031fa.jpg,,,,,,,,,,,,,,,
78,20,Memory,1,,,,,,,sunaizeyhvjzknwjudw.jpg,,,,,,,,,,,,,,,
79,20,Memory,1,,,,,,,00967960627fa.jpg,,,,,,,,,,,,,,,
80,20,Memory,1,,,,,,,00482940519fa.jpg,,,,,,,,,,,,,,,
81,20,Memory,1,,,,,,,sunabtrnbvpppgczjim.jpg,,,,,,,,,,,,,,,
82,20,Memory,1,,,,,,,sunacxtcahkymosigud.jpg,,,,,,,,,,,,,,,
83,20,Memory,1,,,,,,,00720960620fa.jpg,,,,,,,,,,,,,,,
84,20,Memory,1,,,,,,,00936960627fa.jpg,,,,,,,,,,,,,,,
85,20,Memory,1,,,,,,,00772941201fa.jpg,,,,,,,,,,,,,,,
86,20,Memory,1,,,,,,,00308940422fb.jpg,,,,,,,,,,,,,,,
87,20,Memory,1,,,,,,,sunbagfpovqwbuexqdn.jpg,,,,,,,,,,,,,,,
88,20,Memory,1,,,,,,,00305940422fa.jpg,,,,,,,,,,,,,,,
89,20,Memory,1,,,,,,,sunaisiwfgppimtnmxl.jpg,,,,,,,,,,,,,,,
90,20,Memory,1,,,,,,,sunahmhrncocyhsjpxk.jpg,,,,,,,,,,,,,,,
91,20,Memory,1,,,,,,,sunaaeowapdkwzqpgqr.jpg,,,,,,,,,,,,,,,
92,20,Memory,1,,,,,,,sunadkazmlajmohnwfl.jpg,,,,,,,,,,,,,,,
93,20,Memory,1,,,,,,,sunaqgjuuwvdcyiccjt.jpg,,,,,,,,,,,,,,,
94,20,Memory,1,,,,,,,00662941121fa.jpg,,,,,,,,,,,,,,,
95,20,Memory,1,,,,,,,00069931230fb.jpg,,,,,,,,,,,,,,,
96,20,Memory,1,,,,,,,01011960627fa.jpg,,,,,,,,,,,,,,,
97,20,Memory,1,,,,,,,sunaivdylrawbmhryfp.jpg,,,,,,,,,,,,,,,
98,20,Memory,1,,,,,,,sunbaoizrfijvhpnnjn.jpg,,,,,,,,,,,,,,,
99,20,Memory,1,,,,,,,sunafpfpiiujzoesnqg.jpg,,,,,,,,,,,,,,,
100,20,Presentation,2,00694941121fa_sunadrmfzmstgdjdcod.jpg,00858940307fa_sunaixpqndlwhwjtjek.jpg,00694941121fa.jpg,sunadrmfzmstgdjdcod.jpg,00858940307fa.jpg,sunaixpqndlwhwjtjek.jpg,,,>,Place,,,,,1,,,,,,,x
101,20,Presentation,2,00901960530fa_sunammbnoambmhdxdwd.jpg,00878960530fa_sunakgbnzxmfohgehnu.jpg,00901960530fa.jpg,sunammbnoambmhdxdwd.jpg,00878960530fa.jpg,sunakgbnzxmfohgehnu.jpg,,,>,Place,,,,,1,,,,,,,x
102,20,Presentation,2,00073931230fa_sunaafbmtoniaasysgu.jpg,00787960620fa_sunagoufulkpsxrmklt.jpg,00073931230fa.jpg,sunaafbmtoniaasysgu.jpg,00787960620fa.jpg,sunagoufulkpsxrmklt.jpg,,,>,Place,,,,,1,,,,,,,o
103,20,Presentation,2,00943960627fa_sunarpsxqkduedrrzyi.jpg,00633940928fa_sunadbhmrgrrpyzglxs.jpg,00943960627fa.jpg,sunarpsxqkduedrrzyi.jpg,00633940928fa.jpg,sunadbhmrgrrpyzglxs.jpg,,,>,Place,,,,,1,,,,,,,o
104,20,Presentation,2,00745941205fa_sunaeouogqolxvggaoq.jpg,00080931230fb_sunaafjszryxyavjzln.jpg,00745941205fa.jpg,sunaeouogqolxvggaoq.jpg,00080931230fb.jpg,sunaafjszryxyavjzln.jpg,,,>,Place,,,,,1,,,,,,,x
105,20,Presentation,2,00316940422fa_sunabxmguapjekttvwm.jpg,00986960627fa_sunbgzjryivyczuvkvm.jpg,00316940422fa.jpg,sunabxmguapjekttvwm.jpg,00986960627fa.jpg,sunbgzjryivyczuvkvm.jpg,,,>,Place,,,,,1,,,,,,,x
106,20,Presentation,2,00880960530fa_sunakmnfgklupjijsgf.jpg,00805941205fa_sunagwzdbtlixdhgolm.jpg,00880960530fa.jpg,sunakmnfgklupjijsgf.jpg,00805941205fa.jpg,sunagwzdbtlixdhgolm.jpg,,,>,Place,,,,,1,,,,,,,x
107,20,Presentation,2,00795941205fa_sunagtumacdlmciqamz.jpg,00803941205fa_sunagvxkjokqimstxpe.jpg,00795941205fa.jpg,sunagtumacdlmciqamz.jpg,00803941205fa.jpg,sunagvxkjokqimstxpe.jpg,,,>,Place,,,,,1,,,,,,,o
108,20,Presentation,2,00631940928fa_sunadbdqzigzwipuipr.jpg,00158931230fb_sunaavchcbptaerhcfy.jpg,00631940928fa.jpg,sunadbdqzigzwipuipr.jpg,00158931230fb.jpg,sunaavchcbptaerhcfy.jpg,,,>,Place,,,,,1,,,,,,,x
109,20,Presentation,2,00267940128fb_sunablfqiwfqomjarht.jpg,00983960627fa_sunbfyvfqiimvdaxlqn.jpg,00267940128fb.jpg,sunablfqiwfqomjarht.jpg,00983960627fa.jpg,sunbfyvfqiimvdaxlqn.jpg,,,>,Place,,,,,1,,,,,,,x
110,20,Memory,2,,,,,,,sunadsgmtznewzyasnk.jpg,,,,,,,,,,,,,,,
111,20,Memory,2,,,,,,,00943960627fa.jpg,,,,,,,,,,,,,,,
112,20,Memory,2,,,,,,,00787960620fa.jpg,,,,,,,,,,,,,,,
113,20,Memory,2,,,,,,,00648941031fa.jpg,,,,,,,,,,,,,,,
114,20,Memory,2,,,,,,,sunarpsxqkduedrrzyi.jpg,,,,,,,,,,,,,,,
115,20,Memory,2,,,,,,,00810941205fa.jpg,,,,,,,,,,,,,,,
116,20,Memory,2,,,,,,,sunafgzgbisbopcyslr.jpg,,,,,,,,,,,,,,,
117,20,Memory,2,,,,,,,sunaafjszryxyavjzln.jpg,,,,,,,,,,,,,,,
118,20,Memory,2,,,,,,,sunagtumacdlmciqamz.jpg,,,,,,,,,,,,,,,
119,20,Memory,2,,,,,,,sunadfndyrtqqiasoig.jpg,,,,,,,,,,,,,,,
120,20,Memory,2,,,,,,,00633940928fa.jpg,,,,,,,,,,,,,,,
121,20,Memory,2,,,,,,,00700941121fa.jpg,,,,,,,,,,,,,,,
122,20,Memory,2,,,,,,,sunawotxrevnqvamsfp.jpg,,,,,,,,,,,,,,,
123,20,Memory,2,,,,,,,sunahctntqrunhdxhtb.jpg,,,,,,,,,,,,,,,
124,20,Memory,2,,,,,,,00880960530fa.jpg,,,,,,,,,,,,,,,
125,20,Memory,2,,,,,,,00694941121fa.jpg,,,,,,,,,,,,,,,
126,20,Memory,2,,,,,,,sunaaehaikpckyjsety.jpg,,,,,,,,,,,,,,,
127,20,Memory,2,,,,,,,sunakgbnzxmfohgehnu.jpg,,,,,,,,,,,,,,,
128,20,Memory,2,,,,,,,sunacacflqoyxhsqzhe.jpg,,,,,,,,,,,,,,,
129,20,Memory,2,,,,,,,sunacbeefkxpymwevpk.jpg,,,,,,,,,,,,,,,
130,20,Memory,2,,,,,,,00221940128fa.jpg,,,,,,,,,,,,,,,
131,20,Memory,2,,,,,,,00507940519fa.jpg,,,,,,,,,,,,,,,
132,20,Memory,2,,,,,,,sunagoufulkpsxrmklt.jpg,,,,,,,,,,,,,,,
133,20,Memory,2,,,,,,,00901960530fa.jpg,,,,,,,,,,,,,,,
134,20,Memory,2,,,,,,,sunaatjesvdupctftmn.jpg,,,,,,,,,,,,,,,
135,20,Memory,2,,,,,,,sunakmnfgklupjijsgf.jpg,,,,,,,,,,,,,,,
136,20,Memory,2,,,,,,,sunagwzdbtlixdhgolm.jpg,,,,,,,,,,,,,,,
137,20,Memory,2,,,,,,,00762941201fa.jpg,,,,,,,,,,,,,,,
138,20,Memory,2,,,,,,,00060931230fa.jpg,,,,,,,,,,,,,,,
139,20,Memory,2,,,,,,,sunammbnoambmhdxdwd.jpg,,,,,,,,,,,,,,,
140,20,Memory,2,,,,,,,00878960530fa.jpg,,,,,,,,,,,,,,,
141,20,Memory,2,,,,,,,00529940519fa.jpg,,,,,,,,,,,,,,,
142,20,Memory,2,,,,,,,sunabcfpwlpolnutyju.jpg,,,,,,,,,,,,,,,
143,20,Memory,2,,,,,,,00145931230fb.jpg,,,,,,,,,,,,,,,
144,20,Memory,2,,,,,,,sunadbhmrgrrpyzglxs.jpg,,,,,,,,,,,,,,,
145,20,Memory,2,,,,,,,00080931230fb.jpg,,,,,,,,,,,,,,,
146,20,Memory,2,,,,,,,00961960627fa.jpg,,,,,,,,,,,,,,,
147,20,Memory,2,,,,,,,00805941205fa.jpg,,,,,,,,,,,,,,,
148,20,Memory,2,,,,,,,00795941205fa.jpg,,,,,,,,,,,,,,,
149,20,Memory,2,,,,,,,sunadrmfzmstgdjdcod.jpg,,,,,,,,,,,,,,,
150,20,Presentation,3,00082931230fa_sunaafvitpexrpvumsa.jpg,00635941031fa_sunaddsaeicthrfbkhe.jpg,00082931230fa.jpg,sunaafvitpexrpvumsa.jpg,00635941031fa.jpg,sunaddsaeicthrfbkhe.jpg,,,>,Face,,,,,1,,,,,,,o
151,20,Presentation,3,00098931230fa_sunaajpqmulidejvjsr.jpg,00947960627fa_sunasmmcxdddtmtazwx.jpg,00098931230fa.jpg,sunaajpqmulidejvjsr.jpg,00947960627fa.jpg,sunasmmcxdddtmtazwx.jpg,,,>,Face,,,,,1,,,,,,,o
152,20,Presentation,3,00197940128fa_sunaaylzyqlqrsmfwif.jpg,00705960530fa_sunaduslxfzlbxlllnz.jpg,00197940128fa.jpg,sunaaylzyqlqrsmfwif.jpg,00705960530fa.jpg,sunaduslxfzlbxlllnz.jpg,,,>,Face,,,,,1,,,,,,,o
153,20,Presentation,3,00598940928fa_sunacxeheuiigkcgquf.jpg,00650941031fa_sunadikxpvqeabxrvvc.jpg,00598940928fa.jpg,sunacxeheuiigkcgquf.jpg,00650941031fa.jpg,sunadikxpvqeabxrvvc.jpg,,,>,Face,,,,,1,,,,,,,o
154,20,Presentation,3,00554940519fa_sunacfdkbsrughwqwtt.jpg,00804960530fa_sunagwswhkvnsmuszlz.jpg,00554940519fa.jpg,sunacfdkbsrughwqwtt.jpg,00804960530fa.jpg,sunagwswhkvnsmuszlz.jpg,,,>,Face,,,,,0,,,,,,,o
155,20,Presentation,3,00314940422fa_sunabwmcbaxwioksdgw.jpg,00265940128fb_sunabkmdplkdbvxriff.jpg,00314940422fa.jpg,sunabwmcbaxwioksdgw.jpg,00265940128fb.jpg,sunabkmdplkdbvxriff.jpg,,,>,Face,,,,,1,,,,,,,x
156,20,Presentation,3,01009960627fa_sunbxzweleltykebgan.jpg,00827940307fa_sunahtfxgsrmkiulnwk.jpg,01009960627fa.jpg,sunbxzweleltykebgan.jpg,00827940307fa.jpg,sunahtfxgsrmkiulnwk.jpg,,,>,Face,,,,,1,,,,,,,x
157,20,Presentation,3,00124931230fa_sunaalhlvzmjmitybdn.jpg,00630941031fa_sunadakkdovnuzlycvp.jpg,00124931230fa.jpg,sunaalhlvzmjmitybdn.jpg,00630941031fa.jpg,sunadakkdovnuzlycvp.jpg,,,>,Face,,,,,1,,,,,,,o
158,20,Presentation,3,00063931230fa_sunaaelyvurpntclgau.jpg,00262940128fa_sunabizydfotqddlnjp.jpg,00063931230fa.jpg,sunaaelyvurpntclgau.jpg,00262940128fa.jpg,sunabizydfotqddlnjp.jpg,,,>,Face,,,,,1,,,,,,,o
159,20,Presentation,3,00096931230fa_sunaaiqiqcggrskoqgy.jpg,00638941031fa_sunadfktsqjthoglcsm.jpg,00096931230fa.jpg,sunaaiqiqcggrskoqgy.jpg,00638941031fa.jpg,sunadfktsqjthoglcsm.jpg,,,>,Face,,,,,1,,,,,,,x
160,20,Memory,3,,,,,,,sunagdzlvkqtpnfxfcg.jpg,,,,,,,,,,,,,,,
161,20,Memory,3,,,,,,,sunaajayojuslbbnneg.jpg,,,,,,,,,,,,,,,
162,20,Memory,3,,,,,,,00063931230fa.jpg,,,,,,,,,,,,,,,
163,20,Memory,3,,,,,,,00193940928fa.jpg,,,,,,,,,,,,,,,
164,20,Memory,3,,,,,,,sunacwggadqsfpovdjv.jpg,,,,,,,,,,,,,,,
165,20,Memory,3,,,,,,,sunaeuzwggvibufclwf.jpg,,,,,,,,,,,,,,,
166,20,Memory,3,,,,,,,sunacfdkbsrughwqwtt.jpg,,,,,,,,,,,,,,,
167,20,Memory,3,,,,,,,00635941031fa.jpg,,,,,,,,,,,,,,,
168,20,Memory,3,,,,,,,00638941031fa.jpg,,,,,,,,,,,,,,,
169,20,Memory,3,,,,,,,sunaaeplwsfslcbtojr.jpg,,,,,,,,,,,,,,,
170,20,Memory,3,,,,,,,sunaqyylsngywqzwfmx.jpg,,,,,,,,,,,,,,,
171,20,Memory,3,,,,,,,00650941031fa.jpg,,,,,,,,,,,,,,,
172,20,Memory,3,,,,,,,sunaalhlvzmjmitybdn.jpg,,,,,,,,,,,,,,,
173,20,Memory,3,,,,,,,00070940307fa.jpg,,,,,,,,,,,,,,,
174,20,Memory,3,,,,,,,sunabkmdplkdbvxriff.jpg,,,,,,,,,,,,,,,
175,20,Memory,3,,,,,,,sunaaiqiqcggrskoqgy.jpg,,,,,,,,,,,,,,,
176,20,Memory,3,,,,,,,sunaaxjpzcnxligjtjq.jpg,,,,,,,,,,,,,,,
177,20,Memory,3,,,,,,,sunadikxpvqeabxrvvc.jpg,,,,,,,,,,,,,,,
178,20,Memory,3,,,,,,,00097931230fa.jpg,,,,,,,,,,,,,,,
179,20,Memory,3,,,,,,,00719941201fa.jpg,,,,,,,,,,,,,,,
180,20,Memory,3,,,,,,,sunadvithllcgmfxsrn.jpg,,,,,,,,,,,,,,,
181,20,Memory,3,,,,,,,00096931230fa.jpg,,,,,,,,,,,,,,,
182,20,Memory,3,,,,,,,00265940128fb.jpg,,,,,,,,,,,,,,,
183,20,Memory,3,,,,,,,sunaaelyvurpntclgau.jpg,,,,,,,,,,,,,,,
184,20,Memory,3,,,,,,,00554940519fa.jpg,,,,,,,,,,,,,,,
185,20,Memory,3,,,,,,,sunadfktsqjthoglcsm.jpg,,,,,,,,,,,,,,,
186,20,Memory,3,,,,,,,00938960627fa.jpg,,,,,,,,,,,,,,,
187,20,Memory,3,,,,,,,sunadzuvtmtmgupotmf.jpg,,,,,,,,,,,,,,,
188,20,Memory,3,,,,,,,00098931230fa.jpg,,,,,,,,,,,,,,,
189,20,Memory,3,,,,,,,00719960620fa.jpg,,,,,,,,,,,,,,,
190,20,Memory,3,,,,,,,00947960627fa.jpg,,,,,,,,,,,,,,,
191,20,Memory,3,,,,,,,00589940928fa.jpg,,,,,,,,,,,,,,,
192,20,Memory,3,,,,,,,sunbvbrvgbpanfrawft.jpg,,,,,,,,,,,,,,,
193,20,Memory,3,,,,,,,00779941205fa.jpg,,,,,,,,,,,,,,,
194,20,Memory,3,,,,,,,00124931230fa.jpg,,,,,,,,,,,,,,,
195,20,Memory,3,,,,,,,00750941201fa.jpg,,,,,,,,,,,,,,,
196,20,Memory,3,,,,,,,sunaajpqmulidejvjsr.jpg,,,,,,,,,,,,,,,
197,20,Memory,3,,,,,,,00999960627fa.jpg,,,,,,,,,,,,,,,
198,20,Memory,3,,,,,,,sunasmmcxdddtmtazwx.jpg,,,,,,,,,,,,,,,
199,20,Memory,3,,,,,,,sunaddsaeicthrfbkhe.jpg,,,,,,,,,,,,,,,
200,20,Presentation,4,00144931230fb_sunaathajvxrgptwhoj.jpg,00061931230fb_sunaaekxzjzrfgtkwjf.jpg,00144931230fb.jpg,sunaathajvxrgptwhoj.jpg,00061931230fb.jpg,sunaaekxzjzrfgtkwjf.jpg,,,>,Place,,,,,1,,,,,,,o
201,20,Presentation,4,00132931230fb_sunaanjcbzdvtvblsdy.jpg,00564941031fa_sunacsaovnjezqwbykf.jpg,00132931230fb.jpg,sunaanjcbzdvtvblsdy.jpg,00564941031fa.jpg,sunacsaovnjezqwbykf.jpg,,,>,Place,,,,,1,,,,,,,o
202,20,Presentation,4,00776941205fa_sunafxokyavhgptyfye.jpg,00783941205fa_sunagjeesomrwjsfqie.jpg,00776941205fa.jpg,sunafxokyavhgptyfye.jpg,00783941205fa.jpg,sunagjeesomrwjsfqie.jpg,,,>,Place,,,,,1,,,,,,,x
203,20,Presentation,4,00065931230fb_sunaaemixhfquhnxxlm.jpg,00741941201fa_sunaemcowdozyphwknd.jpg,00065931230fb.jpg,sunaaemixhfquhnxxlm.jpg,00741941201fa.jpg,sunaemcowdozyphwknd.jpg,,,>,Place,,,,,1,,,,,,,x
204,20,Presentation,4,00753941201fa_sunafcofuuzebuadceo.jpg,00812941205fa_sunahgtbwgsmtqeodwh.jpg,00753941201fa.jpg,sunafcofuuzebuadceo.jpg,00812941205fa.jpg,sunahgtbwgsmtqeodwh.jpg,,,>,Place,,,,,1,,,,,,,o
205,20,Presentation,4,00670941121fa_sunadochqcucscehsgk.jpg,00887960530_sunalcrtwiycqobgelp.jpg,00670941121fa.jpg,sunadochqcucscehsgk.jpg,00887960530.jpg,sunalcrtwiycqobgelp.jpg,,,>,Place,,,,,1,,,,,,,o
206,20,Presentation,4,00955960627fb_sunauburywlkjszngcq.jpg,00302940422fa_sunabtlfmiwtljmoues.jpg,00955960627fb.jpg,sunauburywlkjszngcq.jpg,00302940422fa.jpg,sunabtlfmiwtljmoues.jpg,,,>,Place,,,,,1,,,,,,,o
207,20,Presentation,4,00793941205fa_sunagtjwilqjvxohypn.jpg,00909960530_sunaobtizabegtwfwul.jpg,00793941205fa.jpg,sunagtjwilqjvxohypn.jpg,00909960530.jpg,sunaobtizabegtwfwul.jpg,,,>,Place,,,,,1,,,,,,,o
208,20,Presentation,4,00871940307_sunajrujcsdxmfbssmc.jpg,00647941031fa_sunadflbrkckmepztql.jpg,00871940307.jpg,sunajrujcsdxmfbssmc.jpg,00647941031fa.jpg,sunadflbrkckmepztql.jpg,,,>,Place,,,,,1,,,,,,,x
209,20,Presentation,4,00771941205fa_sunafowswglhxcsufpo.jpg,00705941205fa_sunadtlxenqqxsyjvix.jpg,00771941205fa.jpg,sunafowswglhxcsufpo.jpg,00705941205fa.jpg,sunadtlxenqqxsyjvix.jpg,,,>,Place,,,,,1,,,,,,,x
210,20,Memory,4,,,,,,,00776941205fa.jpg,,,,,,,,,,,,,,,
211,20,Memory,4,,,,,,,sunaiycurtqsfkvcaso.jpg,,,,,,,,,,,,,,,
212,20,Memory,4,,,,,,,00909960530.jpg,,,,,,,,,,,,,,,
213,20,Memory,4,,,,,,,sunapqkpqdfvxlbqwyo.jpg,,,,,,,,,,,,,,,
214,20,Memory,4,,,,,,,sunaemcowdozyphwknd.jpg,,,,,,,,,,,,,,,
215,20,Memory,4,,,,,,,00741941201fa.jpg,,,,,,,,,,,,,,,
216,20,Memory,4,,,,,,,00090931230fa.jpg,,,,,,,,,,,,,,,
217,20,Memory,4,,,,,,,00227940128fa.jpg,,,,,,,,,,,,,,,
218,20,Memory,4,,,,,,,00543940519fa.jpg,,,,,,,,,,,,,,,
219,20,Memory,4,,,,,,,sunafcofuuzebuadceo.jpg,,,,,,,,,,,,,,,
220,20,Memory,4,,,,,,,00211940128fa.jpg,,,,,,,,,,,,,,,
221,20,Memory,4,,,,,,,00859940307fa.jpg,,,,,,,,,,,,,,,
222,20,Memory,4,,,,,,,sunacepzfrmtkiqonpy.jpg,,,,,,,,,,,,,,,
223,20,Memory,4,,,,,,,sunauburywlkjszngcq.jpg,,,,,,,,,,,,,,,
224,20,Memory,4,,,,,,,sunaaexqbtdswxrqjvz.jpg,,,,,,,,,,,,,,,
225,20,Memory,4,,,,,,,sunafxokyavhgptyfye.jpg,,,,,,,,,,,,,,,
226,20,Memory,4,,,,,,,sunaobtizabegtwfwul.jpg,,,,,,,,,,,,,,,
227,20,Memory,4,,,,,,,sunagtjwilqjvxohypn.jpg,,,,,,,,,,,,,,,
228,20,Memory,4,,,,,,,00061931230fb.jpg,,,,,,,,,,,,,,,
229,20,Memory,4,,,,,,,sunaaekxzjzrfgtkwjf.jpg,,,,,,,,,,,,,,,
230,20,Memory,4,,,,,,,00887960530.jpg,,,,,,,,,,,,,,,
231,20,Memory,4,,,,,,,sunabasphceswhwwqvv.jpg,,,,,,,,,,,,,,,
232,20,Memory,4,,,,,,,00754941201fa.jpg,,,,,,,,,,,,,,,
233,20,Memory,4,,,,,,,sunahbvlpavurqoxdeq.jpg,,,,,,,,,,,,,,,
234,20,Memory,4,,,,,,,00071941031fa.jpg,,,,,,,,,,,,,,,
235,20,Memory,4,,,,,,,00809960620fa.jpg,,,,,,,,,,,,,,,
236,20,Memory,4,,,,,,,00132931230fb.jpg,,,,,,,,,,,,,,,
237,20,Memory,4,,,,,,,00753941201fa.jpg,,,,,,,,,,,,,,,
238,20,Memory,4,,,,,,,sunaffgsyyvoqdlkmnk.jpg,,,,,,,,,,,,,,,
239,20,Memory,4,,,,,,,sunabckqabszusgcykj.jpg,,,,,,,,,,,,,,,
240,20,Memory,4,,,,,,,00783941205fa.jpg,,,,,,,,,,,,,,,
241,20,Memory,4,,,,,,,sunagjeesomrwjsfqie.jpg,,,,,,,,,,,,,,,
242,20,Memory,4,,,,,,,00793941205fa.jpg,,,,,,,,,,,,,,,
243,20,Memory,4,,,,,,,sunaahedjlmtqekgyvj.jpg,,,,,,,,,,,,,,,
244,20,Memory,4,,,,,,,sunaeisnjeetzmkbuad.jpg,,,,,,,,,,,,,,,
245,20,Memory,4,,,,,,,00955960627fb.jpg,,,,,,,,,,,,,,,
246,20,Memory,4,,,,,,,00727941205fa.jpg,,,,,,,,,,,,,,,
247,20,Memory,4,,,,,,,00921960627fa.jpg,,,,,,,,,,,,,,,
248,20,Memory,4,,,,,,,sunaanjcbzdvtvblsdy.jpg,,,,,,,,,,,,,,,
249,20,Memory,4,,,,,,,sunalcrtwiycqobgelp.jpg,,,,,,,,,,,,,,,
250,20,Presentation,5,00978960627fa_sunbddbivbptlrlauhy.jpg,00191940128fb_sunaawsdjisukbbginm.jpg,00978960627fa.jpg,sunbddbivbptlrlauhy.jpg,00191940128fb.jpg,sunaawsdjisukbbginm.jpg,,,>,Face,,,,,1,,,,,,,o
251,20,Presentation,5,00112931230fa_sunaakjaacuzulqckgl.jpg,00676941121fa_sunadpnqovzckyikrjo.jpg,00112931230fa.jpg,sunaakjaacuzulqckgl.jpg,00676941121fa.jpg,sunadpnqovzckyikrjo.jpg,,,>,Face,,,,,0,,,,,,,o
252,20,Presentation,5,00239940128fa_sunabctlikybqabezjv.jpg,00126931230fb_sunaamdjwemxpmmtypi.jpg,00239940128fa.jpg,sunabctlikybqabezjv.jpg,00126931230fb.jpg,sunaamdjwemxpmmtypi.jpg,,,>,Face,,,,,1,,,,,,,x
253,20,Presentation,5,00775941205fa_sunafvwfsmqkjrutjta.jpg,00744941201fa_sunaeomlfaabhpswasy.jpg,00775941205fa.jpg,sunafvwfsmqkjrutjta.jpg,00744941201fa.jpg,sunaeomlfaabhpswasy.jpg,,,>,Face,,,,,1,,,,,,,x
254,20,Presentation,5,00790941205fa_sunagpjzsbltchlwvou.jpg,00884960530fa_sunakodkcslgqhqlgwl.jpg,00790941205fa.jpg,sunagpjzsbltchlwvou.jpg,00884960530fa.jpg,sunakodkcslgqhqlgwl.jpg,,,>,Face,,,,,1,,,,,,,o
255,20,Presentation,5,00479940519fa_sunabxsbfwjccqxxzxq.jpg,00062931230fb_sunaaelotvjgibjtjhs.jpg,00479940519fa.jpg,sunabxsbfwjccqxxzxq.jpg,00062931230fb.jpg,sunaaelotvjgibjtjhs.jpg,,,>,Face,,,,,0,,,,,,,o
256,20,Presentation,5,00609940928fa_sunacycdoztxoluxjyk.jpg,00950960627fa_sunasrjlmglmjzbmqxb.jpg,00609940928fa.jpg,sunacycdoztxoluxjyk.jpg,00950960627fa.jpg,sunasrjlmglmjzbmqxb.jpg,,,>,Face,,,,,0,,,,,,,o
257,20,Presentation,5,00836940307fa_sunainqelldeebvxtcz.jpg,00900960530fa_sunamlotskmmsjeogby.jpg,00836940307fa.jpg,sunainqelldeebvxtcz.jpg,00900960530fa.jpg,sunamlotskmmsjeogby.jpg,,,>,Face,,,,,1,,,,,,,x
258,20,Presentation,5,01003960627fb_sunbwdrdvsweerwsdrj.jpg,00977960627fa_sunbbxkanhzjgbwyxqs.jpg,01003960627fb.jpg,sunbwdrdvsweerwsdrj.jpg,00977960627fa.jpg,sunbbxkanhzjgbwyxqs.jpg,,,>,Face,,,,,1,,,,,,,x
259,20,Presentation,5,00747941201fa_sunaeutbrtswvsozxyk.jpg,00266940128fb_sunabkngeblodihjvbk.jpg,00747941201fa.jpg,sunaeutbrtswvsozxyk.jpg,00266940128fb.jpg,sunabkngeblodihjvbk.jpg,,,>,Face,,,,,0,,,,,,,o
260,20,Memory,5,,,,,,,00676941121fa.jpg,,,,,,,,,,,,,,,
261,20,Memory,5,,,,,,,sunaeomlfaabhpswasy.jpg,,,,,,,,,,,,,,,
262,20,Memory,5,,,,,,,sunainqelldeebvxtcz.jpg,,,,,,,,,,,,,,,
263,20,Memory,5,,,,,,,sunabgfhvifeijihhjw.jpg,,,,,,,,,,,,,,,
264,20,Memory,5,,,,,,,00790941205fa.jpg,,,,,,,,,,,,,,,
265,20,Memory,5,,,,,,,sunaawqdbpihmlbwyyn.jpg,,,,,,,,,,,,,,,
266,20,Memory,5,,,,,,,sunadpnqovzckyikrjo.jpg,,,,,,,,,,,,,,,
267,20,Memory,5,,,,,,,00266940128fb.jpg,,,,,,,,,,,,,,,
268,20,Memory,5,,,,,,,sunajxpkuhbizeveguy.jpg,,,,,,,,,,,,,,,
269,20,Memory,5,,,,,,,00775941205fa.jpg,,,,,,,,,,,,,,,
270,20,Memory,5,,,,,,,00062931230fb.jpg,,,,,,,,,,,,,,,
271,20,Memory,5,,,,,,,sunbbxkanhzjgbwyxqs.jpg,,,,,,,,,,,,,,,
272,20,Memory,5,,,,,,,00479940519fa.jpg,,,,,,,,,,,,,,,
273,20,Memory,5,,,,,,,sunabkngeblodihjvbk.jpg,,,,,,,,,,,,,,,
274,20,Memory,5,,,,,,,00836940307fa.jpg,,,,,,,,,,,,,,,
275,20,Memory,5,,,,,,,00978960627fa.jpg,,,,,,,,,,,,,,,
276,20,Memory,5,,,,,,,sunaaelotvjgibjtjhs.jpg,,,,,,,,,,,,,,,
277,20,Memory,5,,,,,,,00977960627fa.jpg,,,,,,,,,,,,,,,
278,20,Memory,5,,,,,,,sunabxsbfwjccqxxzxq.jpg,,,,,,,,,,,,,,,
279,20,Memory,5,,,,,,,sunalqmfgeadpqsyzpd.jpg,,,,,,,,,,,,,,,
280,20,Memory,5,,,,,,,sunacsdhbbsybcyxnel.jpg,,,,,,,,,,,,,,,
281,20,Memory,5,,,,,,,sunaagcpoejbuzyvddd.jpg,,,,,,,,,,,,,,,
282,20,Memory,5,,,,,,,sunaazzyhbvqjpmazjq.jpg,,,,,,,,,,,,,,,
283,20,Memory,5,,,,,,,00119931230fb.jpg,,,,,,,,,,,,,,,
284,20,Memory,5,,,,,,,sunagpjzsbltchlwvou.jpg,,,,,,,,,,,,,,,
285,20,Memory,5,,,,,,,00260940128fa.jpg,,,,,,,,,,,,,,,
286,20,Memory,5,,,,,,,00794960620fa.jpg,,,,,,,,,,,,,,,
287,20,Memory,5,,,,,,,00089931230fa.jpg,,,,,,,,,,,,,,,
288,20,Memory,5,,,,,,,sunaakvmbftkrgqhjun.jpg,,,,,,,,,,,,,,,
289,20,Memory,5,,,,,,,00894960620fa.jpg,,,,,,,,,,,,,,,
290,20,Memory,5,,,,,,,00885960530fa.jpg,,,,,,,,,,,,,,,
291,20,Memory,5,,,,,,,00208940128fa.jpg,,,,,,,,,,,,,,,
292,20,Memory,5,,,,,,,sunbddbivbptlrlauhy.jpg,,,,,,,,,,,,,,,
293,20,Memory,5,,,,,,,00744941201fa.jpg,,,,,,,,,,,,,,,
294,20,Memory,5,,,,,,,00568940928fa.jpg,,,,,,,,,,,,,,,
295,20,Memory,5,,,,,,,sunafvwfsmqkjrutjta.jpg,,,,,,,,,,,,,,,
296,20,Memory,5,,,,,,,sunagtqhhwxjeuxdebe.jpg,,,,,,,,,,,,,,,
297,20,Memory,5,,,,,,,00185940422fb.jpg,,,,,,,,,,,,,,,
298,20,Memory,5,,,,,,,sunakwlvxjpddialozd.jpg,,,,,,,,,,,,,,,
299,20,Memory,5,,,,,,,00877960530fa.jpg,,,,,,,,,,,,,,,
300,20,Presentation,6,00982960627fa_sunbesrwkdsffeogeqq.jpg,01002960627fb_sunbwaafjdebjzttuvq.jpg,00982960627fa.jpg,sunbesrwkdsffeogeqq.jpg,01002960627fb.jpg,sunbwaafjdebjzttuvq.jpg,,,<,Face,,,,,1,,,,,,,o
301,20,Presentation,6,00292940422fb_sunabrjdpmoedcdjbpo.jpg,00970960627fa_sunbasypfgzjtomktmu.jpg,00292940422fb.jpg,sunabrjdpmoedcdjbpo.jpg,00970960627fa.jpg,sunbasypfgzjtomktmu.jpg,,,<,Face,,,,,1,,,,,,,x
302,20,Presentation,6,00949960627fb_sunasnqkkyhilqkxiqm.jpg,00905960530fa_sunanmoqeyprjjjfxjt.jpg,00949960627fb.jpg,sunasnqkkyhilqkxiqm.jpg,00905960530fa.jpg,sunanmoqeyprjjjfxjt.jpg,,,<,Face,,,,,1,,,,,,,x
303,20,Presentation,6,00773941201fa_sunafvcflzhlqloapyo.jpg,00796941205fa_sunaguchqqnrtodtezq.jpg,00773941201fa.jpg,sunafvcflzhlqloapyo.jpg,00796941205fa.jpg,sunaguchqqnrtodtezq.jpg,,,<,Face,,,,,0,,,,,,,x
304,20,Presentation,6,00800941205fb_sunagvjurcwdbixvnyi.jpg,01207940128fa_sundbixjudsgeuuehrn.jpg,00800941205fb.jpg,sunagvjurcwdbixvnyi.jpg,01207940128fa.jpg,sundbixjudsgeuuehrn.jpg,,,<,Face,,,,,1,,,,,,,x
305,20,Presentation,6,00822940307fa_sunahqrxievfeusiqlt.jpg,00505960627fa_sunabzuqsrgcsonqlkz.jpg,00822940307fa.jpg,sunahqrxievfeusiqlt.jpg,00505960627fa.jpg,sunabzuqsrgcsonqlkz.jpg,,,<,Face,,,,,1,,,,,,,x
306,20,Presentation,6,00825940307fa_sunahrltmuwbiehihpe.jpg,00730960620fa_sunaekgzpfilgjxpeyq.jpg,00825940307fa.jpg,sunahrltmuwbiehihpe.jpg,00730960620fa.jpg,sunaekgzpfilgjxpeyq.jpg,,,<,Face,,,,,1,,,,,,,o
307,20,Presentation,6,00866940307fa_sunajbwkywmsqkldfml.jpg,00919960620fa_sunapmfmzadmosuogaz.jpg,00866940307fa.jpg,sunajbwkywmsqkldfml.jpg,00919960620fa.jpg,sunapmfmzadmosuogaz.jpg,,,<,Face,,,,,1,,,,,,,x
308,20,Presentation,6,00162931230fb_sunaavjinpnkappuonm.jpg,00636941031fa_sunaddtdkycxbqlpfqa.jpg,00162931230fb.jpg,sunaavjinpnkappuonm.jpg,00636941031fa.jpg,sunaddtdkycxbqlpfqa.jpg,,,<,Face,,,,,1,,,,,,,o
309,20,Presentation,6,00922960627fa_sunapqkyghktgtosuuk.jpg,00723941201fa_sunaedtgwjvvziytspa.jpg,00922960627fa.jpg,sunapqkyghktgtosuuk.jpg,00723941201fa.jpg,sunaedtgwjvvziytspa.jpg,,,<,Face,,,,,1,,,,,,,o
310,20,Memory,6,,,,,,,sunasnqkkyhilqkxiqm.jpg,,,,,,,,,,,,,,,
311,20,Memory,6,,,,,,,sunbesrwkdsffeogeqq.jpg,,,,,,,,,,,,,,,
312,20,Memory,6,,,,,,,sunanmoqeyprjjjfxjt.jpg,,,,,,,,,,,,,,,
313,20,Memory,6,,,,,,,00505960627fa.jpg,,,,,,,,,,,,,,,
314,20,Memory,6,,,,,,,sunaknlirqjqiwbbeeg.jpg,,,,,,,,,,,,,,,
315,20,Memory,6,,,,,,,00876960620fa.jpg,,,,,,,,,,,,,,,
316,20,Memory,6,,,,,,,00807941205fa.jpg,,,,,,,,,,,,,,,
317,20,Memory,6,,,,,,,sunapmfmzadmosuogaz.jpg,,,,,,,,,,,,,,,
318,20,Memory,6,,,,,,,sunabrjdpmoedcdjbpo.jpg,,,,,,,,,,,,,,,
319,20,Memory,6,,,,,,,01004960627fa.jpg,,,,,,,,,,,,,,,
320,20,Memory,6,,,,,,,sunaatpeezlljqaxlhj.jpg,,,,,,,,,,,,,,,
321,20,Memory,6,,,,,,,00760960620fa.jpg,,,,,,,,,,,,,,,
322,20,Memory,6,,,,,,,sunbasypfgzjtomktmu.jpg,,,,,,,,,,,,,,,
323,20,Memory,6,,,,,,,00799941205fa.jpg,,,,,,,,,,,,,,,
324,20,Memory,6,,,,,,,sunbwtlihsuptkrckid.jpg,,,,,,,,,,,,,,,
325,20,Memory,6,,,,,,,00970960627fa.jpg,,,,,,,,,,,,,,,
326,20,Memory,6,,,,,,,00791941205fa.jpg,,,,,,,,,,,,,,,
327,20,Memory,6,,,,,,,00146960620fb.jpg,,,,,,,,,,,,,,,
328,20,Memory,6,,,,,,,sunagutjvdvnhxejerz.jpg,,,,,,,,,,,,,,,
329,20,Memory,6,,,,,,,00866940307fa.jpg,,,,,,,,,,,,,,,
330,20,Memory,6,,,,,,,01207940128fa.jpg,,,,,,,,,,,,,,,
331,20,Memory,6,,,,,,,sunabzuqsrgcsonqlkz.jpg,,,,,,,,,,,,,,,
332,20,Memory,6,,,,,,,sunagrmyoovzukhxmlo.jpg,,,,,,,,,,,,,,,
333,20,Memory,6,,,,,,,00882960530fa.jpg,,,,,,,,,,,,,,,
334,20,Memory,6,,,,,,,sunabppokiyglaxpcha.jpg,,,,,,,,,,,,,,,
335,20,Memory,6,,,,,,,00949960627fb.jpg,,,,,,,,,,,,,,,
336,20,Memory,6,,,,,,,sunahrltmuwbiehihpe.jpg,,,,,,,,,,,,,,,
337,20,Memory,6,,,,,,,00288940422fa.jpg,,,,,,,,,,,,,,,
338,20,Memory,6,,,,,,,00982960627fa.jpg,,,,,,,,,,,,,,,
339,20,Memory,6,,,,,,,00905960530fa.jpg,,,,,,,,,,,,,,,
340,20,Memory,6,,,,,,,sunabbafjowbzcvbucc.jpg,,,,,,,,,,,,,,,
341,20,Memory,6,,,,,,,sunahawfngukizslzsd.jpg,,,,,,,,,,,,,,,
342,20,Memory,6,,,,,,,sunajwqkfsykceonyig.jpg,,,,,,,,,,,,,,,
343,20,Memory,6,,,,,,,sunajbwkywmsqkldfml.jpg,,,,,,,,,,,,,,,
344,20,Memory,6,,,,,,,00825940307fa.jpg,,,,,,,,,,,,,,,
345,20,Memory,6,,,,,,,00214940128fa.jpg,,,,,,,,,,,,,,,
346,20,Memory,6,,,,,,,sunaffstbkappprzxnv.jpg,,,,,,,,,,,,,,,
347,20,Memory,6,,,,,,,00292940422fb.jpg,,,,,,,,,,,,,,,
348,20,Memory,6,,,,,,,00919960620fa.jpg,,,,,,,,,,,,,,,
349,20,Memory,6,,,,,,,sundbixjudsgeuuehrn.jpg,,,,,,,,,,,,,,,
350,20,Presentation,7,00788941205fa_sunagountlxpzkytsmp.jpg,00911960530fa_sunaooaqzputrowwbsw.jpg,00788941205fa.jpg,sunagountlxpzkytsmp.jpg,00911960530fa.jpg,sunaooaqzputrowwbsw.jpg,,,<,Place,,,,,1,,,,,,,x
351,20,Presentation,7,00780960530fa_sunagetqixeypsysbpn.jpg,00115931230fa_sunaakmxzhuceuiryah.jpg,00780960530fa.jpg,sunagetqixeypsysbpn.jpg,00115931230fa.jpg,sunaakmxzhuceuiryah.jpg,,,<,Place,,,,,1,,,,,,,x
352,20,Presentation,7,00984960627fa_sunbfzchmomnvzhbxdg.jpg,00630940928fa_sunaczwgyukesaajxnx.jpg,00984960627fa.jpg,sunbfzchmomnvzhbxdg.jpg,00630940928fa.jpg,sunaczwgyukesaajxnx.jpg,,,<,Place,,,,,1,,,,,,,o
353,20,Presentation,7,00133931230fa_sunaanlwnpqndclffxt.jpg,00095931230fa_sunaahzooisqkwlxwoz.jpg,00133931230fa.jpg,sunaanlwnpqndclffxt.jpg,00095931230fa.jpg,sunaahzooisqkwlxwoz.jpg,,,<,Place,,,,,1,,,,,,,x
354,20,Presentation,7,00958960627fa_sunavspxmxubqaeidjt.jpg,00263940128fb_sunabjuovqvyfuzvqwt.jpg,00958960627fa.jpg,sunavspxmxubqaeidjt.jpg,00263940128fb.jpg,sunabjuovqvyfuzvqwt.jpg,,,<,Place,,,,,1,,,,,,,x
355,20,Presentation,7,00071940128fa_sunaaexpnawiehinlpy.jpg,00835940307fa_sunaijsqpvodplbwxkf.jpg,00071940128fa.jpg,sunaaexpnawiehinlpy.jpg,00835940307fa.jpg,sunaijsqpvodplbwxkf.jpg,,,<,Place,,,,,1,,,,,,,o
356,20,Presentation,7,00902960530fa_sunanaacmmosxrfwmvl.jpg,00915960620fa_sunapileznnbbmrwoei.jpg,00902960530fa.jpg,sunanaacmmosxrfwmvl.jpg,00915960620fa.jpg,sunapileznnbbmrwoei.jpg,,,<,Place,,,,,1,,,,,,,o
357,20,Presentation,7,00997960627fa_sunbtpilbhhbmhmeuzq.jpg,00929960627fa_sunaprnrbmgkomdbchr.jpg,00997960627fa.jpg,sunbtpilbhhbmhmeuzq.jpg,00929960627fa.jpg,sunaprnrbmgkomdbchr.jpg,,,<,Place,,,,,1,,,,,,,o
358,20,Presentation,7,00108960530fa_sunaajtnvzzpsjdzres.jpg,00102931230fa_sunaajspcoepticvplv.jpg,00108960530fa.jpg,sunaajtnvzzpsjdzres.jpg,00102931230fa.jpg,sunaajspcoepticvplv.jpg,,,<,Place,,,,,1,,,,,,,o
359,20,Presentation,7,00801941205fa_sunagvprlbprarvgdvj.jpg,00819940307fa_sunahqldjibofgsfdgb.jpg,00801941205fa.jpg,sunagvprlbprarvgdvj.jpg,00819940307fa.jpg,sunahqldjibofgsfdgb.jpg,,,<,Place,,,,,1,,,,,,,o
360,20,Memory,7,,,,,,,00630940928fa.jpg,,,,,,,,,,,,,,,
361,20,Memory,7,,,,,,,00210940128fb.jpg,,,,,,,,,,,,,,,
362,20,Memory,7,,,,,,,sunawksfbacycuhbrsc.jpg,,,,,,,,,,,,,,,
363,20,Memory,7,,,,,,,00133931230fa.jpg,,,,,,,,,,,,,,,
364,20,Memory,7,,,,,,,sunaamvxnvouicstkjb.jpg,,,,,,,,,,,,,,,
365,20,Memory,7,,,,,,,sunaauhozyxzeeqstxi.jpg,,,,,,,,,,,,,,,
366,20,Memory,7,,,,,,,00960960627fa.jpg,,,,,,,,,,,,,,,
367,20,Memory,7,,,,,,,00108960530fa.jpg,,,,,,,,,,,,,,,
368,20,Memory,7,,,,,,,sunaczwgyukesaajxnx.jpg,,,,,,,,,,,,,,,
369,20,Memory,7,,,,,,,sunagountlxpzkytsmp.jpg,,,,,,,,,,,,,,,
370,20,Memory,7,,,,,,,sunaajtnvzzpsjdzres.jpg,,,,,,,,,,,,,,,
371,20,Memory,7,,,,,,,sunahqldjibofgsfdgb.jpg,,,,,,,,,,,,,,,
372,20,Memory,7,,,,,,,00153931230fa.jpg,,,,,,,,,,,,,,,
373,20,Memory,7,,,,,,,sunaooaqzputrowwbsw.jpg,,,,,,,,,,,,,,,
374,20,Memory,7,,,,,,,00280940422fb.jpg,,,,,,,,,,,,,,,
375,20,Memory,7,,,,,,,sunaqsolmfydodnakub.jpg,,,,,,,,,,,,,,,
376,20,Memory,7,,,,,,,sunaprnrbmgkomdbchr.jpg,,,,,,,,,,,,,,,
377,20,Memory,7,,,,,,,sunbfzchmomnvzhbxdg.jpg,,,,,,,,,,,,,,,
378,20,Memory,7,,,,,,,00870940307fa.jpg,,,,,,,,,,,,,,,
379,20,Memory,7,,,,,,,sunagetqixeypsysbpn.jpg,,,,,,,,,,,,,,,
380,20,Memory,7,,,,,,,00788941205fa.jpg,,,,,,,,,,,,,,,
381,20,Memory,7,,,,,,,sunacvbrcejzwmcgnoq.jpg,,,,,,,,,,,,,,,
382,20,Memory,7,,,,,,,00984960627fa.jpg,,,,,,,,,,,,,,,
383,20,Memory,7,,,,,,,sunaenwuebvlpdmntju.jpg,,,,,,,,,,,,,,,
384,20,Memory,7,,,,,,,sunaiozxhxgtfrmoagh.jpg,,,,,,,,,,,,,,,
385,20,Memory,7,,,,,,,sunabanoxjtqxamkucc.jpg,,,,,,,,,,,,,,,
386,20,Memory,7,,,,,,,sunajrgtewnualfcerj.jpg,,,,,,,,,,,,,,,
387,20,Memory,7,,,,,,,00574940928fa.jpg,,,,,,,,,,,,,,,
388,20,Memory,7,,,,,,,sunabohxbskznglnrhv.jpg,,,,,,,,,,,,,,,
389,20,Memory,7,,,,,,,00937960627fa.jpg,,,,,,,,,,,,,,,
390,20,Memory,7,,,,,,,00780960530fa.jpg,,,,,,,,,,,,,,,
391,20,Memory,7,,,,,,,00838940307fa.jpg,,,,,,,,,,,,,,,
392,20,Memory,7,,,,,,,sunaanlwnpqndclffxt.jpg,,,,,,,,,,,,,,,
393,20,Memory,7,,,,,,,00130931230fa.jpg,,,,,,,,,,,,,,,
394,20,Memory,7,,,,,,,00742941201fa.jpg,,,,,,,,,,,,,,,
395,20,Memory,7,,,,,,,00929960627fa.jpg,,,,,,,,,,,,,,,
396,20,Memory,7,,,,,,,00911960530fa.jpg,,,,,,,,,,,,,,,
397,20,Memory,7,,,,,,,00915960620fa.jpg,,,,,,,,,,,,,,,
398,20,Memory,7,,,,,,,sunapileznnbbmrwoei.jpg,,,,,,,,,,,,,,,
399,20,Memory,7,,,,,,,00819940307fa.jpg,,,,,,,,,,,,,,,
