,Subject,Trial Type,Run,Cued Composite,Uncued Composite,Cued Face,Cued Place,Uncued Face,Uncued Place,Memory Image,Category,Cued Side,Cued Category,Attention Reaction Time (s),Familiarity Reaction Time (s),Familiarity Rating,Attention Level,Cue Validity,Post Invalid Cue,Pre Invalid Cue,Attention Button,Rating History,Stimulus Onset,Stimulus End,Attention Probe
0,19,Presentation,0,00728941205fa_sunaejnvnpltdmhbcsi.jpg,00635941031fa_sunaddsaeicthrfbkhe.jpg,00728941205fa.jpg,sunaejnvnpltdmhbcsi.jpg,00635941031fa.jpg,sunaddsaeicthrfbkhe.jpg,,,>,Place,,,,,1,,,,,,,o
1,19,Presentation,0,00126931230fb_sunaamdjwemxpmmtypi.jpg,00799941205fa_sunagutjvdvnhxejerz.jpg,00126931230fb.jpg,sunaamdjwemxpmmtypi.jpg,00799941205fa.jpg,sunagutjvdvnhxejerz.jpg,,,>,Place,,,,,1,,,,,,,x
2,19,Presentation,0,00482940519fa_sunabyfxcxhdebvdyfd.jpg,00906960530fa_sunantryfbloeaomfta.jpg,00482940519fa.jpg,sunabyfxcxhdebvdyfd.jpg,00906960530fa.jpg,sunantryfbloeaomfta.jpg,,,>,Place,,,,,1,,,,,,,x
3,19,Presentation,0,00131931230fb_sunaangbuylfvckqqoo.jpg,00957960627fa_sunavhxgmgrqsaptynb.jpg,00131931230fb.jpg,sunaangbuylfvckqqoo.jpg,00957960627fa.jpg,sunavhxgmgrqsaptynb.jpg,,,>,Place,,,,,1,,,,,,,x
4,19,Presentation,0,00959960627fa_sunavxokzybtomhbmvm.jpg,00796941205fa_sunaguchqqnrtodtezq.jpg,00959960627fa.jpg,sunavxokzybtomhbmvm.jpg,00796941205fa.jpg,sunaguchqqnrtodtezq.jpg,,,>,Place,,,,,1,,,,,,,o
5,19,Presentation,0,00841940307fa_sunaisiwfgppimtnmxl.jpg,00786941205fa_sunagmhildamktmqjss.jpg,00841940307fa.jpg,sunaisiwfgppimtnmxl.jpg,00786941205fa.jpg,sunagmhildamktmqjss.jpg,,,>,Place,,,,,1,,,,,,,x
6,19,Presentation,0,01207940128fa_sundbixjudsgeuuehrn.jpg,00136931230fb_sunaanptmsknhirrzed.jpg,01207940128fa.jpg,sundbixjudsgeuuehrn.jpg,00136931230fb.jpg,sunaanptmsknhirrzed.jpg,,,>,Place,,,,,0,,,,,,,o
7,19,Presentation,0,00854940307fa_sunaiwduelojtwaqeyh.jpg,00782941205fa_sunagfvluwixdsozaql.jpg,00854940307fa.jpg,sunaiwduelojtwaqeyh.jpg,00782941205fa.jpg,sunagfvluwixdsozaql.jpg,,,>,Place,,,,,1,,,,,,,x
8,19,Presentation,0,00793941205fa_sunagtjwilqjvxohypn.jpg,00725941201fa_sunaefgzwiramypjvtd.jpg,00793941205fa.jpg,sunagtjwilqjvxohypn.jpg,00725941201fa.jpg,sunaefgzwiramypjvtd.jpg,,,>,Place,,,,,1,,,,,,,x
9,19,Presentation,0,00931960627fa_sunaptrqvaooxfvktvw.jpg,00925960627fa_sunapqwnqzxlsfvgsjm.jpg,00931960627fa.jpg,sunaptrqvaooxfvktvw.jpg,00925960627fa.jpg,sunapqwnqzxlsfvgsjm.jpg,,,>,Place,,,,,1,,,,,,,x
10,19,Memory,0,,,,,,,00829940307fa.jpg,,,,,,,,,,,,,,,
11,19,Memory,0,,,,,,,sunagmhildamktmqjss.jpg,,,,,,,,,,,,,,,
12,19,Memory,0,,,,,,,00811960530fa.jpg,,,,,,,,,,,,,,,
13,19,Memory,0,,,,,,,00793941205fa.jpg,,,,,,,,,,,,,,,
14,19,Memory,0,,,,,,,00783941205fa.jpg,,,,,,,,,,,,,,,
15,19,Memory,0,,,,,,,sunaatjesvdupctftmn.jpg,,,,,,,,,,,,,,,
16,19,Memory,0,,,,,,,00725941201fa.jpg,,,,,,,,,,,,,,,
17,19,Memory,0,,,,,,,sunagtjwilqjvxohypn.jpg,,,,,,,,,,,,,,,
18,19,Memory,0,,,,,,,00482940519fa.jpg,,,,,,,,,,,,,,,
19,19,Memory,0,,,,,,,sunacjkmnpawfzbyvae.jpg,,,,,,,,,,,,,,,
20,19,Memory,0,,,,,,,sunahwgbqkqcrwprgvh.jpg,,,,,,,,,,,,,,,
21,19,Memory,0,,,,,,,00825940307fa.jpg,,,,,,,,,,,,,,,
22,19,Memory,0,,,,,,,sunabtlfmiwtljmoues.jpg,,,,,,,,,,,,,,,
23,19,Memory,0,,,,,,,sunaangbuylfvckqqoo.jpg,,,,,,,,,,,,,,,
24,19,Memory,0,,,,,,,sunabyfxcxhdebvdyfd.jpg,,,,,,,,,,,,,,,
25,19,Memory,0,,,,,,,sunagfvluwixdsozaql.jpg,,,,,,,,,,,,,,,
26,19,Memory,0,,,,,,,sunagjeesomrwjsfqie.jpg,,,,,,,,,,,,,,,
27,19,Memory,0,,,,,,,sunasnqkkyhilqkxiqm.jpg,,,,,,,,,,,,,,,
28,19,Memory,0,,,,,,,00145931230fb.jpg,,,,,,,,,,,,,,,
29,19,Memory,0,,,,,,,sunaamdjwemxpmmtypi.jpg,,,,,,,,,,,,,,,
30,19,Memory,0,,,,,,,00957960627fa.jpg,,,,,,,,,,,,,,,
31,19,Memory,0,,,,,,,sunahedfrhtcwpneund.jpg,,,,,,,,,,,,,,,
32,19,Memory,0,,,,,,,00782941205fa.jpg,,,,,,,,,,,,,,,
33,19,Memory,0,,,,,,,sunaobtizabegtwfwul.jpg,,,,,,,,,,,,,,,
34,19,Memory,0,,,,,,,sundbixjudsgeuuehrn.jpg,,,,,,,,,,,,,,,
35,19,Memory,0,,,,,,,00786941205fa.jpg,,,,,,,,,,,,,,,
36,19,Memory,0,,,,,,,00131931230fb.jpg,,,,,,,,,,,,,,,
37,19,Memory,0,,,,,,,sunavhxgmgrqsaptynb.jpg,,,,,,,,,,,,,,,
38,19,Memory,0,,,,,,,00949960627fb.jpg,,,,,,,,,,,,,,,
39,19,Memory,0,,,,,,,sunahrltmuwbiehihpe.jpg,,,,,,,,,,,,,,,
40,19,Memory,0,,,,,,,sunaefgzwiramypjvtd.jpg,,,,,,,,,,,,,,,
41,19,Memory,0,,,,,,,01207940128fa.jpg,,,,,,,,,,,,,,,
42,19,Memory,0,,,,,,,00089931230fa.jpg,,,,,,,,,,,,,,,
43,19,Memory,0,,,,,,,sunaagcpoejbuzyvddd.jpg,,,,,,,,,,,,,,,
44,19,Memory,0,,,,,,,sunantryfbloeaomfta.jpg,,,,,,,,,,,,,,,
45,19,Memory,0,,,,,,,00126931230fb.jpg,,,,,,,,,,,,,,,
46,19,Memory,0,,,,,,,00909960530.jpg,,,,,,,,,,,,,,,
47,19,Memory,0,,,,,,,00302940422fa.jpg,,,,,,,,,,,,,,,
48,19,Memory,0,,,,,,,00906960530fa.jpg,,,,,,,,,,,,,,,
49,19,Memory,0,,,,,,,00559940519fa.jpg,,,,,,,,,,,,,,,
50,19,Presentation,1,00077931230fb_sunaafgqutfaishsxyu.jpg,00676941121fa_sunadpnqovzckyikrjo.jpg,00077931230fb.jpg,sunaafgqutfaishsxyu.jpg,00676941121fa.jpg,sunadpnqovzckyikrjo.jpg,,,<,Face,,,,,1,,,,,,,x
51,19,Presentation,1,00568940928fa_sunacsdhbbsybcyxnel.jpg,00977960627fa_sunbbxkanhzjgbwyxqs.jpg,00568940928fa.jpg,sunacsdhbbsybcyxnel.jpg,00977960627fa.jpg,sunbbxkanhzjgbwyxqs.jpg,,,<,Face,,,,,1,,,,,,,o
52,19,Presentation,1,00792941205fa_sunagsiwrmuixqgdimb.jpg,00208940128fa_sunaazzyhbvqjpmazjq.jpg,00792941205fa.jpg,sunagsiwrmuixqgdimb.jpg,00208940128fa.jpg,sunaazzyhbvqjpmazjq.jpg,,,<,Face,,,,,1,,,,,,,o
53,19,Presentation,1,00557940519fa_sunachtuarilwyqnvjx.jpg,00116931230fa_sunaakqepfoeqomfgxf.jpg,00557940519fa.jpg,sunachtuarilwyqnvjx.jpg,00116931230fa.jpg,sunaakqepfoeqomfgxf.jpg,,,<,Face,,,,,0,,,,,,,o
54,19,Presentation,1,00787960620fa_sunagoufulkpsxrmklt.jpg,00218940128fa_sunabbwggenhfbftyvi.jpg,00787960620fa.jpg,sunagoufulkpsxrmklt.jpg,00218940128fa.jpg,sunabbwggenhfbftyvi.jpg,,,<,Face,,,,,1,,,,,,,o
55,19,Presentation,1,01009960627fa_sunbxzweleltykebgan.jpg,00818940307fa_sunahpblecxtmuzkmxb.jpg,01009960627fa.jpg,sunbxzweleltykebgan.jpg,00818940307fa.jpg,sunahpblecxtmuzkmxb.jpg,,,<,Face,,,,,1,,,,,,,o
56,19,Presentation,1,00153931230fa_sunaauhozyxzeeqstxi.jpg,00969960627fa_sunbaoizrfijvhpnnjn.jpg,00153931230fa.jpg,sunaauhozyxzeeqstxi.jpg,00969960627fa.jpg,sunbaoizrfijvhpnnjn.jpg,,,<,Face,,,,,1,,,,,,,x
57,19,Presentation,1,00292940422fb_sunabrjdpmoedcdjbpo.jpg,00943960627fa_sunarpsxqkduedrrzyi.jpg,00292940422fb.jpg,sunabrjdpmoedcdjbpo.jpg,00943960627fa.jpg,sunarpsxqkduedrrzyi.jpg,,,<,Face,,,,,1,,,,,,,x
58,19,Presentation,1,00093931230fa_sunaahwnmtqsrhocysw.jpg,00864940307fa_sunajawzbrlrwafowen.jpg,00093931230fa.jpg,sunaahwnmtqsrhocysw.jpg,00864940307fa.jpg,sunajawzbrlrwafowen.jpg,,,<,Face,,,,,1,,,,,,,o
59,19,Presentation,1,00694941121fa_sunadrmfzmstgdjdcod.jpg,00270940422fb_sunabllobxadqcyttej.jpg,00694941121fa.jpg,sunadrmfzmstgdjdcod.jpg,00270940422fb.jpg,sunabllobxadqcyttej.jpg,,,<,Face,,,,,1,,,,,,,o
60,19,Memory,1,,,,,,,00792941205fa.jpg,,,,,,,,,,,,,,,
61,19,Memory,1,,,,,,,00568940928fa.jpg,,,,,,,,,,,,,,,
62,19,Memory,1,,,,,,,00943960627fa.jpg,,,,,,,,,,,,,,,
63,19,Memory,1,,,,,,,00969960627fa.jpg,,,,,,,,,,,,,,,
64,19,Memory,1,,,,,,,00807941205fa.jpg,,,,,,,,,,,,,,,
65,19,Memory,1,,,,,,,sunahawfngukizslzsd.jpg,,,,,,,,,,,,,,,
66,19,Memory,1,,,,,,,sunaizeyhvjzknwjudw.jpg,,,,,,,,,,,,,,,
67,19,Memory,1,,,,,,,00779941205fa.jpg,,,,,,,,,,,,,,,
68,19,Memory,1,,,,,,,sunarpsxqkduedrrzyi.jpg,,,,,,,,,,,,,,,
69,19,Memory,1,,,,,,,sunagdzlvkqtpnfxfcg.jpg,,,,,,,,,,,,,,,
70,19,Memory,1,,,,,,,sunagsiwrmuixqgdimb.jpg,,,,,,,,,,,,,,,
71,19,Memory,1,,,,,,,sunbagfpovqwbuexqdn.jpg,,,,,,,,,,,,,,,
72,19,Memory,1,,,,,,,sunacsdhbbsybcyxnel.jpg,,,,,,,,,,,,,,,
73,19,Memory,1,,,,,,,00977960627fa.jpg,,,,,,,,,,,,,,,
74,19,Memory,1,,,,,,,sunaahwnmtqsrhocysw.jpg,,,,,,,,,,,,,,,
75,19,Memory,1,,,,,,,00093931230fa.jpg,,,,,,,,,,,,,,,
76,19,Memory,1,,,,,,,01009960627fa.jpg,,,,,,,,,,,,,,,
77,19,Memory,1,,,,,,,sunafvcflzhlqloapyo.jpg,,,,,,,,,,,,,,,
78,19,Memory,1,,,,,,,sunaprnrbmgkomdbchr.jpg,,,,,,,,,,,,,,,
79,19,Memory,1,,,,,,,00968960627fa.jpg,,,,,,,,,,,,,,,
80,19,Memory,1,,,,,,,00773941201fa.jpg,,,,,,,,,,,,,,,
81,19,Memory,1,,,,,,,sunabwfvcqqidycwypa.jpg,,,,,,,,,,,,,,,
82,19,Memory,1,,,,,,,sunbaoizrfijvhpnnjn.jpg,,,,,,,,,,,,,,,
83,19,Memory,1,,,,,,,sunbxzweleltykebgan.jpg,,,,,,,,,,,,,,,
84,19,Memory,1,,,,,,,sunachtuarilwyqnvjx.jpg,,,,,,,,,,,,,,,
85,19,Memory,1,,,,,,,sunacacflqoyxhsqzhe.jpg,,,,,,,,,,,,,,,
86,19,Memory,1,,,,,,,00919960620fa.jpg,,,,,,,,,,,,,,,
87,19,Memory,1,,,,,,,00860940307fa.jpg,,,,,,,,,,,,,,,
88,19,Memory,1,,,,,,,00557940519fa.jpg,,,,,,,,,,,,,,,
89,19,Memory,1,,,,,,,sunahpblecxtmuzkmxb.jpg,,,,,,,,,,,,,,,
90,19,Memory,1,,,,,,,00308940422fb.jpg,,,,,,,,,,,,,,,
91,19,Memory,1,,,,,,,sunapmfmzadmosuogaz.jpg,,,,,,,,,,,,,,,
92,19,Memory,1,,,,,,,sunaaehaikpckyjsety.jpg,,,,,,,,,,,,,,,
93,19,Memory,1,,,,,,,00060931230fa.jpg,,,,,,,,,,,,,,,
94,19,Memory,1,,,,,,,sunabbwggenhfbftyvi.jpg,,,,,,,,,,,,,,,
95,19,Memory,1,,,,,,,00818940307fa.jpg,,,,,,,,,,,,,,,
96,19,Memory,1,,,,,,,sunbbxkanhzjgbwyxqs.jpg,,,,,,,,,,,,,,,
97,19,Memory,1,,,,,,,00507940519fa.jpg,,,,,,,,,,,,,,,
98,19,Memory,1,,,,,,,00929960627fa.jpg,,,,,,,,,,,,,,,
99,19,Memory,1,,,,,,,00218940128fa.jpg,,,,,,,,,,,,,,,
100,19,Presentation,2,00633940928fa_sunadbhmrgrrpyzglxs.jpg,00723941201fa_sunaedtgwjvvziytspa.jpg,00633940928fa.jpg,sunadbhmrgrrpyzglxs.jpg,00723941201fa.jpg,sunaedtgwjvvziytspa.jpg,,,>,Face,,,,,1,,,,,,,o
101,19,Presentation,2,00554940519fa_sunacfdkbsrughwqwtt.jpg,00193940928fa_sunaaxjpzcnxligjtjq.jpg,00554940519fa.jpg,sunacfdkbsrughwqwtt.jpg,00193940928fa.jpg,sunaaxjpzcnxligjtjq.jpg,,,>,Face,,,,,1,,,,,,,o
102,19,Presentation,2,00581940928fa_sunacvzhvcksnwqcqbw.jpg,00305940422fa_sunabtrnbvpppgczjim.jpg,00581940928fa.jpg,sunacvzhvcksnwqcqbw.jpg,00305940422fa.jpg,sunabtrnbvpppgczjim.jpg,,,>,Face,,,,,1,,,,,,,x
103,19,Presentation,2,00763941205fa_sunafhmnhsdurlvddpw.jpg,00267940128fb_sunablfqiwfqomjarht.jpg,00763941205fa.jpg,sunafhmnhsdurlvddpw.jpg,00267940128fb.jpg,sunablfqiwfqomjarht.jpg,,,>,Face,,,,,1,,,,,,,o
104,19,Presentation,2,00889960530fa_sunaletopenvvozhpxc.jpg,00752960620fa_sunafbwnojpqeyzssoe.jpg,00889960530fa.jpg,sunaletopenvvozhpxc.jpg,00752960620fa.jpg,sunafbwnojpqeyzssoe.jpg,,,>,Face,,,,,1,,,,,,,x
105,19,Presentation,2,00913960530fa_sunaooffzffbhcpirmm.jpg,00885960530fa_sunakwlvxjpddialozd.jpg,00913960530fa.jpg,sunaooffzffbhcpirmm.jpg,00885960530fa.jpg,sunakwlvxjpddialozd.jpg,,,>,Face,,,,,1,,,,,,,x
106,19,Presentation,2,01002960627fb_sunbwaafjdebjzttuvq.jpg,00760960620fa_sunaffstbkappprzxnv.jpg,01002960627fb.jpg,sunbwaafjdebjzttuvq.jpg,00760960620fa.jpg,sunaffstbkappprzxnv.jpg,,,>,Face,,,,,1,,,,,,,x
107,19,Presentation,2,00101931230fb_sunaajqmsaavkmgbsth.jpg,00096931230fa_sunaaiqiqcggrskoqgy.jpg,00101931230fb.jpg,sunaajqmsaavkmgbsth.jpg,00096931230fa.jpg,sunaaiqiqcggrskoqgy.jpg,,,>,Face,,,,,1,,,,,,,x
108,19,Presentation,2,00221940128fa_sunabcfpwlpolnutyju.jpg,00870940307fa_sunajrgtewnualfcerj.jpg,00221940128fa.jpg,sunabcfpwlpolnutyju.jpg,00870940307fa.jpg,sunajrgtewnualfcerj.jpg,,,>,Face,,,,,1,,,,,,,o
109,19,Presentation,2,00071941031fa_sunaaexqbtdswxrqjvz.jpg,00921960627fa_sunapqkpqdfvxlbqwyo.jpg,00071941031fa.jpg,sunaaexqbtdswxrqjvz.jpg,00921960627fa.jpg,sunapqkpqdfvxlbqwyo.jpg,,,>,Face,,,,,1,,,,,,,o
110,19,Memory,2,,,,,,,00647941031fa.jpg,,,,,,,,,,,,,,,
111,19,Memory,2,,,,,,,00805941205fa.jpg,,,,,,,,,,,,,,,
112,19,Memory,2,,,,,,,00221940128fa.jpg,,,,,,,,,,,,,,,
113,19,Memory,2,,,,,,,01002960627fb.jpg,,,,,,,,,,,,,,,
114,19,Memory,2,,,,,,,sunabtrnbvpppgczjim.jpg,,,,,,,,,,,,,,,
115,19,Memory,2,,,,,,,00650941031fa.jpg,,,,,,,,,,,,,,,
116,19,Memory,2,,,,,,,00675941121fa.jpg,,,,,,,,,,,,,,,
117,19,Memory,2,,,,,,,sunapqkpqdfvxlbqwyo.jpg,,,,,,,,,,,,,,,
118,19,Memory,2,,,,,,,sunaafynehyrzpsoaml.jpg,,,,,,,,,,,,,,,
119,19,Memory,2,,,,,,,00193940928fa.jpg,,,,,,,,,,,,,,,
120,19,Memory,2,,,,,,,00086931230fa.jpg,,,,,,,,,,,,,,,
121,19,Memory,2,,,,,,,sunafhmnhsdurlvddpw.jpg,,,,,,,,,,,,,,,
122,19,Memory,2,,,,,,,00096931230fa.jpg,,,,,,,,,,,,,,,
123,19,Memory,2,,,,,,,00101931230fb.jpg,,,,,,,,,,,,,,,
124,19,Memory,2,,,,,,,sunanaacmmosxrfwmvl.jpg,,,,,,,,,,,,,,,
125,19,Memory,2,,,,,,,00966960627fa.jpg,,,,,,,,,,,,,,,
126,19,Memory,2,,,,,,,sunagwzdbtlixdhgolm.jpg,,,,,,,,,,,,,,,
127,19,Memory,2,,,,,,,00921960627fa.jpg,,,,,,,,,,,,,,,
128,19,Memory,2,,,,,,,sunabcfpwlpolnutyju.jpg,,,,,,,,,,,,,,,
129,19,Memory,2,,,,,,,sunadoxcchtmsxewsau.jpg,,,,,,,,,,,,,,,
130,19,Memory,2,,,,,,,00775941205fa.jpg,,,,,,,,,,,,,,,
131,19,Memory,2,,,,,,,00191940128fb.jpg,,,,,,,,,,,,,,,
132,19,Memory,2,,,,,,,sunawksfbacycuhbrsc.jpg,,,,,,,,,,,,,,,
133,19,Memory,2,,,,,,,00902960530fa.jpg,,,,,,,,,,,,,,,
134,19,Memory,2,,,,,,,sunaaxjpzcnxligjtjq.jpg,,,,,,,,,,,,,,,
135,19,Memory,2,,,,,,,sunadflbrkckmepztql.jpg,,,,,,,,,,,,,,,
136,19,Memory,2,,,,,,,sunbwaafjdebjzttuvq.jpg,,,,,,,,,,,,,,,
137,19,Memory,2,,,,,,,00763941205fa.jpg,,,,,,,,,,,,,,,
138,19,Memory,2,,,,,,,sunaygrtwrwfezqjizr.jpg,,,,,,,,,,,,,,,
139,19,Memory,2,,,,,,,00723941201fa.jpg,,,,,,,,,,,,,,,
140,19,Memory,2,,,,,,,00960960627fa.jpg,,,,,,,,,,,,,,,
141,19,Memory,2,,,,,,,00305940422fa.jpg,,,,,,,,,,,,,,,
142,19,Memory,2,,,,,,,sunafvwfsmqkjrutjta.jpg,,,,,,,,,,,,,,,
143,19,Memory,2,,,,,,,00913960530fa.jpg,,,,,,,,,,,,,,,
144,19,Memory,2,,,,,,,sunaedtgwjvvziytspa.jpg,,,,,,,,,,,,,,,
145,19,Memory,2,,,,,,,sunaajqmsaavkmgbsth.jpg,,,,,,,,,,,,,,,
146,19,Memory,2,,,,,,,sunaooffzffbhcpirmm.jpg,,,,,,,,,,,,,,,
147,19,Memory,2,,,,,,,sunadikxpvqeabxrvvc.jpg,,,,,,,,,,,,,,,
148,19,Memory,2,,,,,,,sunaaiqiqcggrskoqgy.jpg,,,,,,,,,,,,,,,
149,19,Memory,2,,,,,,,sunaawsdjisukbbginm.jpg,,,,,,,,,,,,,,,
150,19,Presentation,3,00784941205fb_sunagjzcrjvmxzqzljx.jpg,00271940422fa_sunabmbnddafmywtjjj.jpg,00784941205fb.jpg,sunagjzcrjvmxzqzljx.jpg,00271940422fa.jpg,sunabmbnddafmywtjjj.jpg,,,>,Place,,,,,1,,,,,,,o
151,19,Presentation,3,00266940128fb_sunabkngeblodihjvbk.jpg,00296940422fa_sunabrwnslxalcohfre.jpg,00266940128fb.jpg,sunabkngeblodihjvbk.jpg,00296940422fa.jpg,sunabrwnslxalcohfre.jpg,,,>,Place,,,,,0,,,,,,,x
152,19,Presentation,3,00109931230fa_sunaajuzribjrizdshh.jpg,00787941205fa_sunagmwxxwymwojbvgi.jpg,00109931230fa.jpg,sunaajuzribjrizdshh.jpg,00787941205fa.jpg,sunagmwxxwymwojbvgi.jpg,,,>,Place,,,,,1,,,,,,,x
153,19,Presentation,3,00076931230fa_sunaafewhewbxmjiurz.jpg,00958960627fa_sunavspxmxubqaeidjt.jpg,00076931230fa.jpg,sunaafewhewbxmjiurz.jpg,00958960627fa.jpg,sunavspxmxubqaeidjt.jpg,,,>,Place,,,,,1,,,,,,,o
154,19,Presentation,3,00239940128fa_sunabctlikybqabezjv.jpg,00887960530_sunalcrtwiycqobgelp.jpg,00239940128fa.jpg,sunabctlikybqabezjv.jpg,00887960530.jpg,sunalcrtwiycqobgelp.jpg,,,>,Place,,,,,1,,,,,,,x
155,19,Presentation,3,00970960627fa_sunbasypfgzjtomktmu.jpg,00576941031fa_sunacvjlsylseoghjup.jpg,00970960627fa.jpg,sunbasypfgzjtomktmu.jpg,00576941031fa.jpg,sunacvjlsylseoghjup.jpg,,,>,Place,,,,,1,,,,,,,x
156,19,Presentation,3,00915960620fa_sunapileznnbbmrwoei.jpg,00877960530fa_sunajxpkuhbizeveguy.jpg,00915960620fa.jpg,sunapileznnbbmrwoei.jpg,00877960530fa.jpg,sunajxpkuhbizeveguy.jpg,,,>,Place,,,,,1,,,,,,,o
157,19,Presentation,3,00063931230fa_sunaaelyvurpntclgau.jpg,00988960627fa_sunbmaiocftdtvnzgap.jpg,00063931230fa.jpg,sunaaelyvurpntclgau.jpg,00988960627fa.jpg,sunbmaiocftdtvnzgap.jpg,,,>,Place,,,,,1,,,,,,,x
158,19,Presentation,3,00598941031fa_sunacxtcahkymosigud.jpg,00937960627fa_sunaqsolmfydodnakub.jpg,00598941031fa.jpg,sunacxtcahkymosigud.jpg,00937960627fa.jpg,sunaqsolmfydodnakub.jpg,,,>,Place,,,,,1,,,,,,,o
159,19,Presentation,3,00880960530fa_sunakmnfgklupjijsgf.jpg,00882960530fa_sunaknlirqjqiwbbeeg.jpg,00880960530fa.jpg,sunakmnfgklupjijsgf.jpg,00882960530fa.jpg,sunaknlirqjqiwbbeeg.jpg,,,>,Place,,,,,1,,,,,,,x
160,19,Memory,3,,,,,,,sunabmytpyhsgigllxu.jpg,,,,,,,,,,,,,,,
161,19,Memory,3,,,,,,,sunakmnfgklupjijsgf.jpg,,,,,,,,,,,,,,,
162,19,Memory,3,,,,,,,sunabrwnslxalcohfre.jpg,,,,,,,,,,,,,,,
163,19,Memory,3,,,,,,,sunaanlwnpqndclffxt.jpg,,,,,,,,,,,,,,,
164,19,Memory,3,,,,,,,00109931230fa.jpg,,,,,,,,,,,,,,,
165,19,Memory,3,,,,,,,00239940128fa.jpg,,,,,,,,,,,,,,,
166,19,Memory,3,,,,,,,00266940128fb.jpg,,,,,,,,,,,,,,,
167,19,Memory,3,,,,,,,00784941205fb.jpg,,,,,,,,,,,,,,,
168,19,Memory,3,,,,,,,00276940422fa.jpg,,,,,,,,,,,,,,,
169,19,Memory,3,,,,,,,00773960620fa.jpg,,,,,,,,,,,,,,,
170,19,Memory,3,,,,,,,00882960530fa.jpg,,,,,,,,,,,,,,,
171,19,Memory,3,,,,,,,00296940422fa.jpg,,,,,,,,,,,,,,,
172,19,Memory,3,,,,,,,00133931230fa.jpg,,,,,,,,,,,,,,,
173,19,Memory,3,,,,,,,sunabctlikybqabezjv.jpg,,,,,,,,,,,,,,,
174,19,Memory,3,,,,,,,sunabkngeblodihjvbk.jpg,,,,,,,,,,,,,,,
175,19,Memory,3,,,,,,,sunagjzcrjvmxzqzljx.jpg,,,,,,,,,,,,,,,
176,19,Memory,3,,,,,,,00953960627fa.jpg,,,,,,,,,,,,,,,
177,19,Memory,3,,,,,,,sunbvbrvgbpanfrawft.jpg,,,,,,,,,,,,,,,
178,19,Memory,3,,,,,,,sunaeoghzrjarigmwua.jpg,,,,,,,,,,,,,,,
179,19,Memory,3,,,,,,,00958960627fa.jpg,,,,,,,,,,,,,,,
180,19,Memory,3,,,,,,,sunaajuzribjrizdshh.jpg,,,,,,,,,,,,,,,
181,19,Memory,3,,,,,,,00965960627fa.jpg,,,,,,,,,,,,,,,
182,19,Memory,3,,,,,,,00576941031fa.jpg,,,,,,,,,,,,,,,
183,19,Memory,3,,,,,,,00880960530fa.jpg,,,,,,,,,,,,,,,
184,19,Memory,3,,,,,,,sunatstrpjxhvtbaczf.jpg,,,,,,,,,,,,,,,
185,19,Memory,3,,,,,,,sunaknlirqjqiwbbeeg.jpg,,,,,,,,,,,,,,,
186,19,Memory,3,,,,,,,sunafvsxtzaizojicxx.jpg,,,,,,,,,,,,,,,
187,19,Memory,3,,,,,,,sunaydywdmvlfddbxbk.jpg,,,,,,,,,,,,,,,
188,19,Memory,3,,,,,,,sunaalcrrdbjgdztbiz.jpg,,,,,,,,,,,,,,,
189,19,Memory,3,,,,,,,00743941201fa.jpg,,,,,,,,,,,,,,,
190,19,Memory,3,,,,,,,sunavspxmxubqaeidjt.jpg,,,,,,,,,,,,,,,
191,19,Memory,3,,,,,,,00999960627fa.jpg,,,,,,,,,,,,,,,
192,19,Memory,3,,,,,,,00532960627fa.jpg,,,,,,,,,,,,,,,
193,19,Memory,3,,,,,,,sunaanjcbzdvtvblsdy.jpg,,,,,,,,,,,,,,,
194,19,Memory,3,,,,,,,sunaqsolmfydodnakub.jpg,,,,,,,,,,,,,,,
195,19,Memory,3,,,,,,,sunaccdtpgenvcbcbcf.jpg,,,,,,,,,,,,,,,
196,19,Memory,3,,,,,,,sunacvjlsylseoghjup.jpg,,,,,,,,,,,,,,,
197,19,Memory,3,,,,,,,00132931230fb.jpg,,,,,,,,,,,,,,,
198,19,Memory,3,,,,,,,00937960627fa.jpg,,,,,,,,,,,,,,,
199,19,Memory,3,,,,,,,00123931230fb.jpg,,,,,,,,,,,,,,,
200,19,Presentation,4,00851940307fa_sunaivflshbyfrfzhqb.jpg,00774941201fa_sunafvtpfczkzopbgue.jpg,00851940307fa.jpg,sunaivflshbyfrfzhqb.jpg,00774941201fa.jpg,sunafvtpfczkzopbgue.jpg,,,<,Face,,,,,1,,,,,,,o
201,19,Presentation,4,00122931230fa_sunaakxjfbrrequcjmx.jpg,00967960627fa_sunbaejotfklekvpxcz.jpg,00122931230fa.jpg,sunaakxjfbrrequcjmx.jpg,00967960627fa.jpg,sunbaejotfklekvpxcz.jpg,,,<,Face,,,,,1,,,,,,,x
202,19,Presentation,4,00871940307_sunajrujcsdxmfbssmc.jpg,00950960627fa_sunasrjlmglmjzbmqxb.jpg,00871940307.jpg,sunajrujcsdxmfbssmc.jpg,00950960627fa.jpg,sunasrjlmglmjzbmqxb.jpg,,,<,Face,,,,,1,,,,,,,o
203,19,Presentation,4,00895960530fa_sunamczizlzavhzhpay.jpg,00070940307fa_sunaaeplwsfslcbtojr.jpg,00895960530fa.jpg,sunamczizlzavhzhpay.jpg,00070940307fa.jpg,sunaaeplwsfslcbtojr.jpg,,,<,Face,,,,,1,,,,,,,x
204,19,Presentation,4,00979960627fa_sunbdycacjfaujxitbw.jpg,00214940128fa_sunabbafjowbzcvbucc.jpg,00979960627fa.jpg,sunbdycacjfaujxitbw.jpg,00214940128fa.jpg,sunabbafjowbzcvbucc.jpg,,,<,Face,,,,,1,,,,,,,x
205,19,Presentation,4,00211940128fa_sunabasphceswhwwqvv.jpg,00936960627fa_sunaqgjuuwvdcyiccjt.jpg,00211940128fa.jpg,sunabasphceswhwwqvv.jpg,00936960627fa.jpg,sunaqgjuuwvdcyiccjt.jpg,,,<,Face,,,,,1,,,,,,,x
206,19,Presentation,4,00778941205fa_sunagcthdfirrcawoic.jpg,00766960620fa_sunafijbgncijwykrnl.jpg,00778941205fa.jpg,sunagcthdfirrcawoic.jpg,00766960620fa.jpg,sunafijbgncijwykrnl.jpg,,,<,Face,,,,,1,,,,,,,o
207,19,Presentation,4,00848940307fa_sunaivdylrawbmhryfp.jpg,00634940928fa_sunadcphrizvfpljiqt.jpg,00848940307fa.jpg,sunaivdylrawbmhryfp.jpg,00634940928fa.jpg,sunadcphrizvfpljiqt.jpg,,,<,Face,,,,,0,,,,,,,o
208,19,Presentation,4,00789960620fa_sunagpancjmxqfazssf.jpg,00185940422fb_sunaawqdbpihmlbwyyn.jpg,00789960620fa.jpg,sunagpancjmxqfazssf.jpg,00185940422fb.jpg,sunaawqdbpihmlbwyyn.jpg,,,<,Face,,,,,1,,,,,,,o
209,19,Presentation,4,00235940128fb_sunabclssnoeuigtawp.jpg,00082931230fa_sunaafvitpexrpvumsa.jpg,00235940128fb.jpg,sunabclssnoeuigtawp.jpg,00082931230fa.jpg,sunaafvitpexrpvumsa.jpg,,,<,Face,,,,,0,,,,,,,o
210,19,Memory,4,,,,,,,00851940307fa.jpg,,,,,,,,,,,,,,,
211,19,Memory,4,,,,,,,sunamczizlzavhzhpay.jpg,,,,,,,,,,,,,,,
212,19,Memory,4,,,,,,,00747941201fa.jpg,,,,,,,,,,,,,,,
213,19,Memory,4,,,,,,,sunaeutbrtswvsozxyk.jpg,,,,,,,,,,,,,,,
214,19,Memory,4,,,,,,,00185940422fb.jpg,,,,,,,,,,,,,,,
215,19,Memory,4,,,,,,,00979960627fa.jpg,,,,,,,,,,,,,,,
216,19,Memory,4,,,,,,,00571940928fa.jpg,,,,,,,,,,,,,,,
217,19,Memory,4,,,,,,,sunaaftlyfudyzuhqzf.jpg,,,,,,,,,,,,,,,
218,19,Memory,4,,,,,,,sunaafvitpexrpvumsa.jpg,,,,,,,,,,,,,,,
219,19,Memory,4,,,,,,,00124931230fa.jpg,,,,,,,,,,,,,,,
220,19,Memory,4,,,,,,,00306940422fa.jpg,,,,,,,,,,,,,,,
221,19,Memory,4,,,,,,,00122931230fa.jpg,,,,,,,,,,,,,,,
222,19,Memory,4,,,,,,,sunadcphrizvfpljiqt.jpg,,,,,,,,,,,,,,,
223,19,Memory,4,,,,,,,sunaawqdbpihmlbwyyn.jpg,,,,,,,,,,,,,,,
224,19,Memory,4,,,,,,,00634940928fa.jpg,,,,,,,,,,,,,,,
225,19,Memory,4,,,,,,,00791941205fa.jpg,,,,,,,,,,,,,,,
226,19,Memory,4,,,,,,,00719941201fa.jpg,,,,,,,,,,,,,,,
227,19,Memory,4,,,,,,,sunbdycacjfaujxitbw.jpg,,,,,,,,,,,,,,,
228,19,Memory,4,,,,,,,00719960620fa.jpg,,,,,,,,,,,,,,,
229,19,Memory,4,,,,,,,sunbbegcweqnetpdlrh.jpg,,,,,,,,,,,,,,,
230,19,Memory,4,,,,,,,sunacuatpqpqhyjhjqk.jpg,,,,,,,,,,,,,,,
231,19,Memory,4,,,,,,,sunbaejotfklekvpxcz.jpg,,,,,,,,,,,,,,,
232,19,Memory,4,,,,,,,sunagrmyoovzukhxmlo.jpg,,,,,,,,,,,,,,,
233,19,Memory,4,,,,,,,sunafkmnlytenlsywia.jpg,,,,,,,,,,,,,,,
234,19,Memory,4,,,,,,,00967960627fa.jpg,,,,,,,,,,,,,,,
235,19,Memory,4,,,,,,,sunadvithllcgmfxsrn.jpg,,,,,,,,,,,,,,,
236,19,Memory,4,,,,,,,sunasrjlmglmjzbmqxb.jpg,,,,,,,,,,,,,,,
237,19,Memory,4,,,,,,,00082931230fa.jpg,,,,,,,,,,,,,,,
238,19,Memory,4,,,,,,,00768941205fa.jpg,,,,,,,,,,,,,,,
239,19,Memory,4,,,,,,,sunabclssnoeuigtawp.jpg,,,,,,,,,,,,,,,
240,19,Memory,4,,,,,,,00235940128fb.jpg,,,,,,,,,,,,,,,
241,19,Memory,4,,,,,,,sunaalhlvzmjmitybdn.jpg,,,,,,,,,,,,,,,
242,19,Memory,4,,,,,,,sunabueyoajufbkraki.jpg,,,,,,,,,,,,,,,
243,19,Memory,4,,,,,,,sunaivflshbyfrfzhqb.jpg,,,,,,,,,,,,,,,
244,19,Memory,4,,,,,,,00971960627fa.jpg,,,,,,,,,,,,,,,
245,19,Memory,4,,,,,,,00950960627fa.jpg,,,,,,,,,,,,,,,
246,19,Memory,4,,,,,,,sunaakxjfbrrequcjmx.jpg,,,,,,,,,,,,,,,
247,19,Memory,4,,,,,,,00895960530fa.jpg,,,,,,,,,,,,,,,
248,19,Memory,4,,,,,,,sunadzuvtmtmgupotmf.jpg,,,,,,,,,,,,,,,
249,19,Memory,4,,,,,,,00081941031fa.jpg,,,,,,,,,,,,,,,
250,19,Presentation,5,00098931230fa_sunaajpqmulidejvjsr.jpg,00316940422fa_sunabxmguapjekttvwm.jpg,00098931230fa.jpg,sunaajpqmulidejvjsr.jpg,00316940422fa.jpg,sunabxmguapjekttvwm.jpg,,,>,Face,,,,,1,,,,,,,o
251,19,Presentation,5,00727941205fa_sunaeisnjeetzmkbuad.jpg,00751960620fa_sunaezuszgtxnmsxdbk.jpg,00727941205fa.jpg,sunaeisnjeetzmkbuad.jpg,00751960620fa.jpg,sunaezuszgtxnmsxdbk.jpg,,,>,Face,,,,,1,,,,,,,x
252,19,Presentation,5,00933960627fa_sunapwjkcxdaeqehfql.jpg,00910960530fa_sunaofikylqtxphvdem.jpg,00933960627fa.jpg,sunapwjkcxdaeqehfql.jpg,00910960530fa.jpg,sunaofikylqtxphvdem.jpg,,,>,Face,,,,,1,,,,,,,o
253,19,Presentation,5,00795941205fa_sunagtumacdlmciqamz.jpg,00900960530fa_sunamlotskmmsjeogby.jpg,00795941205fa.jpg,sunagtumacdlmciqamz.jpg,00900960530fa.jpg,sunamlotskmmsjeogby.jpg,,,>,Face,,,,,1,,,,,,,x
254,19,Presentation,5,00905960530fa_sunanmoqeyprjjjfxjt.jpg,00963960627fa_sunayaepykrqvenaqqy.jpg,00905960530fa.jpg,sunanmoqeyprjjjfxjt.jpg,00963960627fa.jpg,sunayaepykrqvenaqqy.jpg,,,>,Face,,,,,1,,,,,,,o
255,19,Presentation,5,00158931230fb_sunaavchcbptaerhcfy.jpg,00162931230fb_sunaavjinpnkappuonm.jpg,00158931230fb.jpg,sunaavchcbptaerhcfy.jpg,00162931230fb.jpg,sunaavjinpnkappuonm.jpg,,,>,Face,,,,,1,,,,,,,o
256,19,Presentation,5,00838940307fa_sunaiozxhxgtfrmoagh.jpg,00209940128fb_sunabaergayifsgacxt.jpg,00838940307fa.jpg,sunaiozxhxgtfrmoagh.jpg,00209940128fb.jpg,sunabaergayifsgacxt.jpg,,,>,Face,,,,,0,,,,,,,o
257,19,Presentation,5,00776941205fa_sunafxokyavhgptyfye.jpg,00144931230fb_sunaathajvxrgptwhoj.jpg,00776941205fa.jpg,sunafxokyavhgptyfye.jpg,00144931230fb.jpg,sunaathajvxrgptwhoj.jpg,,,>,Face,,,,,1,,,,,,,o
258,19,Presentation,5,00543940519fa_sunacepzfrmtkiqonpy.jpg,00903960620fa_sunanainkqdvktzoxyl.jpg,00543940519fa.jpg,sunacepzfrmtkiqonpy.jpg,00903960620fa.jpg,sunanainkqdvktzoxyl.jpg,,,>,Face,,,,,1,,,,,,,x
259,19,Presentation,5,00982960627fa_sunbesrwkdsffeogeqq.jpg,00636941031fa_sunaddtdkycxbqlpfqa.jpg,00982960627fa.jpg,sunbesrwkdsffeogeqq.jpg,00636941031fa.jpg,sunaddtdkycxbqlpfqa.jpg,,,>,Face,,,,,0,,,,,,,o
260,19,Memory,5,,,,,,,sunaeisnjeetzmkbuad.jpg,,,,,,,,,,,,,,,
261,19,Memory,5,,,,,,,00744941201fa.jpg,,,,,,,,,,,,,,,
262,19,Memory,5,,,,,,,sunaajpqmulidejvjsr.jpg,,,,,,,,,,,,,,,
263,19,Memory,5,,,,,,,00905960530fa.jpg,,,,,,,,,,,,,,,
264,19,Memory,5,,,,,,,sunagtumacdlmciqamz.jpg,,,,,,,,,,,,,,,
265,19,Memory,5,,,,,,,00963960627fa.jpg,,,,,,,,,,,,,,,
266,19,Memory,5,,,,,,,sunamlotskmmsjeogby.jpg,,,,,,,,,,,,,,,
267,19,Memory,5,,,,,,,sunagufzbeteqdjxais.jpg,,,,,,,,,,,,,,,
268,19,Memory,5,,,,,,,sunaibnpvhkdpdnzcnz.jpg,,,,,,,,,,,,,,,
269,19,Memory,5,,,,,,,00102931230fa.jpg,,,,,,,,,,,,,,,
270,19,Memory,5,,,,,,,00751960620fa.jpg,,,,,,,,,,,,,,,
271,19,Memory,5,,,,,,,00900960530fa.jpg,,,,,,,,,,,,,,,
272,19,Memory,5,,,,,,,sunaezuszgtxnmsxdbk.jpg,,,,,,,,,,,,,,,
273,19,Memory,5,,,,,,,sunbesrwkdsffeogeqq.jpg,,,,,,,,,,,,,,,
274,19,Memory,5,,,,,,,sunaajspcoepticvplv.jpg,,,,,,,,,,,,,,,
275,19,Memory,5,,,,,,,00989960627fa.jpg,,,,,,,,,,,,,,,
276,19,Memory,5,,,,,,,00834940307fa.jpg,,,,,,,,,,,,,,,
277,19,Memory,5,,,,,,,00727941205fa.jpg,,,,,,,,,,,,,,,
278,19,Memory,5,,,,,,,00797960620fa.jpg,,,,,,,,,,,,,,,
279,19,Memory,5,,,,,,,00803941205fa.jpg,,,,,,,,,,,,,,,
280,19,Memory,5,,,,,,,sunahctntqrunhdxhtb.jpg,,,,,,,,,,,,,,,
281,19,Memory,5,,,,,,,00903960620fa.jpg,,,,,,,,,,,,,,,
282,19,Memory,5,,,,,,,sunagvxkjokqimstxpe.jpg,,,,,,,,,,,,,,,
283,19,Memory,5,,,,,,,sunahtfxgsrmkiulnwk.jpg,,,,,,,,,,,,,,,
284,19,Memory,5,,,,,,,sunayaepykrqvenaqqy.jpg,,,,,,,,,,,,,,,
285,19,Memory,5,,,,,,,00800941205fb.jpg,,,,,,,,,,,,,,,
286,19,Memory,5,,,,,,,sunaeomlfaabhpswasy.jpg,,,,,,,,,,,,,,,
287,19,Memory,5,,,,,,,sunagvjurcwdbixvnyi.jpg,,,,,,,,,,,,,,,
288,19,Memory,5,,,,,,,sunbondbduabvijnmch.jpg,,,,,,,,,,,,,,,
289,19,Memory,5,,,,,,,00098931230fa.jpg,,,,,,,,,,,,,,,
290,19,Memory,5,,,,,,,sunanwjjyqqwzqrqagd.jpg,,,,,,,,,,,,,,,
291,19,Memory,5,,,,,,,sunanmoqeyprjjjfxjt.jpg,,,,,,,,,,,,,,,
292,19,Memory,5,,,,,,,00810941205fa.jpg,,,,,,,,,,,,,,,
293,19,Memory,5,,,,,,,00910960530fa.jpg,,,,,,,,,,,,,,,
294,19,Memory,5,,,,,,,00908960530fa.jpg,,,,,,,,,,,,,,,
295,19,Memory,5,,,,,,,sunanainkqdvktzoxyl.jpg,,,,,,,,,,,,,,,
296,19,Memory,5,,,,,,,00827940307fa.jpg,,,,,,,,,,,,,,,
297,19,Memory,5,,,,,,,00795941205fa.jpg,,,,,,,,,,,,,,,
298,19,Memory,5,,,,,,,sunaofikylqtxphvdem.jpg,,,,,,,,,,,,,,,
299,19,Memory,5,,,,,,,00982960627fa.jpg,,,,,,,,,,,,,,,
300,19,Presentation,6,00071940128fa_sunaaexpnawiehinlpy.jpg,00498960627fa_sunabzjxlmkwnwzimua.jpg,00071940128fa.jpg,sunaaexpnawiehinlpy.jpg,00498960627fa.jpg,sunabzjxlmkwnwzimua.jpg,,,<,Place,,,,,1,,,,,,,x
301,19,Presentation,6,00986960627fa_sunbgzjryivyczuvkvm.jpg,00598940928fa_sunacxeheuiigkcgquf.jpg,00986960627fa.jpg,sunbgzjryivyczuvkvm.jpg,00598940928fa.jpg,sunacxeheuiigkcgquf.jpg,,,<,Place,,,,,0,,,,,,,x
302,19,Presentation,6,01003960627fb_sunbwdrdvsweerwsdrj.jpg,00670941121fa_sunadochqcucscehsgk.jpg,01003960627fb.jpg,sunbwdrdvsweerwsdrj.jpg,00670941121fa.jpg,sunadochqcucscehsgk.jpg,,,<,Place,,,,,1,,,,,,,x
303,19,Presentation,6,00609940928fa_sunacycdoztxoluxjyk.jpg,00859940307fa_sunaiycurtqsfkvcaso.jpg,00609940928fa.jpg,sunacycdoztxoluxjyk.jpg,00859940307fa.jpg,sunaiycurtqsfkvcaso.jpg,,,<,Place,,,,,1,,,,,,,x
304,19,Presentation,6,00939960627fa_sunarceibpcyacbmfga.jpg,00835940307fa_sunaijsqpvodplbwxkf.jpg,00939960627fa.jpg,sunarceibpcyacbmfga.jpg,00835940307fa.jpg,sunaijsqpvodplbwxkf.jpg,,,<,Place,,,,,1,,,,,,,o
305,19,Presentation,6,00990960627fa_sunbpflsdaxnddnwcqi.jpg,00944960627fa_sunasbbntuiheekqyaq.jpg,00990960627fa.jpg,sunbpflsdaxnddnwcqi.jpg,00944960627fa.jpg,sunasbbntuiheekqyaq.jpg,,,<,Place,,,,,1,,,,,,,o
306,19,Presentation,6,00730960620fa_sunaekgzpfilgjxpeyq.jpg,00828940307fa_sunahuynahneraqftyz.jpg,00730960620fa.jpg,sunaekgzpfilgjxpeyq.jpg,00828940307fa.jpg,sunahuynahneraqftyz.jpg,,,<,Place,,,,,1,,,,,,,o
307,19,Presentation,6,00648941031fa_sunadfndyrtqqiasoig.jpg,00154931230fa_sunaauueuhhvklldjik.jpg,00648941031fa.jpg,sunadfndyrtqqiasoig.jpg,00154931230fa.jpg,sunaauueuhhvklldjik.jpg,,,<,Place,,,,,1,,,,,,,o
308,19,Presentation,6,00290940422fa_sunabqowuarvqqcnipn.jpg,00095931230fa_sunaahzooisqkwlxwoz.jpg,00290940422fa.jpg,sunabqowuarvqqcnipn.jpg,00095931230fa.jpg,sunaahzooisqkwlxwoz.jpg,,,<,Place,,,,,1,,,,,,,x
309,19,Presentation,6,00809960620fa_sunahbvlpavurqoxdeq.jpg,00288940422fa_sunabppokiyglaxpcha.jpg,00809960620fa.jpg,sunahbvlpavurqoxdeq.jpg,00288940422fa.jpg,sunabppokiyglaxpcha.jpg,,,<,Place,,,,,1,,,,,,,o
310,19,Memory,6,,,,,,,00505960627fa.jpg,,,,,,,,,,,,,,,
311,19,Memory,6,,,,,,,01003960627fb.jpg,,,,,,,,,,,,,,,
312,19,Memory,6,,,,,,,00835940307fa.jpg,,,,,,,,,,,,,,,
313,19,Memory,6,,,,,,,sunabppokiyglaxpcha.jpg,,,,,,,,,,,,,,,
314,19,Memory,6,,,,,,,sunbgzjryivyczuvkvm.jpg,,,,,,,,,,,,,,,
315,19,Memory,6,,,,,,,00620940928fa.jpg,,,,,,,,,,,,,,,
316,19,Memory,6,,,,,,,00288940422fa.jpg,,,,,,,,,,,,,,,
317,19,Memory,6,,,,,,,sunbwdrdvsweerwsdrj.jpg,,,,,,,,,,,,,,,
318,19,Memory,6,,,,,,,sunahbvlpavurqoxdeq.jpg,,,,,,,,,,,,,,,
319,19,Memory,6,,,,,,,sunaeouogqolxvggaoq.jpg,,,,,,,,,,,,,,,
320,19,Memory,6,,,,,,,00911960530fa.jpg,,,,,,,,,,,,,,,
321,19,Memory,6,,,,,,,00986960627fa.jpg,,,,,,,,,,,,,,,
322,19,Memory,6,,,,,,,00080931230fb.jpg,,,,,,,,,,,,,,,
323,19,Memory,6,,,,,,,00753941201fa.jpg,,,,,,,,,,,,,,,
324,19,Memory,6,,,,,,,00154931230fa.jpg,,,,,,,,,,,,,,,
325,19,Memory,6,,,,,,,sunaafjszryxyavjzln.jpg,,,,,,,,,,,,,,,
326,19,Memory,6,,,,,,,00938960627fa.jpg,,,,,,,,,,,,,,,
327,19,Memory,6,,,,,,,sunaauueuhhvklldjik.jpg,,,,,,,,,,,,,,,
328,19,Memory,6,,,,,,,sunabrlndkruqokhury.jpg,,,,,,,,,,,,,,,
329,19,Memory,6,,,,,,,sunaijsqpvodplbwxkf.jpg,,,,,,,,,,,,,,,
330,19,Memory,6,,,,,,,sunadfndyrtqqiasoig.jpg,,,,,,,,,,,,,,,
331,19,Memory,6,,,,,,,00754941201fa.jpg,,,,,,,,,,,,,,,
332,19,Memory,6,,,,,,,sunabqowuarvqqcnipn.jpg,,,,,,,,,,,,,,,
333,19,Memory,6,,,,,,,00129931230fb.jpg,,,,,,,,,,,,,,,
334,19,Memory,6,,,,,,,00745941205fa.jpg,,,,,,,,,,,,,,,
335,19,Memory,6,,,,,,,sunaamsdyakblkfoydx.jpg,,,,,,,,,,,,,,,
336,19,Memory,6,,,,,,,00294940422fb.jpg,,,,,,,,,,,,,,,
337,19,Memory,6,,,,,,,sunaooaqzputrowwbsw.jpg,,,,,,,,,,,,,,,
338,19,Memory,6,,,,,,,sunacxeheuiigkcgquf.jpg,,,,,,,,,,,,,,,
339,19,Memory,6,,,,,,,00598940928fa.jpg,,,,,,,,,,,,,,,
340,19,Memory,6,,,,,,,sunaqyylsngywqzwfmx.jpg,,,,,,,,,,,,,,,
341,19,Memory,6,,,,,,,sunabzuqsrgcsonqlkz.jpg,,,,,,,,,,,,,,,
342,19,Memory,6,,,,,,,00290940422fa.jpg,,,,,,,,,,,,,,,
343,19,Memory,6,,,,,,,sunahuynahneraqftyz.jpg,,,,,,,,,,,,,,,
344,19,Memory,6,,,,,,,sunaffgsyyvoqdlkmnk.jpg,,,,,,,,,,,,,,,
345,19,Memory,6,,,,,,,00828940307fa.jpg,,,,,,,,,,,,,,,
346,19,Memory,6,,,,,,,00648941031fa.jpg,,,,,,,,,,,,,,,
347,19,Memory,6,,,,,,,sunacypmnujalygkunp.jpg,,,,,,,,,,,,,,,
348,19,Memory,6,,,,,,,00809960620fa.jpg,,,,,,,,,,,,,,,
349,19,Memory,6,,,,,,,sunafcofuuzebuadceo.jpg,,,,,,,,,,,,,,,
350,19,Presentation,7,00869940307fa_sunajoveqhiprwqgoco.jpg,00790941205fa_sunagpjzsbltchlwvou.jpg,00869940307fa.jpg,sunajoveqhiprwqgoco.jpg,00790941205fa.jpg,sunagpjzsbltchlwvou.jpg,,,<,Place,,,,,1,,,,,,,o
351,19,Presentation,7,00819940307fa_sunahqldjibofgsfdgb.jpg,01007960627fa_sunbxarcshsnqsefemx.jpg,00819940307fa.jpg,sunahqldjibofgsfdgb.jpg,01007960627fa.jpg,sunbxarcshsnqsefemx.jpg,,,<,Place,,,,,1,,,,,,,x
352,19,Presentation,7,00548940519fa_sunacerqowiaeoqkmsq.jpg,00265940128fb_sunabkmdplkdbvxriff.jpg,00548940519fa.jpg,sunacerqowiaeoqkmsq.jpg,00265940128fb.jpg,sunabkmdplkdbvxriff.jpg,,,<,Place,,,,,1,,,,,,,x
353,19,Presentation,7,00264940128fb_sunabjzyxcjnmztdonj.jpg,00210940128fb_sunabanoxjtqxamkucc.jpg,00264940128fb.jpg,sunabjzyxcjnmztdonj.jpg,00210940128fb.jpg,sunabanoxjtqxamkucc.jpg,,,<,Place,,,,,1,,,,,,,o
354,19,Presentation,7,00785941205fa_sunaglqunwuycxydmyu.jpg,00197940128fa_sunaaylzyqlqrsmfwif.jpg,00785941205fa.jpg,sunaglqunwuycxydmyu.jpg,00197940128fa.jpg,sunaaylzyqlqrsmfwif.jpg,,,<,Place,,,,,1,,,,,,,x
355,19,Presentation,7,00662941121fa_sunadkazmlajmohnwfl.jpg,00540940519fa_sunacdnquypmsshhsbk.jpg,00662941121fa.jpg,sunadkazmlajmohnwfl.jpg,00540940519fa.jpg,sunacdnquypmsshhsbk.jpg,,,<,Place,,,,,1,,,,,,,o
356,19,Presentation,7,00985960627fa_sunbgklxeqjhdbyfhhy.jpg,00564941031fa_sunacsaovnjezqwbykf.jpg,00985960627fa.jpg,sunbgklxeqjhdbyfhhy.jpg,00564941031fa.jpg,sunacsaovnjezqwbykf.jpg,,,<,Place,,,,,1,,,,,,,x
357,19,Presentation,7,00069931230fb_sunaaeowapdkwzqpgqr.jpg,00935960627fa_sunaqbmgkgqucajzrkp.jpg,00069931230fb.jpg,sunaaeowapdkwzqpgqr.jpg,00935960627fa.jpg,sunaqbmgkgqucajzrkp.jpg,,,<,Place,,,,,1,,,,,,,x
358,19,Presentation,7,00146960620fb_sunaatpeezlljqaxlhj.jpg,00097931230fa_sunaajayojuslbbnneg.jpg,00146960620fb.jpg,sunaatpeezlljqaxlhj.jpg,00097931230fa.jpg,sunaajayojuslbbnneg.jpg,,,<,Place,,,,,1,,,,,,,x
359,19,Presentation,7,00149931230fa_sunaauglwmctnkxyird.jpg,00780960530fa_sunagetqixeypsysbpn.jpg,00149931230fa.jpg,sunaauglwmctnkxyird.jpg,00780960530fa.jpg,sunagetqixeypsysbpn.jpg,,,<,Place,,,,,1,,,,,,,x
360,19,Memory,7,,,,,,,sunadqmjrhfjyuzyvdd.jpg,,,,,,,,,,,,,,,
361,19,Memory,7,,,,,,,00869940307fa.jpg,,,,,,,,,,,,,,,
362,19,Memory,7,,,,,,,sunawotxrevnqvamsfp.jpg,,,,,,,,,,,,,,,
363,19,Memory,7,,,,,,,00280940422fb.jpg,,,,,,,,,,,,,,,
364,19,Memory,7,,,,,,,sunbpvgllfdejxcpjqp.jpg,,,,,,,,,,,,,,,
365,19,Memory,7,,,,,,,sunaajayojuslbbnneg.jpg,,,,,,,,,,,,,,,
366,19,Memory,7,,,,,,,sunagvprlbprarvgdvj.jpg,,,,,,,,,,,,,,,
367,19,Memory,7,,,,,,,sunadfktsqjthoglcsm.jpg,,,,,,,,,,,,,,,
368,19,Memory,7,,,,,,,sunabanoxjtqxamkucc.jpg,,,,,,,,,,,,,,,
369,19,Memory,7,,,,,,,sunabohxbskznglnrhv.jpg,,,,,,,,,,,,,,,
370,19,Memory,7,,,,,,,sunacdnquypmsshhsbk.jpg,,,,,,,,,,,,,,,
371,19,Memory,7,,,,,,,01007960627fa.jpg,,,,,,,,,,,,,,,
372,19,Memory,7,,,,,,,sunadkazmlajmohnwfl.jpg,,,,,,,,,,,,,,,
373,19,Memory,7,,,,,,,00961960627fa.jpg,,,,,,,,,,,,,,,
374,19,Memory,7,,,,,,,sunaatpkocdkocwxpkb.jpg,,,,,,,,,,,,,,,
375,19,Memory,7,,,,,,,sunbxarcshsnqsefemx.jpg,,,,,,,,,,,,,,,
376,19,Memory,7,,,,,,,sunaaylzyqlqrsmfwif.jpg,,,,,,,,,,,,,,,
377,19,Memory,7,,,,,,,00548940519fa.jpg,,,,,,,,,,,,,,,
378,19,Memory,7,,,,,,,00801941205fa.jpg,,,,,,,,,,,,,,,
379,19,Memory,7,,,,,,,sunajoveqhiprwqgoco.jpg,,,,,,,,,,,,,,,
380,19,Memory,7,,,,,,,00762941201fa.jpg,,,,,,,,,,,,,,,
381,19,Memory,7,,,,,,,00638941031fa.jpg,,,,,,,,,,,,,,,
382,19,Memory,7,,,,,,,sunaauglwmctnkxyird.jpg,,,,,,,,,,,,,,,
383,19,Memory,7,,,,,,,sunbgklxeqjhdbyfhhy.jpg,,,,,,,,,,,,,,,
384,19,Memory,7,,,,,,,sunaecpkgfewqqreqwe.jpg,,,,,,,,,,,,,,,
385,19,Memory,7,,,,,,,00210940128fb.jpg,,,,,,,,,,,,,,,
386,19,Memory,7,,,,,,,sunafgzgbisbopcyslr.jpg,,,,,,,,,,,,,,,
387,19,Memory,7,,,,,,,00720960620fa.jpg,,,,,,,,,,,,,,,
388,19,Memory,7,,,,,,,00149931230fa.jpg,,,,,,,,,,,,,,,
389,19,Memory,7,,,,,,,00985960627fa.jpg,,,,,,,,,,,,,,,
390,19,Memory,7,,,,,,,00996960627fa.jpg,,,,,,,,,,,,,,,
391,19,Memory,7,,,,,,,00662941121fa.jpg,,,,,,,,,,,,,,,
392,19,Memory,7,,,,,,,00147931230fb.jpg,,,,,,,,,,,,,,,
393,19,Memory,7,,,,,,,00681941121fa.jpg,,,,,,,,,,,,,,,
394,19,Memory,7,,,,,,,sunacerqowiaeoqkmsq.jpg,,,,,,,,,,,,,,,
395,19,Memory,7,,,,,,,00540940519fa.jpg,,,,,,,,,,,,,,,
396,19,Memory,7,,,,,,,00097931230fa.jpg,,,,,,,,,,,,,,,
397,19,Memory,7,,,,,,,00197940128fa.jpg,,,,,,,,,,,,,,,
398,19,Memory,7,,,,,,,00777941205fa.jpg,,,,,,,,,,,,,,,
399,19,Memory,7,,,,,,,sunagcinxkccdtrjmlv.jpg,,,,,,,,,,,,,,,
