,Subject,Trial Type,Run,Cued Composite,Uncued Composite,Cued Face,Cued Place,Uncued Face,Uncued Place,Memory Image,Category,Cued Side,Cued Category,Attention Reaction Time (s),Familiarity Reaction Time (s),Familiarity Rating,Attention Level,Cue Validity,Post Invalid Cue,Pre Invalid Cue,Attention Button,Rating History,Stimulus Onset,Stimulus End,Attention Probe
0,14,Presentation,0,00097931230fa_sunaajayojuslbbnneg.jpg,00937960627fa_sunaqsolmfydodnakub.jpg,00097931230fa.jpg,sunaajayojuslbbnneg.jpg,00937960627fa.jpg,sunaqsolmfydodnakub.jpg,,,<,Face,,,,,1,,,,,,,x
1,14,Presentation,0,00919960620fa_sunapmfmzadmosuogaz.jpg,00936960627fa_sunaqgjuuwvdcyiccjt.jpg,00919960620fa.jpg,sunapmfmzadmosuogaz.jpg,00936960627fa.jpg,sunaqgjuuwvdcyiccjt.jpg,,,<,Face,,,,,1,,,,,,,x
2,14,Presentation,0,00633940928fa_sunadbhmrgrrpyzglxs.jpg,00108960530fa_sunaajtnvzzpsjdzres.jpg,00633940928fa.jpg,sunadbhmrgrrpyzglxs.jpg,00108960530fa.jpg,sunaajtnvzzpsjdzres.jpg,,,<,Face,,,,,1,,,,,,,x
3,14,Presentation,0,00776941205fa_sunafxokyavhgptyfye.jpg,00197940128fa_sunaaylzyqlqrsmfwif.jpg,00776941205fa.jpg,sunafxokyavhgptyfye.jpg,00197940128fa.jpg,sunaaylzyqlqrsmfwif.jpg,,,<,Face,,,,,1,,,,,,,o
4,14,Presentation,0,00086931230fa_sunaafynehyrzpsoaml.jpg,00839940307fa_sunaipyohrqlwngaqif.jpg,00086931230fa.jpg,sunaafynehyrzpsoaml.jpg,00839940307fa.jpg,sunaipyohrqlwngaqif.jpg,,,<,Face,,,,,1,,,,,,,o
5,14,Presentation,0,01005960627fa_sunbwyuesflwdpqtgoy.jpg,00264940128fb_sunabjzyxcjnmztdonj.jpg,01005960627fa.jpg,sunbwyuesflwdpqtgoy.jpg,00264940128fb.jpg,sunabjzyxcjnmztdonj.jpg,,,<,Face,,,,,1,,,,,,,o
6,14,Presentation,0,01011960627fa_sundahdxwmcdluscvot.jpg,01010960627fa_suncnkvbhypnivcohyx.jpg,01011960627fa.jpg,sundahdxwmcdluscvot.jpg,01010960627fa.jpg,suncnkvbhypnivcohyx.jpg,,,<,Face,,,,,1,,,,,,,o
7,14,Presentation,0,00723941201fa_sunaedtgwjvvziytspa.jpg,00482940519fa_sunabyfxcxhdebvdyfd.jpg,00723941201fa.jpg,sunaedtgwjvvziytspa.jpg,00482940519fa.jpg,sunabyfxcxhdebvdyfd.jpg,,,<,Face,,,,,0,,,,,,,x
8,14,Presentation,0,00725941201fa_sunaefgzwiramypjvtd.jpg,00481940519fa_sunabxsuqbleluwczoy.jpg,00725941201fa.jpg,sunaefgzwiramypjvtd.jpg,00481940519fa.jpg,sunabxsuqbleluwczoy.jpg,,,<,Face,,,,,1,,,,,,,x
9,14,Presentation,0,00966960627fa_sunaygrtwrwfezqjizr.jpg,00060931230fa_sunaaehaikpckyjsety.jpg,00966960627fa.jpg,sunaygrtwrwfezqjizr.jpg,00060931230fa.jpg,sunaaehaikpckyjsety.jpg,,,<,Face,,,,,1,,,,,,,o
10,14,Memory,0,,,,,,,sunaajayojuslbbnneg.jpg,,,,,,,,,,,,,,,
11,14,Memory,0,,,,,,,suncnkvbhypnivcohyx.jpg,,,,,,,,,,,,,,,
12,14,Memory,0,,,,,,,00482940519fa.jpg,,,,,,,,,,,,,,,
13,14,Memory,0,,,,,,,sunabyfxcxhdebvdyfd.jpg,,,,,,,,,,,,,,,
14,14,Memory,0,,,,,,,01010960627fa.jpg,,,,,,,,,,,,,,,
15,14,Memory,0,,,,,,,00919960620fa.jpg,,,,,,,,,,,,,,,
16,14,Memory,0,,,,,,,00197940128fa.jpg,,,,,,,,,,,,,,,
17,14,Memory,0,,,,,,,00288940422fa.jpg,,,,,,,,,,,,,,,
18,14,Memory,0,,,,,,,00984960627fa.jpg,,,,,,,,,,,,,,,
19,14,Memory,0,,,,,,,00892960530fa.jpg,,,,,,,,,,,,,,,
20,14,Memory,0,,,,,,,00763941205fa.jpg,,,,,,,,,,,,,,,
21,14,Memory,0,,,,,,,00983960627fa.jpg,,,,,,,,,,,,,,,
22,14,Memory,0,,,,,,,sunaanptmsknhirrzed.jpg,,,,,,,,,,,,,,,
23,14,Memory,0,,,,,,,00191940128fb.jpg,,,,,,,,,,,,,,,
24,14,Memory,0,,,,,,,sunabppokiyglaxpcha.jpg,,,,,,,,,,,,,,,
25,14,Memory,0,,,,,,,00787960620fa.jpg,,,,,,,,,,,,,,,
26,14,Memory,0,,,,,,,00136931230fb.jpg,,,,,,,,,,,,,,,
27,14,Memory,0,,,,,,,sunabwmcbaxwioksdgw.jpg,,,,,,,,,,,,,,,
28,14,Memory,0,,,,,,,sunapmfmzadmosuogaz.jpg,,,,,,,,,,,,,,,
29,14,Memory,0,,,,,,,sunabjzyxcjnmztdonj.jpg,,,,,,,,,,,,,,,
30,14,Memory,0,,,,,,,sundahdxwmcdluscvot.jpg,,,,,,,,,,,,,,,
31,14,Memory,0,,,,,,,sunadbhmrgrrpyzglxs.jpg,,,,,,,,,,,,,,,
32,14,Memory,0,,,,,,,sunagoufulkpsxrmklt.jpg,,,,,,,,,,,,,,,
33,14,Memory,0,,,,,,,sunafxokyavhgptyfye.jpg,,,,,,,,,,,,,,,
34,14,Memory,0,,,,,,,00264940128fb.jpg,,,,,,,,,,,,,,,
35,14,Memory,0,,,,,,,00314940422fa.jpg,,,,,,,,,,,,,,,
36,14,Memory,0,,,,,,,sunbfyvfqiimvdaxlqn.jpg,,,,,,,,,,,,,,,
37,14,Memory,0,,,,,,,00097931230fa.jpg,,,,,,,,,,,,,,,
38,14,Memory,0,,,,,,,sunafhmnhsdurlvddpw.jpg,,,,,,,,,,,,,,,
39,14,Memory,0,,,,,,,00776941205fa.jpg,,,,,,,,,,,,,,,
40,14,Memory,0,,,,,,,00633940928fa.jpg,,,,,,,,,,,,,,,
41,14,Memory,0,,,,,,,sunaawsdjisukbbginm.jpg,,,,,,,,,,,,,,,
42,14,Memory,0,,,,,,,01011960627fa.jpg,,,,,,,,,,,,,,,
43,14,Memory,0,,,,,,,sunbfzchmomnvzhbxdg.jpg,,,,,,,,,,,,,,,
44,14,Memory,0,,,,,,,sunaaylzyqlqrsmfwif.jpg,,,,,,,,,,,,,,,
45,14,Memory,0,,,,,,,sunabxsuqbleluwczoy.jpg,,,,,,,,,,,,,,,
46,14,Memory,0,,,,,,,00265940128fb.jpg,,,,,,,,,,,,,,,
47,14,Memory,0,,,,,,,sunabkmdplkdbvxriff.jpg,,,,,,,,,,,,,,,
48,14,Memory,0,,,,,,,00481940519fa.jpg,,,,,,,,,,,,,,,
49,14,Memory,0,,,,,,,sunalntxqqadigcletd.jpg,,,,,,,,,,,,,,,
50,14,Presentation,1,00903960620fa_sunanainkqdvktzoxyl.jpg,00790941205fa_sunagpjzsbltchlwvou.jpg,00903960620fa.jpg,sunanainkqdvktzoxyl.jpg,00790941205fa.jpg,sunagpjzsbltchlwvou.jpg,,,>,Place,,,,,1,,,,,,,o
51,14,Presentation,1,00745941205fa_sunaeouogqolxvggaoq.jpg,00540940519fa_sunacdnquypmsshhsbk.jpg,00745941205fa.jpg,sunaeouogqolxvggaoq.jpg,00540940519fa.jpg,sunacdnquypmsshhsbk.jpg,,,>,Place,,,,,1,,,,,,,x
52,14,Presentation,1,00125931230fa_sunaalltyvjhbzhkmvg.jpg,00750941201fa_sunaeuzwggvibufclwf.jpg,00125931230fa.jpg,sunaalltyvjhbzhkmvg.jpg,00750941201fa.jpg,sunaeuzwggvibufclwf.jpg,,,>,Place,,,,,1,,,,,,,x
53,14,Presentation,1,00062931230fb_sunaaelotvjgibjtjhs.jpg,00797960620fa_sunagufzbeteqdjxais.jpg,00062931230fb.jpg,sunaaelotvjgibjtjhs.jpg,00797960620fa.jpg,sunagufzbeteqdjxais.jpg,,,>,Place,,,,,1,,,,,,,o
54,14,Presentation,1,00809960620fa_sunahbvlpavurqoxdeq.jpg,00119931230fb_sunaakvmbftkrgqhjun.jpg,00809960620fa.jpg,sunahbvlpavurqoxdeq.jpg,00119931230fb.jpg,sunaakvmbftkrgqhjun.jpg,,,>,Place,,,,,1,,,,,,,x
55,14,Presentation,1,00263940128fb_sunabjuovqvyfuzvqwt.jpg,00705941205fa_sunadtlxenqqxsyjvix.jpg,00263940128fb.jpg,sunabjuovqvyfuzvqwt.jpg,00705941205fa.jpg,sunadtlxenqqxsyjvix.jpg,,,>,Place,,,,,0,,,,,,,o
56,14,Presentation,1,00926960627Fa_sunapqwoeotxshkukbh.jpg,00989960627fa_sunbondbduabvijnmch.jpg,00926960627Fa.jpg,sunapqwoeotxshkukbh.jpg,00989960627fa.jpg,sunbondbduabvijnmch.jpg,,,>,Place,,,,,1,,,,,,,x
57,14,Presentation,1,00792941205fa_sunagsiwrmuixqgdimb.jpg,00239940128fa_sunabctlikybqabezjv.jpg,00792941205fa.jpg,sunagsiwrmuixqgdimb.jpg,00239940128fa.jpg,sunabctlikybqabezjv.jpg,,,>,Place,,,,,1,,,,,,,o
58,14,Presentation,1,00198940128fb_sunaazezcsunmhttzxz.jpg,00795941205fa_sunagtumacdlmciqamz.jpg,00198940128fb.jpg,sunaazezcsunmhttzxz.jpg,00795941205fa.jpg,sunagtumacdlmciqamz.jpg,,,>,Place,,,,,1,,,,,,,x
59,14,Presentation,1,00777941205fa_sunagcinxkccdtrjmlv.jpg,00548940519fa_sunacerqowiaeoqkmsq.jpg,00777941205fa.jpg,sunagcinxkccdtrjmlv.jpg,00548940519fa.jpg,sunacerqowiaeoqkmsq.jpg,,,>,Place,,,,,1,,,,,,,x
60,14,Memory,1,,,,,,,sunanainkqdvktzoxyl.jpg,,,,,,,,,,,,,,,
61,14,Memory,1,,,,,,,00730960620fa.jpg,,,,,,,,,,,,,,,
62,14,Memory,1,,,,,,,00903960620fa.jpg,,,,,,,,,,,,,,,
63,14,Memory,1,,,,,,,sunagsiwrmuixqgdimb.jpg,,,,,,,,,,,,,,,
64,14,Memory,1,,,,,,,00911960530fa.jpg,,,,,,,,,,,,,,,
65,14,Memory,1,,,,,,,sunaaelotvjgibjtjhs.jpg,,,,,,,,,,,,,,,
66,14,Memory,1,,,,,,,00163931230fb.jpg,,,,,,,,,,,,,,,
67,14,Memory,1,,,,,,,00681941121fa.jpg,,,,,,,,,,,,,,,
68,14,Memory,1,,,,,,,00062931230fb.jpg,,,,,,,,,,,,,,,
69,14,Memory,1,,,,,,,00800941205fb.jpg,,,,,,,,,,,,,,,
70,14,Memory,1,,,,,,,00795941205fa.jpg,,,,,,,,,,,,,,,
71,14,Memory,1,,,,,,,sunaakvmbftkrgqhjun.jpg,,,,,,,,,,,,,,,
72,14,Memory,1,,,,,,,sunaaxjpzcnxligjtjq.jpg,,,,,,,,,,,,,,,
73,14,Memory,1,,,,,,,sunaooaqzputrowwbsw.jpg,,,,,,,,,,,,,,,
74,14,Memory,1,,,,,,,00750941201fa.jpg,,,,,,,,,,,,,,,
75,14,Memory,1,,,,,,,00119931230fb.jpg,,,,,,,,,,,,,,,
76,14,Memory,1,,,,,,,00507940519fa.jpg,,,,,,,,,,,,,,,
77,14,Memory,1,,,,,,,00790941205fa.jpg,,,,,,,,,,,,,,,
78,14,Memory,1,,,,,,,00296940422fa.jpg,,,,,,,,,,,,,,,
79,14,Memory,1,,,,,,,sunagutjvdvnhxejerz.jpg,,,,,,,,,,,,,,,
80,14,Memory,1,,,,,,,sunagtumacdlmciqamz.jpg,,,,,,,,,,,,,,,
81,14,Memory,1,,,,,,,00809960620fa.jpg,,,,,,,,,,,,,,,
82,14,Memory,1,,,,,,,sunaekgzpfilgjxpeyq.jpg,,,,,,,,,,,,,,,
83,14,Memory,1,,,,,,,00884960530fa.jpg,,,,,,,,,,,,,,,
84,14,Memory,1,,,,,,,sunacacflqoyxhsqzhe.jpg,,,,,,,,,,,,,,,
85,14,Memory,1,,,,,,,00193940928fa.jpg,,,,,,,,,,,,,,,
86,14,Memory,1,,,,,,,sunbondbduabvijnmch.jpg,,,,,,,,,,,,,,,
87,14,Memory,1,,,,,,,00777941205fa.jpg,,,,,,,,,,,,,,,
88,14,Memory,1,,,,,,,sunagpjzsbltchlwvou.jpg,,,,,,,,,,,,,,,
89,14,Memory,1,,,,,,,00792941205fa.jpg,,,,,,,,,,,,,,,
90,14,Memory,1,,,,,,,sunadqmjrhfjyuzyvdd.jpg,,,,,,,,,,,,,,,
91,14,Memory,1,,,,,,,sunahbvlpavurqoxdeq.jpg,,,,,,,,,,,,,,,
92,14,Memory,1,,,,,,,sunakodkcslgqhqlgwl.jpg,,,,,,,,,,,,,,,
93,14,Memory,1,,,,,,,sunaeuzwggvibufclwf.jpg,,,,,,,,,,,,,,,
94,14,Memory,1,,,,,,,00989960627fa.jpg,,,,,,,,,,,,,,,
95,14,Memory,1,,,,,,,sunabrwnslxalcohfre.jpg,,,,,,,,,,,,,,,
96,14,Memory,1,,,,,,,sunaavodbcpygkggnfp.jpg,,,,,,,,,,,,,,,
97,14,Memory,1,,,,,,,00799941205fa.jpg,,,,,,,,,,,,,,,
98,14,Memory,1,,,,,,,sunagvjurcwdbixvnyi.jpg,,,,,,,,,,,,,,,
99,14,Memory,1,,,,,,,sunagcinxkccdtrjmlv.jpg,,,,,,,,,,,,,,,
100,14,Presentation,2,00675941121fa_sunadoxcchtmsxewsau.jpg,00985960627fa_sunbgklxeqjhdbyfhhy.jpg,00675941121fa.jpg,sunadoxcchtmsxewsau.jpg,00985960627fa.jpg,sunbgklxeqjhdbyfhhy.jpg,,,<,Place,,,,,1,,,,,,,o
101,14,Presentation,2,00153931230fa_sunaauhozyxzeeqstxi.jpg,00961960627fa_sunawotxrevnqvamsfp.jpg,00153931230fa.jpg,sunaauhozyxzeeqstxi.jpg,00961960627fa.jpg,sunawotxrevnqvamsfp.jpg,,,<,Place,,,,,1,,,,,,,o
102,14,Presentation,2,00939960627fa_sunarceibpcyacbmfga.jpg,00901960530fa_sunammbnoambmhdxdwd.jpg,00939960627fa.jpg,sunarceibpcyacbmfga.jpg,00901960530fa.jpg,sunammbnoambmhdxdwd.jpg,,,<,Place,,,,,1,,,,,,,x
103,14,Presentation,2,00218940128fa_sunabbwggenhfbftyvi.jpg,00952960627fa_sunathzzbcwjykldrem.jpg,00218940128fa.jpg,sunabbwggenhfbftyvi.jpg,00952960627fa.jpg,sunathzzbcwjykldrem.jpg,,,<,Place,,,,,1,,,,,,,x
104,14,Presentation,2,00828940307fa_sunahuynahneraqftyz.jpg,00885960530fa_sunakwlvxjpddialozd.jpg,00828940307fa.jpg,sunahuynahneraqftyz.jpg,00885960530fa.jpg,sunakwlvxjpddialozd.jpg,,,<,Place,,,,,1,,,,,,,o
105,14,Presentation,2,00742941201fa_sunaenwuebvlpdmntju.jpg,00124931230fa_sunaalhlvzmjmitybdn.jpg,00742941201fa.jpg,sunaenwuebvlpdmntju.jpg,00124931230fa.jpg,sunaalhlvzmjmitybdn.jpg,,,<,Place,,,,,1,,,,,,,x
106,14,Presentation,2,00986960627fa_sunbgzjryivyczuvkvm.jpg,00791941205fa_sunagrmyoovzukhxmlo.jpg,00986960627fa.jpg,sunbgzjryivyczuvkvm.jpg,00791941205fa.jpg,sunagrmyoovzukhxmlo.jpg,,,<,Place,,,,,1,,,,,,,o
107,14,Presentation,2,00063931230fa_sunaaelyvurpntclgau.jpg,00529940519fa_sunacbeefkxpymwevpk.jpg,00063931230fa.jpg,sunaaelyvurpntclgau.jpg,00529940519fa.jpg,sunacbeefkxpymwevpk.jpg,,,<,Place,,,,,1,,,,,,,x
108,14,Presentation,2,00876960620fa_sunajwqkfsykceonyig.jpg,00771941205fa_sunafowswglhxcsufpo.jpg,00876960620fa.jpg,sunajwqkfsykceonyig.jpg,00771941205fa.jpg,sunafowswglhxcsufpo.jpg,,,<,Place,,,,,1,,,,,,,x
109,14,Presentation,2,00835940307fa_sunaijsqpvodplbwxkf.jpg,01003960627fb_sunbwdrdvsweerwsdrj.jpg,00835940307fa.jpg,sunaijsqpvodplbwxkf.jpg,01003960627fb.jpg,sunbwdrdvsweerwsdrj.jpg,,,<,Place,,,,,0,,,,,,,x
110,14,Memory,2,,,,,,,sunbpflsdaxnddnwcqi.jpg,,,,,,,,,,,,,,,
111,14,Memory,2,,,,,,,00787941205fa.jpg,,,,,,,,,,,,,,,
112,14,Memory,2,,,,,,,00571940928fa.jpg,,,,,,,,,,,,,,,
113,14,Memory,2,,,,,,,sunaenwuebvlpdmntju.jpg,,,,,,,,,,,,,,,
114,14,Memory,2,,,,,,,00133931230fa.jpg,,,,,,,,,,,,,,,
115,14,Memory,2,,,,,,,00124931230fa.jpg,,,,,,,,,,,,,,,
116,14,Memory,2,,,,,,,sunagmwxxwymwojbvgi.jpg,,,,,,,,,,,,,,,
117,14,Memory,2,,,,,,,sunafowswglhxcsufpo.jpg,,,,,,,,,,,,,,,
118,14,Memory,2,,,,,,,00908960530fa.jpg,,,,,,,,,,,,,,,
119,14,Memory,2,,,,,,,00063931230fa.jpg,,,,,,,,,,,,,,,
120,14,Memory,2,,,,,,,sunawotxrevnqvamsfp.jpg,,,,,,,,,,,,,,,
121,14,Memory,2,,,,,,,00961960627fa.jpg,,,,,,,,,,,,,,,
122,14,Memory,2,,,,,,,00828940307fa.jpg,,,,,,,,,,,,,,,
123,14,Memory,2,,,,,,,00771941205fa.jpg,,,,,,,,,,,,,,,
124,14,Memory,2,,,,,,,sunanwjjyqqwzqrqagd.jpg,,,,,,,,,,,,,,,
125,14,Memory,2,,,,,,,sunacuatpqpqhyjhjqk.jpg,,,,,,,,,,,,,,,
126,14,Memory,2,,,,,,,00990960627fa.jpg,,,,,,,,,,,,,,,
127,14,Memory,2,,,,,,,00636941031fa.jpg,,,,,,,,,,,,,,,
128,14,Memory,2,,,,,,,00302940422fa.jpg,,,,,,,,,,,,,,,
129,14,Memory,2,,,,,,,00969960627fa.jpg,,,,,,,,,,,,,,,
130,14,Memory,2,,,,,,,sunaydywdmvlfddbxbk.jpg,,,,,,,,,,,,,,,
131,14,Memory,2,,,,,,,00791941205fa.jpg,,,,,,,,,,,,,,,
132,14,Memory,2,,,,,,,00901960530fa.jpg,,,,,,,,,,,,,,,
133,14,Memory,2,,,,,,,00153931230fa.jpg,,,,,,,,,,,,,,,
134,14,Memory,2,,,,,,,00965960627fa.jpg,,,,,,,,,,,,,,,
135,14,Memory,2,,,,,,,sunaaelyvurpntclgau.jpg,,,,,,,,,,,,,,,
136,14,Memory,2,,,,,,,sunadoxcchtmsxewsau.jpg,,,,,,,,,,,,,,,
137,14,Memory,2,,,,,,,sunaddtdkycxbqlpfqa.jpg,,,,,,,,,,,,,,,
138,14,Memory,2,,,,,,,sunaahzooisqkwlxwoz.jpg,,,,,,,,,,,,,,,
139,14,Memory,2,,,,,,,00675941121fa.jpg,,,,,,,,,,,,,,,
140,14,Memory,2,,,,,,,sunaauhozyxzeeqstxi.jpg,,,,,,,,,,,,,,,
141,14,Memory,2,,,,,,,sunagrmyoovzukhxmlo.jpg,,,,,,,,,,,,,,,
142,14,Memory,2,,,,,,,sunahuynahneraqftyz.jpg,,,,,,,,,,,,,,,
143,14,Memory,2,,,,,,,sunammbnoambmhdxdwd.jpg,,,,,,,,,,,,,,,
144,14,Memory,2,,,,,,,sunaanlwnpqndclffxt.jpg,,,,,,,,,,,,,,,
145,14,Memory,2,,,,,,,sunaalhlvzmjmitybdn.jpg,,,,,,,,,,,,,,,
146,14,Memory,2,,,,,,,00095931230fa.jpg,,,,,,,,,,,,,,,
147,14,Memory,2,,,,,,,sunbaoizrfijvhpnnjn.jpg,,,,,,,,,,,,,,,
148,14,Memory,2,,,,,,,00742941201fa.jpg,,,,,,,,,,,,,,,
149,14,Memory,2,,,,,,,sunabtlfmiwtljmoues.jpg,,,,,,,,,,,,,,,
150,14,Presentation,3,00700941121fa_sunadsgmtznewzyasnk.jpg,00973960627fa_sunbbgtoeuzierkkajt.jpg,00700941121fa.jpg,sunadsgmtznewzyasnk.jpg,00973960627fa.jpg,sunbbgtoeuzierkkajt.jpg,,,<,Face,,,,,1,,,,,,,o
151,14,Presentation,3,00158931230fb_sunaavchcbptaerhcfy.jpg,00772941201fa_sunafpfpiiujzoesnqg.jpg,00158931230fb.jpg,sunaavchcbptaerhcfy.jpg,00772941201fa.jpg,sunafpfpiiujzoesnqg.jpg,,,<,Face,,,,,1,,,,,,,x
152,14,Presentation,3,00858940307fa_sunaixpqndlwhwjtjek.jpg,00822940307fa_sunahqrxievfeusiqlt.jpg,00858940307fa.jpg,sunaixpqndlwhwjtjek.jpg,00822940307fa.jpg,sunahqrxievfeusiqlt.jpg,,,<,Face,,,,,1,,,,,,,o
153,14,Presentation,3,00262940128fa_sunabizydfotqddlnjp.jpg,00878960530fa_sunakgbnzxmfohgehnu.jpg,00262940128fa.jpg,sunabizydfotqddlnjp.jpg,00878960530fa.jpg,sunakgbnzxmfohgehnu.jpg,,,<,Face,,,,,1,,,,,,,o
154,14,Presentation,3,00559940519fa_sunacjkmnpawfzbyvae.jpg,00131931230fb_sunaangbuylfvckqqoo.jpg,00559940519fa.jpg,sunacjkmnpawfzbyvae.jpg,00131931230fb.jpg,sunaangbuylfvckqqoo.jpg,,,<,Face,,,,,1,,,,,,,x
155,14,Presentation,3,00498960627fa_sunabzjxlmkwnwzimua.jpg,00185940422fb_sunaawqdbpihmlbwyyn.jpg,00498960627fa.jpg,sunabzjxlmkwnwzimua.jpg,00185940422fb.jpg,sunaawqdbpihmlbwyyn.jpg,,,<,Face,,,,,1,,,,,,,x
156,14,Presentation,3,00796941205fa_sunaguchqqnrtodtezq.jpg,01002960627fb_sunbwaafjdebjzttuvq.jpg,00796941205fa.jpg,sunaguchqqnrtodtezq.jpg,01002960627fb.jpg,sunbwaafjdebjzttuvq.jpg,,,<,Face,,,,,1,,,,,,,x
157,14,Presentation,3,00532960627fa_sunaccdtpgenvcbcbcf.jpg,00631940928fa_sunadbdqzigzwipuipr.jpg,00532960627fa.jpg,sunaccdtpgenvcbcbcf.jpg,00631940928fa.jpg,sunadbdqzigzwipuipr.jpg,,,<,Face,,,,,1,,,,,,,x
158,14,Presentation,3,00957960627fa_sunavhxgmgrqsaptynb.jpg,00609940928fa_sunacycdoztxoluxjyk.jpg,00957960627fa.jpg,sunavhxgmgrqsaptynb.jpg,00609940928fa.jpg,sunacycdoztxoluxjyk.jpg,,,<,Face,,,,,1,,,,,,,o
159,14,Presentation,3,00942960627fa_sunarfdklgdnjgeqfjg.jpg,00266940128fb_sunabkngeblodihjvbk.jpg,00942960627fa.jpg,sunarfdklgdnjgeqfjg.jpg,00266940128fb.jpg,sunabkngeblodihjvbk.jpg,,,<,Face,,,,,1,,,,,,,x
160,14,Memory,3,,,,,,,00743941201fa.jpg,,,,,,,,,,,,,,,
161,14,Memory,3,,,,,,,sunabzjxlmkwnwzimua.jpg,,,,,,,,,,,,,,,
162,14,Memory,3,,,,,,,sunacxeheuiigkcgquf.jpg,,,,,,,,,,,,,,,
163,14,Memory,3,,,,,,,sunacycdoztxoluxjyk.jpg,,,,,,,,,,,,,,,
164,14,Memory,3,,,,,,,00185940422fb.jpg,,,,,,,,,,,,,,,
165,14,Memory,3,,,,,,,01002960627fb.jpg,,,,,,,,,,,,,,,
166,14,Memory,3,,,,,,,sunaaemixhfquhnxxlm.jpg,,,,,,,,,,,,,,,
167,14,Memory,3,,,,,,,sunaixpqndlwhwjtjek.jpg,,,,,,,,,,,,,,,
168,14,Memory,3,,,,,,,00772941201fa.jpg,,,,,,,,,,,,,,,
169,14,Memory,3,,,,,,,sunabxmguapjekttvwm.jpg,,,,,,,,,,,,,,,
170,14,Memory,3,,,,,,,00532960627fa.jpg,,,,,,,,,,,,,,,
171,14,Memory,3,,,,,,,sunaaheqzstzxuadglu.jpg,,,,,,,,,,,,,,,
172,14,Memory,3,,,,,,,00700941121fa.jpg,,,,,,,,,,,,,,,
173,14,Memory,3,,,,,,,00092931230fa.jpg,,,,,,,,,,,,,,,
174,14,Memory,3,,,,,,,sunafpfpiiujzoesnqg.jpg,,,,,,,,,,,,,,,
175,14,Memory,3,,,,,,,00262940128fa.jpg,,,,,,,,,,,,,,,
176,14,Memory,3,,,,,,,sunadfndyrtqqiasoig.jpg,,,,,,,,,,,,,,,
177,14,Memory,3,,,,,,,00609940928fa.jpg,,,,,,,,,,,,,,,
178,14,Memory,3,,,,,,,00065931230fb.jpg,,,,,,,,,,,,,,,
179,14,Memory,3,,,,,,,00562941031fa.jpg,,,,,,,,,,,,,,,
180,14,Memory,3,,,,,,,sunaangbuylfvckqqoo.jpg,,,,,,,,,,,,,,,
181,14,Memory,3,,,,,,,00149931230fa.jpg,,,,,,,,,,,,,,,
182,14,Memory,3,,,,,,,00316940422fa.jpg,,,,,,,,,,,,,,,
183,14,Memory,3,,,,,,,sunaeoghzrjarigmwua.jpg,,,,,,,,,,,,,,,
184,14,Memory,3,,,,,,,sunaauglwmctnkxyird.jpg,,,,,,,,,,,,,,,
185,14,Memory,3,,,,,,,00960960627fa.jpg,,,,,,,,,,,,,,,
186,14,Memory,3,,,,,,,sunaccdtpgenvcbcbcf.jpg,,,,,,,,,,,,,,,
187,14,Memory,3,,,,,,,sunadsgmtznewzyasnk.jpg,,,,,,,,,,,,,,,
188,14,Memory,3,,,,,,,sunaawqdbpihmlbwyyn.jpg,,,,,,,,,,,,,,,
189,14,Memory,3,,,,,,,sunaejnvnpltdmhbcsi.jpg,,,,,,,,,,,,,,,
190,14,Memory,3,,,,,,,00858940307fa.jpg,,,,,,,,,,,,,,,
191,14,Memory,3,,,,,,,sunabizydfotqddlnjp.jpg,,,,,,,,,,,,,,,
192,14,Memory,3,,,,,,,00131931230fb.jpg,,,,,,,,,,,,,,,
193,14,Memory,3,,,,,,,sunbwaafjdebjzttuvq.jpg,,,,,,,,,,,,,,,
194,14,Memory,3,,,,,,,00728941205fa.jpg,,,,,,,,,,,,,,,
195,14,Memory,3,,,,,,,sunacjnahdmqfnjfwqx.jpg,,,,,,,,,,,,,,,
196,14,Memory,3,,,,,,,00498960627fa.jpg,,,,,,,,,,,,,,,
197,14,Memory,3,,,,,,,00648941031fa.jpg,,,,,,,,,,,,,,,
198,14,Memory,3,,,,,,,00598940928fa.jpg,,,,,,,,,,,,,,,
199,14,Memory,3,,,,,,,sunawksfbacycuhbrsc.jpg,,,,,,,,,,,,,,,
200,14,Presentation,4,00132931230fb_sunaanjcbzdvtvblsdy.jpg,00993960627fa_sunbprywzqxjcezkbch.jpg,00132931230fb.jpg,sunaanjcbzdvtvblsdy.jpg,00993960627fa.jpg,sunbprywzqxjcezkbch.jpg,,,>,Place,,,,,1,,,,,,,o
201,14,Presentation,4,00101931230fb_sunaajqmsaavkmgbsth.jpg,00069931230fb_sunaaeowapdkwzqpgqr.jpg,00101931230fb.jpg,sunaajqmsaavkmgbsth.jpg,00069931230fb.jpg,sunaaeowapdkwzqpgqr.jpg,,,>,Place,,,,,1,,,,,,,x
202,14,Presentation,4,00483940519fa_sunabyvpwkgsjtijdwj.jpg,00211940128fa_sunabasphceswhwwqvv.jpg,00483940519fa.jpg,sunabyvpwkgsjtijdwj.jpg,00211940128fa.jpg,sunabasphceswhwwqvv.jpg,,,>,Place,,,,,1,,,,,,,x
203,14,Presentation,4,00123931230fb_sunaalcrrdbjgdztbiz.jpg,00727941205fa_sunaeisnjeetzmkbuad.jpg,00123931230fb.jpg,sunaalcrrdbjgdztbiz.jpg,00727941205fa.jpg,sunaeisnjeetzmkbuad.jpg,,,>,Place,,,,,1,,,,,,,o
204,14,Presentation,4,00111931230fb_sunaakgekhjklxmvulj.jpg,00235940128fb_sunabclssnoeuigtawp.jpg,00111931230fb.jpg,sunaakgekhjklxmvulj.jpg,00235940128fb.jpg,sunabclssnoeuigtawp.jpg,,,>,Place,,,,,1,,,,,,,o
205,14,Presentation,4,00308940422fb_sunabwfvcqqidycwypa.jpg,00762941201fa_sunafgzgbisbopcyslr.jpg,00308940422fb.jpg,sunabwfvcqqidycwypa.jpg,00762941201fa.jpg,sunafgzgbisbopcyslr.jpg,,,>,Place,,,,,1,,,,,,,x
206,14,Presentation,4,00851940307fa_sunaivflshbyfrfzhqb.jpg,00070940307fa_sunaaeplwsfslcbtojr.jpg,00851940307fa.jpg,sunaivflshbyfrfzhqb.jpg,00070940307fa.jpg,sunaaeplwsfslcbtojr.jpg,,,>,Place,,,,,1,,,,,,,o
207,14,Presentation,4,00913960530fa_sunaooffzffbhcpirmm.jpg,00112931230fa_sunaakjaacuzulqckgl.jpg,00913960530fa.jpg,sunaooffzffbhcpirmm.jpg,00112931230fa.jpg,sunaakjaacuzulqckgl.jpg,,,>,Place,,,,,1,,,,,,,x
208,14,Presentation,4,00090931230fa_sunaahedjlmtqekgyvj.jpg,00847940307fa_sunaivdjruhkrfywfed.jpg,00090931230fa.jpg,sunaahedjlmtqekgyvj.jpg,00847940307fa.jpg,sunaivdjruhkrfywfed.jpg,,,>,Place,,,,,1,,,,,,,o
209,14,Presentation,4,00943960627fa_sunarpsxqkduedrrzyi.jpg,00505960627fa_sunabzuqsrgcsonqlkz.jpg,00943960627fa.jpg,sunarpsxqkduedrrzyi.jpg,00505960627fa.jpg,sunabzuqsrgcsonqlkz.jpg,,,>,Place,,,,,1,,,,,,,x
210,14,Memory,4,,,,,,,00895960530fa.jpg,,,,,,,,,,,,,,,
211,14,Memory,4,,,,,,,00847940307fa.jpg,,,,,,,,,,,,,,,
212,14,Memory,4,,,,,,,00770941201fa.jpg,,,,,,,,,,,,,,,
213,14,Memory,4,,,,,,,sunaakgekhjklxmvulj.jpg,,,,,,,,,,,,,,,
214,14,Memory,4,,,,,,,sunagfvluwixdsozaql.jpg,,,,,,,,,,,,,,,
215,14,Memory,4,,,,,,,00132931230fb.jpg,,,,,,,,,,,,,,,
216,14,Memory,4,,,,,,,00483940519fa.jpg,,,,,,,,,,,,,,,
217,14,Memory,4,,,,,,,00913960530fa.jpg,,,,,,,,,,,,,,,
218,14,Memory,4,,,,,,,00825940307fa.jpg,,,,,,,,,,,,,,,
219,14,Memory,4,,,,,,,sunahrltmuwbiehihpe.jpg,,,,,,,,,,,,,,,
220,14,Memory,4,,,,,,,00943960627fa.jpg,,,,,,,,,,,,,,,
221,14,Memory,4,,,,,,,00111931230fb.jpg,,,,,,,,,,,,,,,
222,14,Memory,4,,,,,,,sunbbxkanhzjgbwyxqs.jpg,,,,,,,,,,,,,,,
223,14,Memory,4,,,,,,,sunacvzhvcksnwqcqbw.jpg,,,,,,,,,,,,,,,
224,14,Memory,4,,,,,,,sunaooffzffbhcpirmm.jpg,,,,,,,,,,,,,,,
225,14,Memory,4,,,,,,,sunaeisnjeetzmkbuad.jpg,,,,,,,,,,,,,,,
226,14,Memory,4,,,,,,,sunamlotskmmsjeogby.jpg,,,,,,,,,,,,,,,
227,14,Memory,4,,,,,,,00977960627fa.jpg,,,,,,,,,,,,,,,
228,14,Memory,4,,,,,,,00069931230fb.jpg,,,,,,,,,,,,,,,
229,14,Memory,4,,,,,,,00993960627fa.jpg,,,,,,,,,,,,,,,
230,14,Memory,4,,,,,,,sunabyvpwkgsjtijdwj.jpg,,,,,,,,,,,,,,,
231,14,Memory,4,,,,,,,00120931230fa.jpg,,,,,,,,,,,,,,,
232,14,Memory,4,,,,,,,00235940128fb.jpg,,,,,,,,,,,,,,,
233,14,Memory,4,,,,,,,00581940928fa.jpg,,,,,,,,,,,,,,,
234,14,Memory,4,,,,,,,sunaanjcbzdvtvblsdy.jpg,,,,,,,,,,,,,,,
235,14,Memory,4,,,,,,,sunaiwfobocrruqznsv.jpg,,,,,,,,,,,,,,,
236,14,Memory,4,,,,,,,sunajoveqhiprwqgoco.jpg,,,,,,,,,,,,,,,
237,14,Memory,4,,,,,,,sunaakxgygjfqrzpyoz.jpg,,,,,,,,,,,,,,,
238,14,Memory,4,,,,,,,sunaaeowapdkwzqpgqr.jpg,,,,,,,,,,,,,,,
239,14,Memory,4,,,,,,,sunaflojskatpeqyzqp.jpg,,,,,,,,,,,,,,,
240,14,Memory,4,,,,,,,sunamczizlzavhzhpay.jpg,,,,,,,,,,,,,,,
241,14,Memory,4,,,,,,,00857940307fa.jpg,,,,,,,,,,,,,,,
242,14,Memory,4,,,,,,,00900960530fa.jpg,,,,,,,,,,,,,,,
243,14,Memory,4,,,,,,,00727941205fa.jpg,,,,,,,,,,,,,,,
244,14,Memory,4,,,,,,,00782941205fa.jpg,,,,,,,,,,,,,,,
245,14,Memory,4,,,,,,,sunabclssnoeuigtawp.jpg,,,,,,,,,,,,,,,
246,14,Memory,4,,,,,,,00869940307fa.jpg,,,,,,,,,,,,,,,
247,14,Memory,4,,,,,,,sunbprywzqxjcezkbch.jpg,,,,,,,,,,,,,,,
248,14,Memory,4,,,,,,,sunarpsxqkduedrrzyi.jpg,,,,,,,,,,,,,,,
249,14,Memory,4,,,,,,,sunaivdjruhkrfywfed.jpg,,,,,,,,,,,,,,,
250,14,Presentation,5,00870940307fa_sunajrgtewnualfcerj.jpg,00838940307fa_sunaiozxhxgtfrmoagh.jpg,00870940307fa.jpg,sunajrgtewnualfcerj.jpg,00838940307fa.jpg,sunaiozxhxgtfrmoagh.jpg,,,<,Place,,,,,1,,,,,,,o
251,14,Presentation,5,00898960530fa_sunamkmeblgteyggink.jpg,00866940307fa_sunajbwkywmsqkldfml.jpg,00898960530fa.jpg,sunamkmeblgteyggink.jpg,00866940307fa.jpg,sunajbwkywmsqkldfml.jpg,,,<,Place,,,,,1,,,,,,,x
252,14,Presentation,5,00929960627fa_sunaprnrbmgkomdbchr.jpg,00271940422fa_sunabmbnddafmywtjjj.jpg,00929960627fa.jpg,sunaprnrbmgkomdbchr.jpg,00271940422fa.jpg,sunabmbnddafmywtjjj.jpg,,,<,Place,,,,,1,,,,,,,o
253,14,Presentation,5,00785941205fa_sunaglqunwuycxydmyu.jpg,00894960620fa_sunalqmfgeadpqsyzpd.jpg,00785941205fa.jpg,sunaglqunwuycxydmyu.jpg,00894960620fa.jpg,sunalqmfgeadpqsyzpd.jpg,,,<,Place,,,,,1,,,,,,,o
254,14,Presentation,5,00752960620fa_sunafbwnojpqeyzssoe.jpg,00902960530fa_sunanaacmmosxrfwmvl.jpg,00752960620fa.jpg,sunafbwnojpqeyzssoe.jpg,00902960530fa.jpg,sunanaacmmosxrfwmvl.jpg,,,<,Place,,,,,0,,,,,,,o
255,14,Presentation,5,00836940307fa_sunainqelldeebvxtcz.jpg,00227940128fa_sunabckqabszusgcykj.jpg,00836940307fa.jpg,sunainqelldeebvxtcz.jpg,00227940128fa.jpg,sunabckqabszusgcykj.jpg,,,<,Place,,,,,1,,,,,,,o
256,14,Presentation,5,00676941121fa_sunadpnqovzckyikrjo.jpg,00862940307fa_sunaizgnnplsvajzhkc.jpg,00676941121fa.jpg,sunadpnqovzckyikrjo.jpg,00862940307fa.jpg,sunaizgnnplsvajzhkc.jpg,,,<,Place,,,,,1,,,,,,,x
257,14,Presentation,5,00154931230fa_sunaauueuhhvklldjik.jpg,00096931230fa_sunaaiqiqcggrskoqgy.jpg,00154931230fa.jpg,sunaauueuhhvklldjik.jpg,00096931230fa.jpg,sunaaiqiqcggrskoqgy.jpg,,,<,Place,,,,,0,,,,,,,x
258,14,Presentation,5,00891960530fa_sunalkiibhqpxfamlll.jpg,00935960627fa_sunaqbmgkgqucajzrkp.jpg,00891960530fa.jpg,sunalkiibhqpxfamlll.jpg,00935960627fa.jpg,sunaqbmgkgqucajzrkp.jpg,,,<,Place,,,,,1,,,,,,,o
259,14,Presentation,5,00694941121fa_sunadrmfzmstgdjdcod.jpg,00950960627fa_sunasrjlmglmjzbmqxb.jpg,00694941121fa.jpg,sunadrmfzmstgdjdcod.jpg,00950960627fa.jpg,sunasrjlmglmjzbmqxb.jpg,,,<,Place,,,,,1,,,,,,,o
260,14,Memory,5,,,,,,,00276940422fa.jpg,,,,,,,,,,,,,,,
261,14,Memory,5,,,,,,,00841940307fa.jpg,,,,,,,,,,,,,,,
262,14,Memory,5,,,,,,,sunaauueuhhvklldjik.jpg,,,,,,,,,,,,,,,
263,14,Memory,5,,,,,,,sunaafbmtoniaasysgu.jpg,,,,,,,,,,,,,,,
264,14,Memory,5,,,,,,,00719960620fa.jpg,,,,,,,,,,,,,,,
265,14,Memory,5,,,,,,,sunabmytpyhsgigllxu.jpg,,,,,,,,,,,,,,,
266,14,Memory,5,,,,,,,00752960620fa.jpg,,,,,,,,,,,,,,,
267,14,Memory,5,,,,,,,sunabeyhmxodahoieyk.jpg,,,,,,,,,,,,,,,
268,14,Memory,5,,,,,,,sunafgdqbclkwfocdhg.jpg,,,,,,,,,,,,,,,
269,14,Memory,5,,,,,,,sunasrjlmglmjzbmqxb.jpg,,,,,,,,,,,,,,,
270,14,Memory,5,,,,,,,sunaczwgyukesaajxnx.jpg,,,,,,,,,,,,,,,
271,14,Memory,5,,,,,,,sunaptrqvaooxfvktvw.jpg,,,,,,,,,,,,,,,
272,14,Memory,5,,,,,,,00902960530fa.jpg,,,,,,,,,,,,,,,
273,14,Memory,5,,,,,,,sunabmbnddafmywtjjj.jpg,,,,,,,,,,,,,,,
274,14,Memory,5,,,,,,,00894960620fa.jpg,,,,,,,,,,,,,,,
275,14,Memory,5,,,,,,,00073931230fa.jpg,,,,,,,,,,,,,,,
276,14,Memory,5,,,,,,,sunadzuvtmtmgupotmf.jpg,,,,,,,,,,,,,,,
277,14,Memory,5,,,,,,,00694941121fa.jpg,,,,,,,,,,,,,,,
278,14,Memory,5,,,,,,,00929960627fa.jpg,,,,,,,,,,,,,,,
279,14,Memory,5,,,,,,,sunaprnrbmgkomdbchr.jpg,,,,,,,,,,,,,,,
280,14,Memory,5,,,,,,,00245940128fa.jpg,,,,,,,,,,,,,,,
281,14,Memory,5,,,,,,,sundbixjudsgeuuehrn.jpg,,,,,,,,,,,,,,,
282,14,Memory,5,,,,,,,sunajbwkywmsqkldfml.jpg,,,,,,,,,,,,,,,
283,14,Memory,5,,,,,,,sunanaacmmosxrfwmvl.jpg,,,,,,,,,,,,,,,
284,14,Memory,5,,,,,,,sunalqmfgeadpqsyzpd.jpg,,,,,,,,,,,,,,,
285,14,Memory,5,,,,,,,sunadrmfzmstgdjdcod.jpg,,,,,,,,,,,,,,,
286,14,Memory,5,,,,,,,00950960627fa.jpg,,,,,,,,,,,,,,,
287,14,Memory,5,,,,,,,00891960530fa.jpg,,,,,,,,,,,,,,,
288,14,Memory,5,,,,,,,00761960627fa.jpg,,,,,,,,,,,,,,,
289,14,Memory,5,,,,,,,sunafbwnojpqeyzssoe.jpg,,,,,,,,,,,,,,,
290,14,Memory,5,,,,,,,00866940307fa.jpg,,,,,,,,,,,,,,,
291,14,Memory,5,,,,,,,00154931230fa.jpg,,,,,,,,,,,,,,,
292,14,Memory,5,,,,,,,sunaletopenvvozhpxc.jpg,,,,,,,,,,,,,,,
293,14,Memory,5,,,,,,,00630940928fa.jpg,,,,,,,,,,,,,,,
294,14,Memory,5,,,,,,,00889960530fa.jpg,,,,,,,,,,,,,,,
295,14,Memory,5,,,,,,,00931960627fa.jpg,,,,,,,,,,,,,,,
296,14,Memory,5,,,,,,,01207940128fa.jpg,,,,,,,,,,,,,,,
297,14,Memory,5,,,,,,,sunaisiwfgppimtnmxl.jpg,,,,,,,,,,,,,,,
298,14,Memory,5,,,,,,,00271940422fa.jpg,,,,,,,,,,,,,,,
299,14,Memory,5,,,,,,,sunalkiibhqpxfamlll.jpg,,,,,,,,,,,,,,,
300,14,Presentation,6,00081941031fa_sunaaftlyfudyzuhqzf.jpg,00647941031fa_sunadflbrkckmepztql.jpg,00081941031fa.jpg,sunaaftlyfudyzuhqzf.jpg,00647941031fa.jpg,sunadflbrkckmepztql.jpg,,,>,Face,,,,,0,,,,,,,o
301,14,Presentation,6,00967960627fa_sunbaejotfklekvpxcz.jpg,00811960530fa_sunahedfrhtcwpneund.jpg,00967960627fa.jpg,sunbaejotfklekvpxcz.jpg,00811960530fa.jpg,sunahedfrhtcwpneund.jpg,,,>,Face,,,,,1,,,,,,,o
302,14,Presentation,6,00076931230fa_sunaafewhewbxmjiurz.jpg,00999960627fa_sunbvbrvgbpanfrawft.jpg,00076931230fa.jpg,sunaafewhewbxmjiurz.jpg,00999960627fa.jpg,sunbvbrvgbpanfrawft.jpg,,,>,Face,,,,,1,,,,,,,x
303,14,Presentation,6,00877960530fa_sunajxpkuhbizeveguy.jpg,00082931230fa_sunaafvitpexrpvumsa.jpg,00877960530fa.jpg,sunajxpkuhbizeveguy.jpg,00082931230fa.jpg,sunaafvitpexrpvumsa.jpg,,,>,Face,,,,,0,,,,,,,x
304,14,Presentation,6,00568940928fa_sunacsdhbbsybcyxnel.jpg,00778941205fa_sunagcthdfirrcawoic.jpg,00568940928fa.jpg,sunacsdhbbsybcyxnel.jpg,00778941205fa.jpg,sunagcthdfirrcawoic.jpg,,,>,Face,,,,,1,,,,,,,x
305,14,Presentation,6,00859940307fa_sunaiycurtqsfkvcaso.jpg,00812941205fa_sunahgtbwgsmtqeodwh.jpg,00859940307fa.jpg,sunaiycurtqsfkvcaso.jpg,00812941205fa.jpg,sunahgtbwgsmtqeodwh.jpg,,,>,Face,,,,,1,,,,,,,o
306,14,Presentation,6,00868960307fa_sunajjxttslobudoqbv.jpg,00634940928fa_sunadcphrizvfpljiqt.jpg,00868960307fa.jpg,sunajjxttslobudoqbv.jpg,00634940928fa.jpg,sunadcphrizvfpljiqt.jpg,,,>,Face,,,,,1,,,,,,,o
307,14,Presentation,6,00126931230fb_sunaamdjwemxpmmtypi.jpg,00906960530fa_sunantryfbloeaomfta.jpg,00126931230fb.jpg,sunaamdjwemxpmmtypi.jpg,00906960530fa.jpg,sunantryfbloeaomfta.jpg,,,>,Face,,,,,1,,,,,,,o
308,14,Presentation,6,00306940422fa_sunabueyoajufbkraki.jpg,00848940307fa_sunaivdylrawbmhryfp.jpg,00306940422fa.jpg,sunabueyoajufbkraki.jpg,00848940307fa.jpg,sunaivdylrawbmhryfp.jpg,,,>,Face,,,,,1,,,,,,,x
309,14,Presentation,6,00638941031fa_sunadfktsqjthoglcsm.jpg,00140931230fb_sunaapllqyqlykszopd.jpg,00638941031fa.jpg,sunadfktsqjthoglcsm.jpg,00140931230fb.jpg,sunaapllqyqlykszopd.jpg,,,>,Face,,,,,1,,,,,,,o
310,14,Memory,6,,,,,,,sunabqowuarvqqcnipn.jpg,,,,,,,,,,,,,,,
311,14,Memory,6,,,,,,,00906960530fa.jpg,,,,,,,,,,,,,,,
312,14,Memory,6,,,,,,,sunayaepykrqvenaqqy.jpg,,,,,,,,,,,,,,,
313,14,Memory,6,,,,,,,00967960627fa.jpg,,,,,,,,,,,,,,,
314,14,Memory,6,,,,,,,00811960530fa.jpg,,,,,,,,,,,,,,,
315,14,Memory,6,,,,,,,sunaemcowdozyphwknd.jpg,,,,,,,,,,,,,,,
316,14,Memory,6,,,,,,,00568940928fa.jpg,,,,,,,,,,,,,,,
317,14,Memory,6,,,,,,,00290940422fa.jpg,,,,,,,,,,,,,,,
318,14,Memory,6,,,,,,,sunahgtbwgsmtqeodwh.jpg,,,,,,,,,,,,,,,
319,14,Memory,6,,,,,,,sunaetydippjxikifsb.jpg,,,,,,,,,,,,,,,
320,14,Memory,6,,,,,,,00778941205fa.jpg,,,,,,,,,,,,,,,
321,14,Memory,6,,,,,,,00854940307fa.jpg,,,,,,,,,,,,,,,
322,14,Memory,6,,,,,,,00145931230fb.jpg,,,,,,,,,,,,,,,
323,14,Memory,6,,,,,,,00746941201fa.jpg,,,,,,,,,,,,,,,
324,14,Memory,6,,,,,,,sunahiphsekjihkafsl.jpg,,,,,,,,,,,,,,,
325,14,Memory,6,,,,,,,sunacsdhbbsybcyxnel.jpg,,,,,,,,,,,,,,,
326,14,Memory,6,,,,,,,sunacvjlsylseoghjup.jpg,,,,,,,,,,,,,,,
327,14,Memory,6,,,,,,,sunahedfrhtcwpneund.jpg,,,,,,,,,,,,,,,
328,14,Memory,6,,,,,,,sunadfktsqjthoglcsm.jpg,,,,,,,,,,,,,,,
329,14,Memory,6,,,,,,,00963960627fa.jpg,,,,,,,,,,,,,,,
330,14,Memory,6,,,,,,,00077931230fb.jpg,,,,,,,,,,,,,,,
331,14,Memory,6,,,,,,,00999960627fa.jpg,,,,,,,,,,,,,,,
332,14,Memory,6,,,,,,,00638941031fa.jpg,,,,,,,,,,,,,,,
333,14,Memory,6,,,,,,,00741941201fa.jpg,,,,,,,,,,,,,,,
334,14,Memory,6,,,,,,,sunagcthdfirrcawoic.jpg,,,,,,,,,,,,,,,
335,14,Memory,6,,,,,,,sunaiycurtqsfkvcaso.jpg,,,,,,,,,,,,,,,
336,14,Memory,6,,,,,,,00877960530fa.jpg,,,,,,,,,,,,,,,
337,14,Memory,6,,,,,,,00812941205fa.jpg,,,,,,,,,,,,,,,
338,14,Memory,6,,,,,,,00815941205fa.jpg,,,,,,,,,,,,,,,
339,14,Memory,6,,,,,,,sunbbfqwjpdxniyhies.jpg,,,,,,,,,,,,,,,
340,14,Memory,6,,,,,,,sunbaejotfklekvpxcz.jpg,,,,,,,,,,,,,,,
341,14,Memory,6,,,,,,,sunbvbrvgbpanfrawft.jpg,,,,,,,,,,,,,,,
342,14,Memory,6,,,,,,,00972960627fa.jpg,,,,,,,,,,,,,,,
343,14,Memory,6,,,,,,,00576941031fa.jpg,,,,,,,,,,,,,,,
344,14,Memory,6,,,,,,,sunaafgqutfaishsxyu.jpg,,,,,,,,,,,,,,,
345,14,Memory,6,,,,,,,sunantryfbloeaomfta.jpg,,,,,,,,,,,,,,,
346,14,Memory,6,,,,,,,sunaatjesvdupctftmn.jpg,,,,,,,,,,,,,,,
347,14,Memory,6,,,,,,,00859940307fa.jpg,,,,,,,,,,,,,,,
348,14,Memory,6,,,,,,,sunaiwduelojtwaqeyh.jpg,,,,,,,,,,,,,,,
349,14,Memory,6,,,,,,,sunajxpkuhbizeveguy.jpg,,,,,,,,,,,,,,,
350,14,Presentation,7,01000960627fa_sunbvzmgrdvaakxusbu.jpg,00093931230fa_sunaahwnmtqsrhocysw.jpg,01000960627fa.jpg,sunbvzmgrdvaakxusbu.jpg,00093931230fa.jpg,sunaahwnmtqsrhocysw.jpg,,,>,Face,,,,,1,,,,,,,o
351,14,Presentation,7,00098931230fa_sunaajpqmulidejvjsr.jpg,00804960530fa_sunagwswhkvnsmuszlz.jpg,00098931230fa.jpg,sunaajpqmulidejvjsr.jpg,00804960530fa.jpg,sunagwswhkvnsmuszlz.jpg,,,>,Face,,,,,1,,,,,,,x
352,14,Presentation,7,00221940128fa_sunabcfpwlpolnutyju.jpg,00292940422fb_sunabrjdpmoedcdjbpo.jpg,00221940128fa.jpg,sunabcfpwlpolnutyju.jpg,00292940422fb.jpg,sunabrjdpmoedcdjbpo.jpg,,,>,Face,,,,,1,,,,,,,o
353,14,Presentation,7,00705960530fa_sunaduslxfzlbxlllnz.jpg,00780960530fa_sunagetqixeypsysbpn.jpg,00705960530fa.jpg,sunaduslxfzlbxlllnz.jpg,00780960530fa.jpg,sunagetqixeypsysbpn.jpg,,,>,Face,,,,,1,,,,,,,x
354,14,Presentation,7,00635941031fa_sunaddsaeicthrfbkhe.jpg,00210940128fb_sunabanoxjtqxamkucc.jpg,00635941031fa.jpg,sunaddsaeicthrfbkhe.jpg,00210940128fb.jpg,sunabanoxjtqxamkucc.jpg,,,>,Face,,,,,1,,,,,,,o
355,14,Presentation,7,00819940307fa_sunahqldjibofgsfdgb.jpg,00184940128fa_sunaavtbadenwnzeutj.jpg,00819940307fa.jpg,sunahqldjibofgsfdgb.jpg,00184940128fa.jpg,sunaavtbadenwnzeutj.jpg,,,>,Face,,,,,1,,,,,,,o
356,14,Presentation,7,00775941205fa_sunafvwfsmqkjrutjta.jpg,00805941205fa_sunagwzdbtlixdhgolm.jpg,00775941205fa.jpg,sunafvwfsmqkjrutjta.jpg,00805941205fa.jpg,sunagwzdbtlixdhgolm.jpg,,,>,Face,,,,,1,,,,,,,x
357,14,Presentation,7,00953960627fa_sunatstrpjxhvtbaczf.jpg,00766960620fa_sunafijbgncijwykrnl.jpg,00953960627fa.jpg,sunatstrpjxhvtbaczf.jpg,00766960620fa.jpg,sunafijbgncijwykrnl.jpg,,,>,Face,,,,,1,,,,,,,o
358,14,Presentation,7,00071941031fa_sunaaexqbtdswxrqjvz.jpg,00807941205fa_sunahawfngukizslzsd.jpg,00071941031fa.jpg,sunaaexqbtdswxrqjvz.jpg,00807941205fa.jpg,sunahawfngukizslzsd.jpg,,,>,Face,,,,,0,,,,,,,x
359,14,Presentation,7,00887960530_sunalcrtwiycqobgelp.jpg,01009960627fa_sunbxzweleltykebgan.jpg,00887960530.jpg,sunalcrtwiycqobgelp.jpg,01009960627fa.jpg,sunbxzweleltykebgan.jpg,,,>,Face,,,,,1,,,,,,,x
360,14,Memory,7,,,,,,,00184940128fa.jpg,,,,,,,,,,,,,,,
361,14,Memory,7,,,,,,,00775941205fa.jpg,,,,,,,,,,,,,,,
362,14,Memory,7,,,,,,,00071941031fa.jpg,,,,,,,,,,,,,,,
363,14,Memory,7,,,,,,,00751960620fa.jpg,,,,,,,,,,,,,,,
364,14,Memory,7,,,,,,,sunabcfpwlpolnutyju.jpg,,,,,,,,,,,,,,,
365,14,Memory,7,,,,,,,sunaavtbadenwnzeutj.jpg,,,,,,,,,,,,,,,
366,14,Memory,7,,,,,,,sunagpancjmxqfazssf.jpg,,,,,,,,,,,,,,,
367,14,Memory,7,,,,,,,sunagtqhhwxjeuxdebe.jpg,,,,,,,,,,,,,,,
368,14,Memory,7,,,,,,,sunaajpqmulidejvjsr.jpg,,,,,,,,,,,,,,,
369,14,Memory,7,,,,,,,00564940928fa.jpg,,,,,,,,,,,,,,,
370,14,Memory,7,,,,,,,sunafvwfsmqkjrutjta.jpg,,,,,,,,,,,,,,,
371,14,Memory,7,,,,,,,00949960627fb.jpg,,,,,,,,,,,,,,,
372,14,Memory,7,,,,,,,sunafijbgncijwykrnl.jpg,,,,,,,,,,,,,,,
373,14,Memory,7,,,,,,,00789960620fa.jpg,,,,,,,,,,,,,,,
374,14,Memory,7,,,,,,,sunacmpqqfbsvlzinzl.jpg,,,,,,,,,,,,,,,
375,14,Memory,7,,,,,,,sunagmhildamktmqjss.jpg,,,,,,,,,,,,,,,
376,14,Memory,7,,,,,,,sunaeomlfaabhpswasy.jpg,,,,,,,,,,,,,,,
377,14,Memory,7,,,,,,,01009960627fa.jpg,,,,,,,,,,,,,,,
378,14,Memory,7,,,,,,,00221940128fa.jpg,,,,,,,,,,,,,,,
379,14,Memory,7,,,,,,,sunaaexpnawiehinlpy.jpg,,,,,,,,,,,,,,,
380,14,Memory,7,,,,,,,00959960627fa.jpg,,,,,,,,,,,,,,,
381,14,Memory,7,,,,,,,00071940128fa.jpg,,,,,,,,,,,,,,,
382,14,Memory,7,,,,,,,00670941121fa.jpg,,,,,,,,,,,,,,,
383,14,Memory,7,,,,,,,sunadochqcucscehsgk.jpg,,,,,,,,,,,,,,,
384,14,Memory,7,,,,,,,sunaduslxfzlbxlllnz.jpg,,,,,,,,,,,,,,,
385,14,Memory,7,,,,,,,sunagetqixeypsysbpn.jpg,,,,,,,,,,,,,,,
386,14,Memory,7,,,,,,,00098931230fa.jpg,,,,,,,,,,,,,,,
387,14,Memory,7,,,,,,,sunaaexqbtdswxrqjvz.jpg,,,,,,,,,,,,,,,
388,14,Memory,7,,,,,,,sunahawfngukizslzsd.jpg,,,,,,,,,,,,,,,
389,14,Memory,7,,,,,,,sunavxokzybtomhbmvm.jpg,,,,,,,,,,,,,,,
390,14,Memory,7,,,,,,,sunasnqkkyhilqkxiqm.jpg,,,,,,,,,,,,,,,
391,14,Memory,7,,,,,,,00766960620fa.jpg,,,,,,,,,,,,,,,
392,14,Memory,7,,,,,,,00786941205fa.jpg,,,,,,,,,,,,,,,
393,14,Memory,7,,,,,,,00794960620fa.jpg,,,,,,,,,,,,,,,
394,14,Memory,7,,,,,,,sunaezuszgtxnmsxdbk.jpg,,,,,,,,,,,,,,,
395,14,Memory,7,,,,,,,sunbxzweleltykebgan.jpg,,,,,,,,,,,,,,,
396,14,Memory,7,,,,,,,00780960530fa.jpg,,,,,,,,,,,,,,,
397,14,Memory,7,,,,,,,00744941201fa.jpg,,,,,,,,,,,,,,,
398,14,Memory,7,,,,,,,00705960530fa.jpg,,,,,,,,,,,,,,,
399,14,Memory,7,,,,,,,00807941205fa.jpg,,,,,,,,,,,,,,,
