,Subject,Trial Type,Run,Cued Composite,Uncued Composite,Cued Face,Cued Place,Uncued Face,Uncued Place,Memory Image,Category,Cued Side,Cued Category,Attention Reaction Time (s),Familiarity Reaction Time (s),Familiarity Rating,Attention Level,Cue Validity,Post Invalid Cue,Pre Invalid Cue,Attention Button,Rating History,Stimulus Onset,Stimulus End,Attention Probe
160,14,Memory,3,,,,,,,00743941201fa.jpg,,,,,1.436,2.0,,,,,,,1539186339.017964,1539186341.568246,
161,14,Memory,3,,,,,,,sunabzjxlmkwnwzimua.jpg,,,,,1.67,3.0,,,,,,,1539186342.95216,1539186345.268419,
162,14,Memory,3,,,,,,,sunacxeheuiigkcgquf.jpg,,,,,1.236,4.0,,,,,,,1539186346.6211,1539186349.021147,
163,14,Memory,3,,,,,,,sunacycdoztxoluxjyk.jpg,,,,,1.204,2.0,,,,,,,1539186350.471384,1539186352.80582,
164,14,Memory,3,,,,,,,00185940422fb.jpg,,,,,1.301,4.0,,,,,,,1539186354.17261,1539186356.657529,
165,14,Memory,3,,,,,,,01002960627fb.jpg,,,,,1.269,3.0,,,,,,,1539186358.057742,1539186360.490352,
166,14,Memory,3,,,,,,,sunaaemixhfquhnxxlm.jpg,,,,,1.517,4.0,,,,,,,1539186361.892275,1539186364.342898,
167,14,Memory,3,,,,,,,sunaixpqndlwhwjtjek.jpg,,,,,1.052,3.0,,,,,,,1539186365.760133,1539186368.093153,
168,14,Memory,3,,,,,,,00772941201fa.jpg,,,,,0.769,1.0,,,,,,,1539186369.493328,1539186371.978716,
169,14,Memory,3,,,,,,,sunabxmguapjekttvwm.jpg,,,,,1.434,4.0,,,,,,,1539186373.395878,1539186375.780389,
170,14,Memory,3,,,,,,,00532960627fa.jpg,,,,,2.153,3.0,,,,,,,1539186377.22982,1539186379.747242,
171,14,Memory,3,,,,,,,sunaaheqzstzxuadglu.jpg,,,,,0.0,,,,,,,,1539186381.115141,1539186383.665911,
172,14,Memory,3,,,,,,,00700941121fa.jpg,,,,,1.604,3.0,,,,,,,1539186385.115744,1539186387.617674,
173,14,Memory,3,,,,,,,00092931230fa.jpg,,,,,0.937,2.0,,,,,,,1539186388.96756,1539186391.468699,
174,14,Memory,3,,,,,,,sunafpfpiiujzoesnqg.jpg,,,,,0.836,4.0,,,,,,,1539186392.885469,1539186395.25287,
175,14,Memory,3,,,,,,,00262940128fa.jpg,,,,,0.887,1.0,,,,,,,1539186396.670682,1539186399.053327,
176,14,Memory,3,,,,,,,sunadfndyrtqqiasoig.jpg,,,,,0.823,4.0,,,,,,,1539186400.454019,1539186402.922134,
177,14,Memory,3,,,,,,,00609940928fa.jpg,,,,,1.053,4.0,,,,,,,1539186404.305824,1539186406.68907,
178,14,Memory,3,,,,,,,00065931230fb.jpg,,,,,0.687,3.0,,,,,,,1539186408.139622,1539186410.507493,
179,14,Memory,3,,,,,,,00562941031fa.jpg,,,,,0.77,2.0,,,,,,,1539186411.85778,1539186414.308576,
180,14,Memory,3,,,,,,,sunaangbuylfvckqqoo.jpg,,,,,0.585,4.0,,,,,,,1539186415.725641,1539186418.076137,
181,14,Memory,3,,,,,,,00149931230fa.jpg,,,,,0.936,4.0,,,,,,,1539186419.559619,1539186421.911087,
182,14,Memory,3,,,,,,,00316940422fa.jpg,,,,,1.252,3.0,,,,,,,1539186423.312158,1539186425.829433,
183,14,Memory,3,,,,,,,sunaeoghzrjarigmwua.jpg,,,,,1.52,1.0,,,,,,,1539186427.263219,1539186429.579964,
184,14,Memory,3,,,,,,,sunaauglwmctnkxyird.jpg,,,,,1.487,4.0,,,,,,,1539186431.0986,1539186433.598658,
185,14,Memory,3,,,,,,,00960960627fa.jpg,,,,,0.854,4.0,,,,,,,1539186435.031936,1539186437.249255,
186,14,Memory,3,,,,,,,sunaccdtpgenvcbcbcf.jpg,,,,,0.87,3.0,,,,,,,1539186438.68258,1539186441.068226,
187,14,Memory,3,,,,,,,sunadsgmtznewzyasnk.jpg,,,,,0.753,2.0,,,,,,,1539186442.41733,1539186444.768595,
188,14,Memory,3,,,,,,,sunaawqdbpihmlbwyyn.jpg,,,,,0.819,4.0,,,,,,,1539186446.218465,1539186448.636243,
189,14,Memory,3,,,,,,,sunaejnvnpltdmhbcsi.jpg,,,,,1.087,1.0,,,,,,,1539186450.019546,1539186452.403941,
190,14,Memory,3,,,,,,,00858940307fa.jpg,,,,,1.972,3.0,,,,,,,1539186453.821134,1539186456.305811,
191,14,Memory,3,,,,,,,sunabizydfotqddlnjp.jpg,,,,,2.04,4.0,,,,,,,1539186457.77311,1539186460.256895,
192,14,Memory,3,,,,,,,00131931230fb.jpg,,,,,0.887,4.0,,,,,,,1539186461.6572,1539186464.208388,
193,14,Memory,3,,,,,,,sunbwaafjdebjzttuvq.jpg,,,,,0.803,1.0,,,,,,,1539186465.62568,1539186468.07655,
194,14,Memory,3,,,,,,,00728941205fa.jpg,,,,,0.968,2.0,,,,,,,1539186469.459434,1539186471.828812,
195,14,Memory,3,,,,,,,sunacjnahdmqfnjfwqx.jpg,,,,,1.953,1.0,,,,,,,1539186473.262139,1539186475.6128,
196,14,Memory,3,,,,,,,00498960627fa.jpg,,,,,1.052,4.0,,,,,,,1539186477.079075,1539186479.496359,
197,14,Memory,3,,,,,,,00648941031fa.jpg,,,,,0.902,4.0,,,,,,,1539186480.947543,1539186483.431654,
198,14,Memory,3,,,,,,,00598940928fa.jpg,,,,,0.855,3.0,,,,,,,1539186484.814507,1539186487.231862,
199,14,Memory,3,,,,,,,sunawksfbacycuhbrsc.jpg,,,,,1.086,1.0,,,,,,,1539186488.648882,1539186491.134091,
