,Subject,Trial Type,Run,Cued Composite,Uncued Composite,Cued Face,Cued Place,Uncued Face,Uncued Place,Memory Image,Category,Cued Side,Cued Category,Attention Reaction Time (s),Familiarity Reaction Time (s),Familiarity Rating,Attention Level,Cue Validity,Post Invalid Cue,Pre Invalid Cue,Attention Button,Rating History,Stimulus Onset,Stimulus End,Attention Probe
360,14,Memory,7,,,,,,,00184940128fa.jpg,,,,,2.385,2.0,,,,,,,1539187886.81757,1539187889.30065,
361,14,Memory,7,,,,,,,00775941205fa.jpg,,,,,1.088,4.0,,,,,,,1539187890.718407,1539187893.085849,
362,14,Memory,7,,,,,,,00071941031fa.jpg,,,,,0.853,4.0,,,,,,,1539187894.468573,1539187896.854091,
363,14,Memory,7,,,,,,,00751960620fa.jpg,,,,,0.336,3.0,,,,,,,1539187898.254955,1539187900.53776,
364,14,Memory,7,,,,,,,sunabcfpwlpolnutyju.jpg,,,,,0.468,1.0,,,,,,,1539187901.956126,1539187904.27372,
365,14,Memory,7,,,,,,,sunaavtbadenwnzeutj.jpg,,,,,0.655,4.0,,,,,,,1539187905.689509,1539187908.207958,
366,14,Memory,7,,,,,,,sunagpancjmxqfazssf.jpg,,,,,0.471,3.0,,,,,,,1539187909.741708,1539187912.108952,
367,14,Memory,7,,,,,,,sunagtqhhwxjeuxdebe.jpg,,,,,0.536,4.0,,,,,,,1539187913.508887,1539187915.876093,
368,14,Memory,7,,,,,,,sunaajpqmulidejvjsr.jpg,,,,,0.92,4.0,,,,,,,1539187917.260571,1539187919.678054,
369,14,Memory,7,,,,,,,00564940928fa.jpg,,,,,0.704,3.0,,,,,,,1539187921.026857,1539187923.295516,
370,14,Memory,7,,,,,,,sunafvwfsmqkjrutjta.jpg,,,,,1.319,4.0,,,,,,,1539187924.7288,1539187927.213738,
371,14,Memory,7,,,,,,,00949960627fb.jpg,,,,,0.77,4.0,,,,,,,1539187928.614589,1539187930.930644,
372,14,Memory,7,,,,,,,sunafijbgncijwykrnl.jpg,,,,,0.636,3.0,,,,,,,1539187932.315803,1539187934.649782,
373,14,Memory,7,,,,,,,00789960620fa.jpg,,,,,0.652,4.0,,,,,,,1539187935.99885,1539187938.433613,
374,14,Memory,7,,,,,,,sunacmpqqfbsvlzinzl.jpg,,,,,0.736,2.0,,,,,,,1539187939.800001,1539187942.135377,
375,14,Memory,7,,,,,,,sunagmhildamktmqjss.jpg,,,,,0.702,1.0,,,,,,,1539187943.552406,1539187945.952443,
376,14,Memory,7,,,,,,,sunaeomlfaabhpswasy.jpg,,,,,0.703,4.0,,,,,,,1539187947.403839,1539187949.903893,
377,14,Memory,7,,,,,,,01009960627fa.jpg,,,,,0.77,1.0,,,,,,,1539187951.271885,1539187953.739179,
378,14,Memory,7,,,,,,,00221940128fa.jpg,,,,,0.886,3.0,,,,,,,1539187955.17299,1539187957.524008,
379,14,Memory,7,,,,,,,sunaaexpnawiehinlpy.jpg,,,,,0.002,3.0,,,,,,,1539187958.924074,1539187961.391694,
380,14,Memory,7,,,,,,,00959960627fa.jpg,,,,,0.837,4.0,,,,,,,1539187962.808396,1539187965.325881,
381,14,Memory,7,,,,,,,00071940128fa.jpg,,,,,0.918,2.0,,,,,,,1539187966.74365,1539187969.143084,
382,14,Memory,7,,,,,,,00670941121fa.jpg,,,,,0.737,4.0,,,,,,,1539187970.493902,1539187972.794872,
383,14,Memory,7,,,,,,,sunadochqcucscehsgk.jpg,,,,,0.553,1.0,,,,,,,1539187974.262295,1539187976.66392,
384,14,Memory,7,,,,,,,sunaduslxfzlbxlllnz.jpg,,,,,0.754,4.0,,,,,,,1539187978.114598,1539187980.764336,
385,14,Memory,7,,,,,,,sunagetqixeypsysbpn.jpg,,,,,0.487,2.0,,,,,,,1539187982.181194,1539187984.532335,
386,14,Memory,7,,,,,,,00098931230fa.jpg,,,,,0.955,1.0,,,,,,,1539187985.914797,1539187988.299917,
387,14,Memory,7,,,,,,,sunaaexqbtdswxrqjvz.jpg,,,,,0.937,4.0,,,,,,,1539187989.700015,1539187992.268679,
388,14,Memory,7,,,,,,,sunahawfngukizslzsd.jpg,,,,,0.703,4.0,,,,,,,1539187993.751321,1539187996.136177,
389,14,Memory,7,,,,,,,sunavxokzybtomhbmvm.jpg,,,,,0.654,3.0,,,,,,,1539187997.570734,1539187999.902871,
390,14,Memory,7,,,,,,,sunasnqkkyhilqkxiqm.jpg,,,,,1.053,4.0,,,,,,,1539188001.321741,1539188003.821519,
391,14,Memory,7,,,,,,,00766960620fa.jpg,,,,,0.784,3.0,,,,,,,1539188005.204809,1539188007.572152,
392,14,Memory,7,,,,,,,00786941205fa.jpg,,,,,1.153,1.0,,,,,,,1539188008.938802,1539188011.306975,
393,14,Memory,7,,,,,,,00794960620fa.jpg,,,,,0.67,4.0,,,,,,,1539188012.673662,1539188015.058439,
394,14,Memory,7,,,,,,,sunaezuszgtxnmsxdbk.jpg,,,,,0.47,2.0,,,,,,,1539188016.426418,1539188018.826259,
395,14,Memory,7,,,,,,,sunbxzweleltykebgan.jpg,,,,,0.45,3.0,,,,,,,1539188020.360558,1539188022.710351,
396,14,Memory,7,,,,,,,00780960530fa.jpg,,,,,0.651,4.0,,,,,,,1539188024.110377,1539188026.629841,
397,14,Memory,7,,,,,,,00744941201fa.jpg,,,,,0.737,3.0,,,,,,,1539188028.045241,1539188030.396683,
398,14,Memory,7,,,,,,,00705960530fa.jpg,,,,,0.82,4.0,,,,,,,1539188031.79811,1539188034.114079,
399,14,Memory,7,,,,,,,00807941205fa.jpg,,,,,0.587,3.0,,,,,,,1539188035.498463,1539188038.000383,
