,Subject,Trial Type,Run,Cued Composite,Uncued Composite,Cued Face,Cued Place,Uncued Face,Uncued Place,Memory Image,Category,Cued Side,Cued Category,Attention Reaction Time (s),Familiarity Reaction Time (s),Familiarity Rating,Attention Level,Cue Validity,Post Invalid Cue,Pre Invalid Cue,Attention Button,Rating History,Stimulus Onset,Stimulus End,Attention Probe
260,1,Memory,5,,,,,,,00543940519fa.jpg,,,,,0.841,1.0,,,,,,,1550776626.390863,1550776628.50314,
261,1,Memory,5,,,,,,,01002960627fb.jpg,,,,,0.869,1.0,,,,,,,1550776629.791878,1550776631.806241,
262,1,Memory,5,,,,,,,sunaaeplwsfslcbtojr.jpg,,,,,1.02,2.0,,,,,,,1550776633.076192,1550776635.059156,
263,1,Memory,5,,,,,,,sunacepzfrmtkiqonpy.jpg,,,,,0.867,1.0,,,,,,,1550776636.345263,1550776638.357654,
264,1,Memory,5,,,,,,,sunafbwnojpqeyzssoe.jpg,,,,,1.016,4.0,,,,,,,1550776639.611235,1550776641.624286,
265,1,Memory,5,,,,,,,00081941031fa.jpg,,,,,1.124,1.0,,,,,,,1550776642.895556,1550776644.874611,
266,1,Memory,5,,,,,,,00778941205fa.jpg,,,,,0.67,1.0,,,,,,,1550776646.1639,1550776648.210604,
267,1,Memory,5,,,,,,,sunaooaqzputrowwbsw.jpg,,,,,0.924,2.0,,,,,,,1550776649.481273,1550776651.563621,
268,1,Memory,5,,,,,,,00847940307fa.jpg,,,,,0.675,1.0,,,,,,,1550776652.81573,1550776654.832203,
269,1,Memory,5,,,,,,,00070940307fa.jpg,,,,,0.541,1.0,,,,,,,1550776656.095701,1550776658.113877,
270,1,Memory,5,,,,,,,sunagcthdfirrcawoic.jpg,,,,,0.948,3.0,,,,,,,1550776659.430265,1550776661.465271,
271,1,Memory,5,,,,,,,00483940519fa.jpg,,,,,1.018,2.0,,,,,,,1550776662.716408,1550776664.749223,
272,1,Memory,5,,,,,,,sunahgtbwgsmtqeodwh.jpg,,,,,1.054,1.0,,,,,,,1550776666.01902,1550776668.020835,
273,1,Memory,5,,,,,,,sunadpnqovzckyikrjo.jpg,,,,,0.975,1.0,,,,,,,1550776669.287563,1550776671.341181,
274,1,Memory,5,,,,,,,sunaaehaikpckyjsety.jpg,,,,,1.152,4.0,,,,,,,1550776672.622574,1550776674.655484,
275,1,Memory,5,,,,,,,00564941031fa.jpg,,,,,1.249,2.0,,,,,,,1550776675.939918,1550776678.086393,
276,1,Memory,5,,,,,,,sunagmhildamktmqjss.jpg,,,,,0.851,1.0,,,,,,,1550776679.336606,1550776681.388428,
277,1,Memory,5,,,,,,,sunacsaovnjezqwbykf.jpg,,,,,1.003,2.0,,,,,,,1550776682.642525,1550776684.676128,
278,1,Memory,5,,,,,,,sunacypmnujalygkunp.jpg,,,,,0.883,1.0,,,,,,,1550776685.94327,1550776688.027235,
279,1,Memory,5,,,,,,,00564940928fa.jpg,,,,,0.948,4.0,,,,,,,1550776689.294071,1550776691.307544,
280,1,Memory,5,,,,,,,00620940928fa.jpg,,,,,0.964,2.0,,,,,,,1550776692.579601,1550776694.613491,
281,1,Memory,5,,,,,,,sunbwaafjdebjzttuvq.jpg,,,,,1.071,4.0,,,,,,,1550776695.896818,1550776697.927264,
282,1,Memory,5,,,,,,,00481940519fa.jpg,,,,,0.998,2.0,,,,,,,1550776699.197343,1550776701.210428,
283,1,Memory,5,,,,,,,sunaipyohrqlwngaqif.jpg,,,,,0.836,1.0,,,,,,,1550776702.466368,1550776704.514794,
284,1,Memory,5,,,,,,,sunabyvpwkgsjtijdwj.jpg,,,,,1.343,1.0,,,,,,,1550776705.80059,1550776707.912698,
285,1,Memory,5,,,,,,,00786941205fa.jpg,,,,,1.269,4.0,,,,,,,1550776709.184735,1550776711.231372,
286,1,Memory,5,,,,,,,sunabclssnoeuigtawp.jpg,,,,,1.15,2.0,,,,,,,1550776712.519172,1550776714.586404,
287,1,Memory,5,,,,,,,sunalqmfgeadpqsyzpd.jpg,,,,,0.787,1.0,,,,,,,1550776715.87005,1550776717.867323,
288,1,Memory,5,,,,,,,00894960620fa.jpg,,,,,0.819,1.0,,,,,,,1550776719.138347,1550776721.149634,
289,1,Memory,5,,,,,,,00060931230fa.jpg,,,,,1.191,3.0,,,,,,,1550776722.422375,1550776724.452617,
290,1,Memory,5,,,,,,,sunaivdjruhkrfywfed.jpg,,,,,1.7,3.0,,,,,,,1550776725.739633,1550776727.757385,
291,1,Memory,5,,,,,,,sunaaftlyfudyzuhqzf.jpg,,,,,1.058,2.0,,,,,,,1550776729.024016,1550776731.103717,
292,1,Memory,5,,,,,,,00911960530fa.jpg,,,,,1.119,1.0,,,,,,,1550776732.375981,1550776734.40895,
293,1,Memory,5,,,,,,,00839940307fa.jpg,,,,,0.751,1.0,,,,,,,1550776735.671175,1550776737.675502,
294,1,Memory,5,,,,,,,00812941205fa.jpg,,,,,0.607,1.0,,,,,,,1550776738.97758,1550776740.989915,
295,1,Memory,5,,,,,,,sunacmpqqfbsvlzinzl.jpg,,,,,0.697,1.0,,,,,,,1550776742.245854,1550776744.324954,
296,1,Memory,5,,,,,,,00235940128fb.jpg,,,,,0.937,1.0,,,,,,,1550776745.579255,1550776747.5951,
297,1,Memory,5,,,,,,,00752960620fa.jpg,,,,,0.719,1.0,,,,,,,1550776748.881007,1550776750.927081,
298,1,Memory,5,,,,,,,00676941121fa.jpg,,,,,1.498,3.0,,,,,,,1550776752.210511,1550776754.247229,
299,1,Memory,5,,,,,,,sunabxsuqbleluwczoy.jpg,,,,,1.237,2.0,,,,,,,1550776755.511074,1550776757.53832,
