,Subject,Trial Type,Run,Cued Composite,Uncued Composite,Cued Face,Cued Place,Uncued Face,Uncued Place,Memory Image,Category,Cued Side,Cued Category,Attention Response Time (s),Familiarity Reaction Time (s),Familiarity Rating,Attention Level,Cue Validity,Post Invalid Cue,Pre Invalid Cue,Attention Button,Rating History,Stimulus Onset,Stimulus End,Attention Probe
0,20,Presentation,0,00815941205fa_sunahiphsekjihkafsl.jpg,00989960627fa_sunbondbduabvijnmch.jpg,,,,,,,>,Place,,,,,1,,,,,,,o
1,20,Presentation,0,00144931230fb_sunaathajvxrgptwhoj.jpg,00630940928fa_sunaczwgyukesaajxnx.jpg,,,,,,,<,Face,,,,,1,,,,,,,o
2,20,Presentation,0,00915960620fa_sunapileznnbbmrwoei.jpg,00997960627fa_sunbtpilbhhbmhmeuzq.jpg,,,,,,,>,Face,,,,,1,,,,,,,o
3,20,Presentation,0,00761960627fa_sunafgdqbclkwfocdhg.jpg,00957960627fa_sunavhxgmgrqsaptynb.jpg,,,,,,,<,Place,,,,,1,,,,,,,x
4,20,Presentation,0,00791941205fa_sunagrmyoovzukhxmlo.jpg,00529940519fa_sunacbeefkxpymwevpk.jpg,,,,,,,>,Face,,,,,1,,,,,,,o
5,20,Presentation,0,00960960627fa_sunawksfbacycuhbrsc.jpg,00936960627fa_sunaqgjuuwvdcyiccjt.jpg,,,,,,,<,Face,,,,,1,,,,,,,x
6,20,Presentation,0,00985960627fa_sunbgklxeqjhdbyfhhy.jpg,00950960627fa_sunasrjlmglmjzbmqxb.jpg,,,,,,,>,Place,,,,,1,,,,,,,x
7,20,Presentation,0,00070940307fa_sunaaeplwsfslcbtojr.jpg,00270940422fb_sunabllobxadqcyttej.jpg,,,,,,,<,Face,,,,,1,,,,,,,x
8,20,Presentation,0,00906960530fa_sunantryfbloeaomfta.jpg,00966960627fa_sunaygrtwrwfezqjizr.jpg,,,,,,,>,Place,,,,,1,,,,,,,o
9,20,Presentation,0,00306940422fa_sunabueyoajufbkraki.jpg,00905960530fa_sunanmoqeyprjjjfxjt.jpg,,,,,,,<,Place,,,,,1,,,,,,,x
10,20,Memory,0,,,,,,,00966960627fa.jpg,,,,,,,,,,,,,,,
11,20,Memory,0,,,,,,,sunawksfbacycuhbrsc.jpg,,,,,,,,,,,,,,,
12,20,Memory,0,,,,,,,sunajoveqhiprwqgoco.jpg,,,,,,,,,,,,,,,
13,20,Memory,0,,,,,,,00989960627fa.jpg,,,,,,,,,,,,,,,
14,20,Memory,0,,,,,,,sunaaeplwsfslcbtojr.jpg,,,,,,,,,,,,,,,
15,20,Memory,0,,,,,,,00869940307fa.jpg,,,,,,,,,,,,,,,
16,20,Memory,0,,,,,,,sunaffgsyyvoqdlkmnk.jpg,,,,,,,,,,,,,,,
17,20,Memory,0,,,,,,,01002960627fb.jpg,,,,,,,,,,,,,,,
18,20,Memory,0,,,,,,,sunaafbmtoniaasysgu.jpg,,,,,,,,,,,,,,,
19,20,Memory,0,,,,,,,00950960627fa.jpg,,,,,,,,,,,,,,,
20,20,Memory,0,,,,,,,sunaijsqpvodplbwxkf.jpg,,,,,,,,,,,,,,,
21,20,Memory,0,,,,,,,00997960627fa.jpg,,,,,,,,,,,,,,,
22,20,Memory,0,,,,,,,sunbondbduabvijnmch.jpg,,,,,,,,,,,,,,,
23,20,Memory,0,,,,,,,00111931230fb.jpg,,,,,,,,,,,,,,,
24,20,Memory,0,,,,,,,00306940422fa.jpg,,,,,,,,,,,,,,,
25,20,Memory,0,,,,,,,sunbtpilbhhbmhmeuzq.jpg,,,,,,,,,,,,,,,
26,20,Memory,0,,,,,,,sunasrjlmglmjzbmqxb.jpg,,,,,,,,,,,,,,,
27,20,Memory,0,,,,,,,00080931230fb.jpg,,,,,,,,,,,,,,,
28,20,Memory,0,,,,,,,sunaafjszryxyavjzln.jpg,,,,,,,,,,,,,,,
29,20,Memory,0,,,,,,,sunahiphsekjihkafsl.jpg,,,,,,,,,,,,,,,
30,20,Memory,0,,,,,,,00791941205fa.jpg,,,,,,,,,,,,,,,
31,20,Memory,0,,,,,,,00914960620fa.jpg,,,,,,,,,,,,,,,
32,20,Memory,0,,,,,,,sunbwaafjdebjzttuvq.jpg,,,,,,,,,,,,,,,
33,20,Memory,0,,,,,,,00957960627fa.jpg,,,,,,,,,,,,,,,
34,20,Memory,0,,,,,,,sunavhxgmgrqsaptynb.jpg,,,,,,,,,,,,,,,
35,20,Memory,0,,,,,,,sunaaeowapdkwzqpgqr.jpg,,,,,,,,,,,,,,,
36,20,Memory,0,,,,,,,00815941205fa.jpg,,,,,,,,,,,,,,,
37,20,Memory,0,,,,,,,00835940307fa.jpg,,,,,,,,,,,,,,,
38,20,Memory,0,,,,,,,00069931230fb.jpg,,,,,,,,,,,,,,,
39,20,Memory,0,,,,,,,00754941201fa.jpg,,,,,,,,,,,,,,,
40,20,Memory,0,,,,,,,00154931230fa.jpg,,,,,,,,,,,,,,,
41,20,Memory,0,,,,,,,00960960627fa.jpg,,,,,,,,,,,,,,,
42,20,Memory,0,,,,,,,sunabueyoajufbkraki.jpg,,,,,,,,,,,,,,,
43,20,Memory,0,,,,,,,sunaakgekhjklxmvulj.jpg,,,,,,,,,,,,,,,
44,20,Memory,0,,,,,,,sunaauueuhhvklldjik.jpg,,,,,,,,,,,,,,,
45,20,Memory,0,,,,,,,sunaozisvwfbmlkfhzv.jpg,,,,,,,,,,,,,,,
46,20,Memory,0,,,,,,,sunagrmyoovzukhxmlo.jpg,,,,,,,,,,,,,,,
47,20,Memory,0,,,,,,,00073931230fa.jpg,,,,,,,,,,,,,,,
48,20,Memory,0,,,,,,,00070940307fa.jpg,,,,,,,,,,,,,,,
49,20,Memory,0,,,,,,,sunaygrtwrwfezqjizr.jpg,,,,,,,,,,,,,,,
50,20,Presentation,1,00800941205fb_sunagvjurcwdbixvnyi.jpg,00809960620fa_sunahbvlpavurqoxdeq.jpg,,,,,,,>,Place,,,,,1,,,,,,,o
51,20,Presentation,1,00505960627fa_sunabzuqsrgcsonqlkz.jpg,00163931230fb_sunaavodbcpygkggnfp.jpg,,,,,,,>,Face,,,,,1,,,,,,,x
52,20,Presentation,1,00978960627fa_sunbddbivbptlrlauhy.jpg,00211940128fa_sunabasphceswhwwqvv.jpg,,,,,,,>,Place,,,,,1,,,,,,,x
53,20,Presentation,1,00145931230fb_sunaatjesvdupctftmn.jpg,00935960627fa_sunaqbmgkgqucajzrkp.jpg,,,,,,,<,Face,,,,,1,,,,,,,o
54,20,Presentation,1,00774941201fa_sunafvtpfczkzopbgue.jpg,00127931230fa_sunaampvucecsfbdafn.jpg,,,,,,,<,Place,,,,,1,,,,,,,x
55,20,Presentation,1,00102931230fa_sunaajspcoepticvplv.jpg,00260940128fa_sunabgfhvifeijihhjw.jpg,,,,,,,<,Face,,,,,1,,,,,,,x
56,20,Presentation,1,00093931230fa_sunaahwnmtqsrhocysw.jpg,01007960627fa_sunbxarcshsnqsefemx.jpg,,,,,,,<,Place,,,,,1,,,,,,,o
57,20,Presentation,1,00859940307fa_sunaiycurtqsfkvcaso.jpg,00753941201fa_sunafcofuuzebuadceo.jpg,,,,,,,<,Face,,,,,1,,,,,,,x
58,20,Presentation,1,00979960627fa_sunbdycacjfaujxitbw.jpg,00949960627fb_sunasnqkkyhilqkxiqm.jpg,,,,,,,>,Place,,,,,1,,,,,,,o
59,20,Presentation,1,00790941205fa_sunagpjzsbltchlwvou.jpg,00969960627fa_sunbaoizrfijvhpnnjn.jpg,,,,,,,>,Face,,,,,1,,,,,,,o
60,20,Memory,1,,,,,,,sunagwswhkvnsmuszlz.jpg,,,,,,,,,,,,,,,
61,20,Memory,1,,,,,,,00630941031fa.jpg,,,,,,,,,,,,,,,
62,20,Memory,1,,,,,,,sunagtjwilqjvxohypn.jpg,,,,,,,,,,,,,,,
63,20,Memory,1,,,,,,,00793941205fa.jpg,,,,,,,,,,,,,,,
64,20,Memory,1,,,,,,,sunabckqabszusgcykj.jpg,,,,,,,,,,,,,,,
65,20,Memory,1,,,,,,,00935960627fa.jpg,,,,,,,,,,,,,,,
66,20,Memory,1,,,,,,,sunaqyylsngywqzwfmx.jpg,,,,,,,,,,,,,,,
67,20,Memory,1,,,,,,,00775941205fa.jpg,,,,,,,,,,,,,,,
68,20,Memory,1,,,,,,,00227940128fa.jpg,,,,,,,,,,,,,,,
69,20,Memory,1,,,,,,,sunbxarcshsnqsefemx.jpg,,,,,,,,,,,,,,,
70,20,Memory,1,,,,,,,sunbddbivbptlrlauhy.jpg,,,,,,,,,,,,,,,
71,20,Memory,1,,,,,,,sunaahwnmtqsrhocysw.jpg,,,,,,,,,,,,,,,
72,20,Memory,1,,,,,,,sunaajspcoepticvplv.jpg,,,,,,,,,,,,,,,
73,20,Memory,1,,,,,,,sunafvtpfczkzopbgue.jpg,,,,,,,,,,,,,,,
74,20,Memory,1,,,,,,,sunadakkdovnuzlycvp.jpg,,,,,,,,,,,,,,,
75,20,Memory,1,,,,,,,00949960627fb.jpg,,,,,,,,,,,,,,,
76,20,Memory,1,,,,,,,00102931230fa.jpg,,,,,,,,,,,,,,,
77,20,Memory,1,,,,,,,00093931230fa.jpg,,,,,,,,,,,,,,,
78,20,Memory,1,,,,,,,sunapqwnqzxlsfvgsjm.jpg,,,,,,,,,,,,,,,
79,20,Memory,1,,,,,,,00090931230fa.jpg,,,,,,,,,,,,,,,
80,20,Memory,1,,,,,,,00938960627fa.jpg,,,,,,,,,,,,,,,
81,20,Memory,1,,,,,,,sunbfyvfqiimvdaxlqn.jpg,,,,,,,,,,,,,,,
82,20,Memory,1,,,,,,,00983960627fa.jpg,,,,,,,,,,,,,,,
83,20,Memory,1,,,,,,,sunabzuqsrgcsonqlkz.jpg,,,,,,,,,,,,,,,
84,20,Memory,1,,,,,,,01004960627fa.jpg,,,,,,,,,,,,,,,
85,20,Memory,1,,,,,,,00925960627fa.jpg,,,,,,,,,,,,,,,
86,20,Memory,1,,,,,,,sunbwtlihsuptkrckid.jpg,,,,,,,,,,,,,,,
87,20,Memory,1,,,,,,,01007960627fa.jpg,,,,,,,,,,,,,,,
88,20,Memory,1,,,,,,,sunaavodbcpygkggnfp.jpg,,,,,,,,,,,,,,,
89,20,Memory,1,,,,,,,sunbaoizrfijvhpnnjn.jpg,,,,,,,,,,,,,,,
90,20,Memory,1,,,,,,,sunaqbmgkgqucajzrkp.jpg,,,,,,,,,,,,,,,
91,20,Memory,1,,,,,,,sunasnqkkyhilqkxiqm.jpg,,,,,,,,,,,,,,,
92,20,Memory,1,,,,,,,00969960627fa.jpg,,,,,,,,,,,,,,,
93,20,Memory,1,,,,,,,00774941201fa.jpg,,,,,,,,,,,,,,,
94,20,Memory,1,,,,,,,00804960530fa.jpg,,,,,,,,,,,,,,,
95,20,Memory,1,,,,,,,00163931230fb.jpg,,,,,,,,,,,,,,,
96,20,Memory,1,,,,,,,sunafvwfsmqkjrutjta.jpg,,,,,,,,,,,,,,,
97,20,Memory,1,,,,,,,sunaahedjlmtqekgyvj.jpg,,,,,,,,,,,,,,,
98,20,Memory,1,,,,,,,00505960627fa.jpg,,,,,,,,,,,,,,,
99,20,Memory,1,,,,,,,00978960627fa.jpg,,,,,,,,,,,,,,,
100,20,Presentation,2,00891960530fa_sunalkiibhqpxfamlll.jpg,00158931230fb_sunaavchcbptaerhcfy.jpg,,,,,,,>,Place,,,,,1,,,,,,,x
101,20,Presentation,2,01010960627fa_suncnkvbhypnivcohyx.jpg,00098931230fa_sunaajpqmulidejvjsr.jpg,,,,,,,<,Place,,,,,1,,,,,,,o
102,20,Presentation,2,00864940307fa_sunajawzbrlrwafowen.jpg,00773960620fa_sunafvsxtzaizojicxx.jpg,,,,,,,>,Place,,,,,1,,,,,,,o
103,20,Presentation,2,00868960307fa_sunajjxttslobudoqbv.jpg,00138931230fa_sunaapfaivxqoynnwwp.jpg,,,,,,,<,Place,,,,,0,,,,,,,x
104,20,Presentation,2,00648941031fa_sunadfndyrtqqiasoig.jpg,00812941205fa_sunahgtbwgsmtqeodwh.jpg,,,,,,,>,Face,,,,,1,,,,,,,x
105,20,Presentation,2,00947960627fa_sunasmmcxdddtmtazwx.jpg,00077931230fb_sunaafgqutfaishsxyu.jpg,,,,,,,<,Face,,,,,1,,,,,,,x
106,20,Presentation,2,00847940307fa_sunaivdjruhkrfywfed.jpg,00796941205fa_sunaguchqqnrtodtezq.jpg,,,,,,,>,Face,,,,,1,,,,,,,o
107,20,Presentation,2,00146960620fb_sunaatpeezlljqaxlhj.jpg,00214940128fa_sunabbafjowbzcvbucc.jpg,,,,,,,<,Face,,,,,1,,,,,,,o
108,20,Presentation,2,00609940928fa_sunacycdoztxoluxjyk.jpg,00768941205fa_sunafkmnlytenlsywia.jpg,,,,,,,>,Face,,,,,1,,,,,,,x
109,20,Presentation,2,00264940128fb_sunabjzyxcjnmztdonj.jpg,00725941201fa_sunaefgzwiramypjvtd.jpg,,,,,,,<,Place,,,,,1,,,,,,,o
110,20,Memory,2,,,,,,,sunaejnvnpltdmhbcsi.jpg,,,,,,,,,,,,,,,
111,20,Memory,2,,,,,,,sunafvsxtzaizojicxx.jpg,,,,,,,,,,,,,,,
112,20,Memory,2,,,,,,,sunaguchqqnrtodtezq.jpg,,,,,,,,,,,,,,,
113,20,Memory,2,,,,,,,sunaivdjruhkrfywfed.jpg,,,,,,,,,,,,,,,
114,20,Memory,2,,,,,,,sundahdxwmcdluscvot.jpg,,,,,,,,,,,,,,,
115,20,Memory,2,,,,,,,sunanaacmmosxrfwmvl.jpg,,,,,,,,,,,,,,,
116,20,Memory,2,,,,,,,00847940307fa.jpg,,,,,,,,,,,,,,,
117,20,Memory,2,,,,,,,00773960620fa.jpg,,,,,,,,,,,,,,,
118,20,Memory,2,,,,,,,00648941031fa.jpg,,,,,,,,,,,,,,,
119,20,Memory,2,,,,,,,00271940422fa.jpg,,,,,,,,,,,,,,,
120,20,Memory,2,,,,,,,00267940128fb.jpg,,,,,,,,,,,,,,,
121,20,Memory,2,,,,,,,01011960627fa.jpg,,,,,,,,,,,,,,,
122,20,Memory,2,,,,,,,00728941205fa.jpg,,,,,,,,,,,,,,,
123,20,Memory,2,,,,,,,00109931230fa.jpg,,,,,,,,,,,,,,,
124,20,Memory,2,,,,,,,01010960627fa.jpg,,,,,,,,,,,,,,,
125,20,Memory,2,,,,,,,sunaetydippjxikifsb.jpg,,,,,,,,,,,,,,,
126,20,Memory,2,,,,,,,00098931230fa.jpg,,,,,,,,,,,,,,,
127,20,Memory,2,,,,,,,sunaalhlvzmjmitybdn.jpg,,,,,,,,,,,,,,,
128,20,Memory,2,,,,,,,00124931230fa.jpg,,,,,,,,,,,,,,,
129,20,Memory,2,,,,,,,sunabmbnddafmywtjjj.jpg,,,,,,,,,,,,,,,
130,20,Memory,2,,,,,,,00609940928fa.jpg,,,,,,,,,,,,,,,
131,20,Memory,2,,,,,,,sunafkmnlytenlsywia.jpg,,,,,,,,,,,,,,,
132,20,Memory,2,,,,,,,00146960620fb.jpg,,,,,,,,,,,,,,,
133,20,Memory,2,,,,,,,suncnkvbhypnivcohyx.jpg,,,,,,,,,,,,,,,
134,20,Memory,2,,,,,,,00771941205fa.jpg,,,,,,,,,,,,,,,
135,20,Memory,2,,,,,,,00796941205fa.jpg,,,,,,,,,,,,,,,
136,20,Memory,2,,,,,,,sunafowswglhxcsufpo.jpg,,,,,,,,,,,,,,,
137,20,Memory,2,,,,,,,sunaajpqmulidejvjsr.jpg,,,,,,,,,,,,,,,
138,20,Memory,2,,,,,,,00768941205fa.jpg,,,,,,,,,,,,,,,
139,20,Memory,2,,,,,,,sunaavchcbptaerhcfy.jpg,,,,,,,,,,,,,,,
140,20,Memory,2,,,,,,,00746941201fa.jpg,,,,,,,,,,,,,,,
141,20,Memory,2,,,,,,,00902960530fa.jpg,,,,,,,,,,,,,,,
142,20,Memory,2,,,,,,,00822940307fa.jpg,,,,,,,,,,,,,,,
143,20,Memory,2,,,,,,,sunahqrxievfeusiqlt.jpg,,,,,,,,,,,,,,,
144,20,Memory,2,,,,,,,sunaatpeezlljqaxlhj.jpg,,,,,,,,,,,,,,,
145,20,Memory,2,,,,,,,sunaajuzribjrizdshh.jpg,,,,,,,,,,,,,,,
146,20,Memory,2,,,,,,,sunablfqiwfqomjarht.jpg,,,,,,,,,,,,,,,
147,20,Memory,2,,,,,,,00158931230fb.jpg,,,,,,,,,,,,,,,
148,20,Memory,2,,,,,,,sunadfndyrtqqiasoig.jpg,,,,,,,,,,,,,,,
149,20,Memory,2,,,,,,,sunacycdoztxoluxjyk.jpg,,,,,,,,,,,,,,,
150,20,Presentation,3,00481940519fa_sunabxsuqbleluwczoy.jpg,00829940307fa_sunahwgbqkqcrwprgvh.jpg,,,,,,,<,Face,,,,,1,,,,,,,o
151,20,Presentation,3,00878960530fa_sunakgbnzxmfohgehnu.jpg,00116931230fa_sunaakqepfoeqomfgxf.jpg,,,,,,,>,Place,,,,,1,,,,,,,x
152,20,Presentation,3,00082931230fa_sunaafvitpexrpvumsa.jpg,00060931230fa_sunaaehaikpckyjsety.jpg,,,,,,,>,Face,,,,,1,,,,,,,x
153,20,Presentation,3,00939960627fa_sunarceibpcyacbmfga.jpg,00288940422fa_sunabppokiyglaxpcha.jpg,,,,,,,<,Face,,,,,1,,,,,,,x
154,20,Presentation,3,00108960530fa_sunaajtnvzzpsjdzres.jpg,00876960620fa_sunajwqkfsykceonyig.jpg,,,,,,,<,Place,,,,,1,,,,,,,o
155,20,Presentation,3,00841940307fa_sunaisiwfgppimtnmxl.jpg,00218940128fa_sunabbwggenhfbftyvi.jpg,,,,,,,>,Face,,,,,1,,,,,,,o
156,20,Presentation,3,00620940928fa_sunacypmnujalygkunp.jpg,00750941201fa_sunaeuzwggvibufclwf.jpg,,,,,,,<,Place,,,,,1,,,,,,,o
157,20,Presentation,3,00194940128fb_sunaayehfdqcyxggsej.jpg,00153931230fa_sunaauhozyxzeeqstxi.jpg,,,,,,,>,Place,,,,,1,,,,,,,o
158,20,Presentation,3,00965960627fa_sunaydywdmvlfddbxbk.jpg,00871940307_sunajrujcsdxmfbssmc.jpg,,,,,,,<,Place,,,,,1,,,,,,,x
159,20,Presentation,3,00990960627fa_sunbpflsdaxnddnwcqi.jpg,00973960627fa_sunbbgtoeuzierkkajt.jpg,,,,,,,>,Face,,,,,1,,,,,,,x
160,20,Memory,3,,,,,,,00977960627fa.jpg,,,,,,,,,,,,,,,
161,20,Memory,3,,,,,,,sunajwqkfsykceonyig.jpg,,,,,,,,,,,,,,,
162,20,Memory,3,,,,,,,sunaydywdmvlfddbxbk.jpg,,,,,,,,,,,,,,,
163,20,Memory,3,,,,,,,sunaiwfobocrruqznsv.jpg,,,,,,,,,,,,,,,
164,20,Memory,3,,,,,,,00194940128fb.jpg,,,,,,,,,,,,,,,
165,20,Memory,3,,,,,,,sunbbgtoeuzierkkajt.jpg,,,,,,,,,,,,,,,
166,20,Memory,3,,,,,,,00197940128fa.jpg,,,,,,,,,,,,,,,
167,20,Memory,3,,,,,,,00060931230fa.jpg,,,,,,,,,,,,,,,
168,20,Memory,3,,,,,,,sunaayehfdqcyxggsej.jpg,,,,,,,,,,,,,,,
169,20,Memory,3,,,,,,,00140931230fb.jpg,,,,,,,,,,,,,,,
170,20,Memory,3,,,,,,,sunbbxkanhzjgbwyxqs.jpg,,,,,,,,,,,,,,,
171,20,Memory,3,,,,,,,sunaapllqyqlykszopd.jpg,,,,,,,,,,,,,,,
172,20,Memory,3,,,,,,,00841940307fa.jpg,,,,,,,,,,,,,,,
173,20,Memory,3,,,,,,,sunaekgzpfilgjxpeyq.jpg,,,,,,,,,,,,,,,
174,20,Memory,3,,,,,,,00747941201fa.jpg,,,,,,,,,,,,,,,
175,20,Memory,3,,,,,,,sunaaylzyqlqrsmfwif.jpg,,,,,,,,,,,,,,,
176,20,Memory,3,,,,,,,sunacypmnujalygkunp.jpg,,,,,,,,,,,,,,,
177,20,Memory,3,,,,,,,00892960530fa.jpg,,,,,,,,,,,,,,,
178,20,Memory,3,,,,,,,00939960627fa.jpg,,,,,,,,,,,,,,,
179,20,Memory,3,,,,,,,sunaeuzwggvibufclwf.jpg,,,,,,,,,,,,,,,
180,20,Memory,3,,,,,,,00062931230fb.jpg,,,,,,,,,,,,,,,
181,20,Memory,3,,,,,,,sunalntxqqadigcletd.jpg,,,,,,,,,,,,,,,
182,20,Memory,3,,,,,,,sunaisiwfgppimtnmxl.jpg,,,,,,,,,,,,,,,
183,20,Memory,3,,,,,,,00620940928fa.jpg,,,,,,,,,,,,,,,
184,20,Memory,3,,,,,,,sunaddtdkycxbqlpfqa.jpg,,,,,,,,,,,,,,,
185,20,Memory,3,,,,,,,sunarceibpcyacbmfga.jpg,,,,,,,,,,,,,,,
186,20,Memory,3,,,,,,,00973960627fa.jpg,,,,,,,,,,,,,,,
187,20,Memory,3,,,,,,,sunaeutbrtswvsozxyk.jpg,,,,,,,,,,,,,,,
188,20,Memory,3,,,,,,,sunabppokiyglaxpcha.jpg,,,,,,,,,,,,,,,
189,20,Memory,3,,,,,,,00730960620fa.jpg,,,,,,,,,,,,,,,
190,20,Memory,3,,,,,,,00750941201fa.jpg,,,,,,,,,,,,,,,
191,20,Memory,3,,,,,,,00288940422fa.jpg,,,,,,,,,,,,,,,
192,20,Memory,3,,,,,,,sunabtrnbvpppgczjim.jpg,,,,,,,,,,,,,,,
193,20,Memory,3,,,,,,,sunaaelotvjgibjtjhs.jpg,,,,,,,,,,,,,,,
194,20,Memory,3,,,,,,,00876960620fa.jpg,,,,,,,,,,,,,,,
195,20,Memory,3,,,,,,,00857940307fa.jpg,,,,,,,,,,,,,,,
196,20,Memory,3,,,,,,,00305940422fa.jpg,,,,,,,,,,,,,,,
197,20,Memory,3,,,,,,,sunaaehaikpckyjsety.jpg,,,,,,,,,,,,,,,
198,20,Memory,3,,,,,,,00965960627fa.jpg,,,,,,,,,,,,,,,
199,20,Memory,3,,,,,,,00636941031fa.jpg,,,,,,,,,,,,,,,
200,20,Presentation,4,00576941031fa_sunacvjlsylseoghjup.jpg,00751960620fa_sunaezuszgtxnmsxdbk.jpg,,,,,,,<,Face,,,,,1,,,,,,,x
201,20,Presentation,4,00235940128fb_sunabclssnoeuigtawp.jpg,00719960620fa_sunadzuvtmtmgupotmf.jpg,,,,,,,<,Place,,,,,1,,,,,,,o
202,20,Presentation,4,00766960620fa_sunafijbgncijwykrnl.jpg,00889960530fa_sunaletopenvvozhpxc.jpg,,,,,,,>,Place,,,,,0,,,,,,,x
203,20,Presentation,4,00909960530_sunaobtizabegtwfwul.jpg,00670941121fa_sunadochqcucscehsgk.jpg,,,,,,,<,Place,,,,,0,,,,,,,x
204,20,Presentation,4,00727941205fa_sunaeisnjeetzmkbuad.jpg,00929960627fa_sunaprnrbmgkomdbchr.jpg,,,,,,,>,Face,,,,,1,,,,,,,x
205,20,Presentation,4,00788941205fa_sunagountlxpzkytsmp.jpg,00784941205fb_sunagjzcrjvmxzqzljx.jpg,,,,,,,<,Face,,,,,1,,,,,,,o
206,20,Presentation,4,00245940128fa_sunabeyhmxodahoieyk.jpg,00314940422fa_sunabwmcbaxwioksdgw.jpg,,,,,,,>,Place,,,,,1,,,,,,,x
207,20,Presentation,4,00719941201fa_sunadvithllcgmfxsrn.jpg,00694941121fa_sunadrmfzmstgdjdcod.jpg,,,,,,,>,Face,,,,,1,,,,,,,x
208,20,Presentation,4,00803941205fa_sunagvxkjokqimstxpe.jpg,00479940519fa_sunabxsbfwjccqxxzxq.jpg,,,,,,,>,Place,,,,,1,,,,,,,o
209,20,Presentation,4,00129931230fb_sunaamsdyakblkfoydx.jpg,00827940307fa_sunahtfxgsrmkiulnwk.jpg,,,,,,,<,Face,,,,,1,,,,,,,x
210,20,Memory,4,,,,,,,00827940307fa.jpg,,,,,,,,,,,,,,,
211,20,Memory,4,,,,,,,sunasbbntuiheekqyaq.jpg,,,,,,,,,,,,,,,
212,20,Memory,4,,,,,,,00193940928fa.jpg,,,,,,,,,,,,,,,
213,20,Memory,4,,,,,,,00803941205fa.jpg,,,,,,,,,,,,,,,
214,20,Memory,4,,,,,,,sunbwyuesflwdpqtgoy.jpg,,,,,,,,,,,,,,,
215,20,Memory,4,,,,,,,sunabkngeblodihjvbk.jpg,,,,,,,,,,,,,,,
216,20,Memory,4,,,,,,,sunadzuvtmtmgupotmf.jpg,,,,,,,,,,,,,,,
217,20,Memory,4,,,,,,,00576941031fa.jpg,,,,,,,,,,,,,,,
218,20,Memory,4,,,,,,,sunahtfxgsrmkiulnwk.jpg,,,,,,,,,,,,,,,
219,20,Memory,4,,,,,,,00944960627fa.jpg,,,,,,,,,,,,,,,
220,20,Memory,4,,,,,,,01005960627fa.jpg,,,,,,,,,,,,,,,
221,20,Memory,4,,,,,,,sunainqelldeebvxtcz.jpg,,,,,,,,,,,,,,,
222,20,Memory,4,,,,,,,00235940128fb.jpg,,,,,,,,,,,,,,,
223,20,Memory,4,,,,,,,sunaprnrbmgkomdbchr.jpg,,,,,,,,,,,,,,,
224,20,Memory,4,,,,,,,sunaaemixhfquhnxxlm.jpg,,,,,,,,,,,,,,,
225,20,Memory,4,,,,,,,sunacepzfrmtkiqonpy.jpg,,,,,,,,,,,,,,,
226,20,Memory,4,,,,,,,00266940128fb.jpg,,,,,,,,,,,,,,,
227,20,Memory,4,,,,,,,00543940519fa.jpg,,,,,,,,,,,,,,,
228,20,Memory,4,,,,,,,00766960620fa.jpg,,,,,,,,,,,,,,,
229,20,Memory,4,,,,,,,00719941201fa.jpg,,,,,,,,,,,,,,,
230,20,Memory,4,,,,,,,00744941201fa.jpg,,,,,,,,,,,,,,,
231,20,Memory,4,,,,,,,sunagwzdbtlixdhgolm.jpg,,,,,,,,,,,,,,,
232,20,Memory,4,,,,,,,sunadochqcucscehsgk.jpg,,,,,,,,,,,,,,,
233,20,Memory,4,,,,,,,00670941121fa.jpg,,,,,,,,,,,,,,,
234,20,Memory,4,,,,,,,sunagvxkjokqimstxpe.jpg,,,,,,,,,,,,,,,
235,20,Memory,4,,,,,,,sunapwjkcxdaeqehfql.jpg,,,,,,,,,,,,,,,
236,20,Memory,4,,,,,,,sunacvjlsylseoghjup.jpg,,,,,,,,,,,,,,,
237,20,Memory,4,,,,,,,00836940307fa.jpg,,,,,,,,,,,,,,,
238,20,Memory,4,,,,,,,00805941205fa.jpg,,,,,,,,,,,,,,,
239,20,Memory,4,,,,,,,00933960627fa.jpg,,,,,,,,,,,,,,,
240,20,Memory,4,,,,,,,sunaaxjpzcnxligjtjq.jpg,,,,,,,,,,,,,,,
241,20,Memory,4,,,,,,,00065931230fb.jpg,,,,,,,,,,,,,,,
242,20,Memory,4,,,,,,,sunafijbgncijwykrnl.jpg,,,,,,,,,,,,,,,
243,20,Memory,4,,,,,,,sunagjzcrjvmxzqzljx.jpg,,,,,,,,,,,,,,,
244,20,Memory,4,,,,,,,00719960620fa.jpg,,,,,,,,,,,,,,,
245,20,Memory,4,,,,,,,sunaeomlfaabhpswasy.jpg,,,,,,,,,,,,,,,
246,20,Memory,4,,,,,,,sunabclssnoeuigtawp.jpg,,,,,,,,,,,,,,,
247,20,Memory,4,,,,,,,sunadvithllcgmfxsrn.jpg,,,,,,,,,,,,,,,
248,20,Memory,4,,,,,,,00929960627fa.jpg,,,,,,,,,,,,,,,
249,20,Memory,4,,,,,,,00784941205fb.jpg,,,,,,,,,,,,,,,
250,20,Presentation,5,00743941201fa_sunaeoghzrjarigmwua.jpg,00089931230fa_sunaagcpoejbuzyvddd.jpg,,,,,,,<,Place,,,,,1,,,,,,,o
251,20,Presentation,5,00967960627fa_sunbaejotfklekvpxcz.jpg,00807941205fa_sunahawfngukizslzsd.jpg,,,,,,,>,Face,,,,,1,,,,,,,o
252,20,Presentation,5,00562941031fa_sunacjnahdmqfnjfwqx.jpg,00598940928fa_sunacxeheuiigkcgquf.jpg,,,,,,,<,Face,,,,,1,,,,,,,o
253,20,Presentation,5,00705960530fa_sunaduslxfzlbxlllnz.jpg,00926960627Fa_sunapqwoeotxshkukbh.jpg,,,,,,,>,Face,,,,,1,,,,,,,o
254,20,Presentation,5,00848940307fa_sunaivdylrawbmhryfp.jpg,00095931230fa_sunaahzooisqkwlxwoz.jpg,,,,,,,<,Place,,,,,1,,,,,,,x
255,20,Presentation,5,00901960530fa_sunammbnoambmhdxdwd.jpg,00482940519fa_sunabyfxcxhdebvdyfd.jpg,,,,,,,<,Face,,,,,0,,,,,,,o
256,20,Presentation,5,00982960627fa_sunbesrwkdsffeogeqq.jpg,00631940928fa_sunadbdqzigzwipuipr.jpg,,,,,,,>,Face,,,,,1,,,,,,,x
257,20,Presentation,5,00705941205fa_sunadtlxenqqxsyjvix.jpg,00112931230fa_sunaakjaacuzulqckgl.jpg,,,,,,,>,Place,,,,,0,,,,,,,o
258,20,Presentation,5,00313940422fa_sunabwjvmoaddlyxfjr.jpg,00777941205fa_sunagcinxkccdtrjmlv.jpg,,,,,,,<,Place,,,,,1,,,,,,,x
259,20,Presentation,5,00723941201fa_sunaedtgwjvvziytspa.jpg,00745941205fa_sunaeouogqolxvggaoq.jpg,,,,,,,>,Place,,,,,1,,,,,,,o
260,20,Memory,5,,,,,,,00976960627fa.jpg,,,,,,,,,,,,,,,
261,20,Memory,5,,,,,,,sunbesrwkdsffeogeqq.jpg,,,,,,,,,,,,,,,
262,20,Memory,5,,,,,,,00276940422fa.jpg,,,,,,,,,,,,,,,
263,20,Memory,5,,,,,,,00742941201fa.jpg,,,,,,,,,,,,,,,
264,20,Memory,5,,,,,,,sunajtrfunvzdfticna.jpg,,,,,,,,,,,,,,,
265,20,Memory,5,,,,,,,00089931230fa.jpg,,,,,,,,,,,,,,,
266,20,Memory,5,,,,,,,00638941031fa.jpg,,,,,,,,,,,,,,,
267,20,Memory,5,,,,,,,00874940307fa.jpg,,,,,,,,,,,,,,,
268,20,Memory,5,,,,,,,sunafhmnhsdurlvddpw.jpg,,,,,,,,,,,,,,,
269,20,Memory,5,,,,,,,00982960627fa.jpg,,,,,,,,,,,,,,,
270,20,Memory,5,,,,,,,00705960530fa.jpg,,,,,,,,,,,,,,,
271,20,Memory,5,,,,,,,sunahqldjibofgsfdgb.jpg,,,,,,,,,,,,,,,
272,20,Memory,5,,,,,,,00743941201fa.jpg,,,,,,,,,,,,,,,
273,20,Memory,5,,,,,,,sunaptrqvaooxfvktvw.jpg,,,,,,,,,,,,,,,
274,20,Memory,5,,,,,,,sunagcinxkccdtrjmlv.jpg,,,,,,,,,,,,,,,
275,20,Memory,5,,,,,,,sunabwjvmoaddlyxfjr.jpg,,,,,,,,,,,,,,,
276,20,Memory,5,,,,,,,sunaiozxhxgtfrmoagh.jpg,,,,,,,,,,,,,,,
277,20,Memory,5,,,,,,,00926960627Fa.jpg,,,,,,,,,,,,,,,
278,20,Memory,5,,,,,,,00807941205fa.jpg,,,,,,,,,,,,,,,
279,20,Memory,5,,,,,,,sunadbdqzigzwipuipr.jpg,,,,,,,,,,,,,,,
280,20,Memory,5,,,,,,,00635941031fa.jpg,,,,,,,,,,,,,,,
281,20,Memory,5,,,,,,,00763941205fa.jpg,,,,,,,,,,,,,,,
282,20,Memory,5,,,,,,,00901960530fa.jpg,,,,,,,,,,,,,,,
283,20,Memory,5,,,,,,,sunahawfngukizslzsd.jpg,,,,,,,,,,,,,,,
284,20,Memory,5,,,,,,,00819940307fa.jpg,,,,,,,,,,,,,,,
285,20,Memory,5,,,,,,,sunbbhqyyzmsxhsbjmp.jpg,,,,,,,,,,,,,,,
286,20,Memory,5,,,,,,,00313940422fa.jpg,,,,,,,,,,,,,,,
287,20,Memory,5,,,,,,,sunaeoghzrjarigmwua.jpg,,,,,,,,,,,,,,,
288,20,Memory,5,,,,,,,sunammbnoambmhdxdwd.jpg,,,,,,,,,,,,,,,
289,20,Memory,5,,,,,,,sunaddsaeicthrfbkhe.jpg,,,,,,,,,,,,,,,
290,20,Memory,5,,,,,,,sunapqwoeotxshkukbh.jpg,,,,,,,,,,,,,,,
291,20,Memory,5,,,,,,,00931960627fa.jpg,,,,,,,,,,,,,,,
292,20,Memory,5,,,,,,,sunaagcpoejbuzyvddd.jpg,,,,,,,,,,,,,,,
293,20,Memory,5,,,,,,,sunaenwuebvlpdmntju.jpg,,,,,,,,,,,,,,,
294,20,Memory,5,,,,,,,00838940307fa.jpg,,,,,,,,,,,,,,,
295,20,Memory,5,,,,,,,sunabmytpyhsgigllxu.jpg,,,,,,,,,,,,,,,
296,20,Memory,5,,,,,,,00631940928fa.jpg,,,,,,,,,,,,,,,
297,20,Memory,5,,,,,,,00777941205fa.jpg,,,,,,,,,,,,,,,
298,20,Memory,5,,,,,,,sunadfktsqjthoglcsm.jpg,,,,,,,,,,,,,,,
299,20,Memory,5,,,,,,,sunaduslxfzlbxlllnz.jpg,,,,,,,,,,,,,,,
300,20,Presentation,6,00772941201fa_sunafpfpiiujzoesnqg.jpg,00825940307fa_sunahrltmuwbiehihpe.jpg,,,,,,,<,Face,,,,,1,,,,,,,o
301,20,Presentation,6,00120931230fa_sunaakxgygjfqrzpyoz.jpg,00782941205fa_sunagfvluwixdsozaql.jpg,,,,,,,>,Place,,,,,1,,,,,,,o
302,20,Presentation,6,00908960530fa_sunanwjjyqqwzqrqagd.jpg,00794960620fa_sunagtqhhwxjeuxdebe.jpg,,,,,,,<,Face,,,,,1,,,,,,,x
303,20,Presentation,6,00302940422fa_sunabtlfmiwtljmoues.jpg,00571940928fa_sunacuatpqpqhyjhjqk.jpg,,,,,,,>,Face,,,,,0,,,,,,,x
304,20,Presentation,6,00498960627fa_sunabzjxlmkwnwzimua.jpg,00574940928fa_sunacvbrcejzwmcgnoq.jpg,,,,,,,>,Place,,,,,0,,,,,,,x
305,20,Presentation,6,00198940128fb_sunaazezcsunmhttzxz.jpg,00893960530Fa_sunaloffvbvysigxent.jpg,,,,,,,<,Place,,,,,1,,,,,,,o
306,20,Presentation,6,00993960627fa_sunbprywzqxjcezkbch.jpg,00854940307fa_sunaiwduelojtwaqeyh.jpg,,,,,,,>,Place,,,,,1,,,,,,,x
307,20,Presentation,6,00210940128fb_sunabanoxjtqxamkucc.jpg,00972960627fa_sunbbfqwjpdxniyhies.jpg,,,,,,,>,Face,,,,,1,,,,,,,o
308,20,Presentation,6,00937960627fa_sunaqsolmfydodnakub.jpg,00581940928fa_sunacvzhvcksnwqcqbw.jpg,,,,,,,<,Face,,,,,1,,,,,,,o
309,20,Presentation,6,00787960620fa_sunagoufulkpsxrmklt.jpg,00770941201fa_sunaflojskatpeqyzqp.jpg,,,,,,,<,Place,,,,,1,,,,,,,o
310,20,Memory,6,,,,,,,00120931230fa.jpg,,,,,,,,,,,,,,,
311,20,Memory,6,,,,,,,sunbbegcweqnetpdlrh.jpg,,,,,,,,,,,,,,,
312,20,Memory,6,,,,,,,sunadbhmrgrrpyzglxs.jpg,,,,,,,,,,,,,,,
313,20,Memory,6,,,,,,,sunagoufulkpsxrmklt.jpg,,,,,,,,,,,,,,,
314,20,Memory,6,,,,,,,00782941205fa.jpg,,,,,,,,,,,,,,,
315,20,Memory,6,,,,,,,00959960627fa.jpg,,,,,,,,,,,,,,,
316,20,Memory,6,,,,,,,sunachtuarilwyqnvjx.jpg,,,,,,,,,,,,,,,
317,20,Memory,6,,,,,,,sunabtlfmiwtljmoues.jpg,,,,,,,,,,,,,,,
318,20,Memory,6,,,,,,,sunaflojskatpeqyzqp.jpg,,,,,,,,,,,,,,,
319,20,Memory,6,,,,,,,sunapmfmzadmosuogaz.jpg,,,,,,,,,,,,,,,
320,20,Memory,6,,,,,,,00877960530fa.jpg,,,,,,,,,,,,,,,
321,20,Memory,6,,,,,,,sunanwjjyqqwzqrqagd.jpg,,,,,,,,,,,,,,,
322,20,Memory,6,,,,,,,00787960620fa.jpg,,,,,,,,,,,,,,,
323,20,Memory,6,,,,,,,00971960627fa.jpg,,,,,,,,,,,,,,,
324,20,Memory,6,,,,,,,sunaaftlyfudyzuhqzf.jpg,,,,,,,,,,,,,,,
325,20,Memory,6,,,,,,,00302940422fa.jpg,,,,,,,,,,,,,,,
326,20,Memory,6,,,,,,,00574940928fa.jpg,,,,,,,,,,,,,,,
327,20,Memory,6,,,,,,,sunacacflqoyxhsqzhe.jpg,,,,,,,,,,,,,,,
328,20,Memory,6,,,,,,,sunbbfqwjpdxniyhies.jpg,,,,,,,,,,,,,,,
329,20,Memory,6,,,,,,,sunbprywzqxjcezkbch.jpg,,,,,,,,,,,,,,,
330,20,Memory,6,,,,,,,00507940519fa.jpg,,,,,,,,,,,,,,,
331,20,Memory,6,,,,,,,sunagtqhhwxjeuxdebe.jpg,,,,,,,,,,,,,,,
332,20,Memory,6,,,,,,,00794960620fa.jpg,,,,,,,,,,,,,,,
333,20,Memory,6,,,,,,,00919960620fa.jpg,,,,,,,,,,,,,,,
334,20,Memory,6,,,,,,,sunavxokzybtomhbmvm.jpg,,,,,,,,,,,,,,,
335,20,Memory,6,,,,,,,sunajxpkuhbizeveguy.jpg,,,,,,,,,,,,,,,
336,20,Memory,6,,,,,,,00633940928fa.jpg,,,,,,,,,,,,,,,
337,20,Memory,6,,,,,,,sunbxzweleltykebgan.jpg,,,,,,,,,,,,,,,
338,20,Memory,6,,,,,,,00081941031fa.jpg,,,,,,,,,,,,,,,
339,20,Memory,6,,,,,,,00908960530fa.jpg,,,,,,,,,,,,,,,
340,20,Memory,6,,,,,,,00972960627fa.jpg,,,,,,,,,,,,,,,
341,20,Memory,6,,,,,,,sunagfvluwixdsozaql.jpg,,,,,,,,,,,,,,,
342,20,Memory,6,,,,,,,sunaooaqzputrowwbsw.jpg,,,,,,,,,,,,,,,
343,20,Memory,6,,,,,,,sunacvbrcejzwmcgnoq.jpg,,,,,,,,,,,,,,,
344,20,Memory,6,,,,,,,00770941201fa.jpg,,,,,,,,,,,,,,,
345,20,Memory,6,,,,,,,00557940519fa.jpg,,,,,,,,,,,,,,,
346,20,Memory,6,,,,,,,01009960627fa.jpg,,,,,,,,,,,,,,,
347,20,Memory,6,,,,,,,sunaakxgygjfqrzpyoz.jpg,,,,,,,,,,,,,,,
348,20,Memory,6,,,,,,,00911960530fa.jpg,,,,,,,,,,,,,,,
349,20,Memory,6,,,,,,,00993960627fa.jpg,,,,,,,,,,,,,,,
350,20,Presentation,7,00125931230fa_sunaalltyvjhbzhkmvg.jpg,00895960530fa_sunamczizlzavhzhpay.jpg,,,,,,,<,Place,,,,,1,,,,,,,x
351,20,Presentation,7,00922960627fa_sunapqkyghktgtosuuk.jpg,00851940307fa_sunaivflshbyfrfzhqb.jpg,,,,,,,>,Place,,,,,1,,,,,,,x
352,20,Presentation,7,00184940128fa_sunaavtbadenwnzeutj.jpg,00076931230fa_sunaafewhewbxmjiurz.jpg,,,,,,,>,Face,,,,,1,,,,,,,x
353,20,Presentation,7,00943960627fa_sunarpsxqkduedrrzyi.jpg,00263940128fb_sunabjuovqvyfuzvqwt.jpg,,,,,,,<,Place,,,,,1,,,,,,,o
354,20,Presentation,7,00882960530fa_sunaknlirqjqiwbbeeg.jpg,00952960627fa_sunathzzbcwjykldrem.jpg,,,,,,,<,Face,,,,,1,,,,,,,x
355,20,Presentation,7,00086931230fa_sunaafynehyrzpsoaml.jpg,01207940128fa_sundbixjudsgeuuehrn.jpg,,,,,,,>,Face,,,,,1,,,,,,,o
356,20,Presentation,7,00071940128fa_sunaaexpnawiehinlpy.jpg,00900960530fa_sunamlotskmmsjeogby.jpg,,,,,,,<,Face,,,,,1,,,,,,,o
357,20,Presentation,7,00921960627fa_sunapqkpqdfvxlbqwyo.jpg,00101931230fb_sunaajqmsaavkmgbsth.jpg,,,,,,,>,Place,,,,,1,,,,,,,x
358,20,Presentation,7,00816941205fa_sunahmhrncocyhsjpxk.jpg,00061931230fb_sunaaekxzjzrfgtkwjf.jpg,,,,,,,>,Face,,,,,0,,,,,,,o
359,20,Presentation,7,00752960620fa_sunafbwnojpqeyzssoe.jpg,00564940928fa_sunacmpqqfbsvlzinzl.jpg,,,,,,,<,Place,,,,,1,,,,,,,x
360,20,Memory,7,,,,,,,00208940128fa.jpg,,,,,,,,,,,,,,,
361,20,Memory,7,,,,,,,sunafgzgbisbopcyslr.jpg,,,,,,,,,,,,,,,
362,20,Memory,7,,,,,,,sundbixjudsgeuuehrn.jpg,,,,,,,,,,,,,,,
363,20,Memory,7,,,,,,,sunauburywlkjszngcq.jpg,,,,,,,,,,,,,,,
364,20,Memory,7,,,,,,,sunadqmjrhfjyuzyvdd.jpg,,,,,,,,,,,,,,,
365,20,Memory,7,,,,,,,00816941205fa.jpg,,,,,,,,,,,,,,,
366,20,Memory,7,,,,,,,sunacfdkbsrughwqwtt.jpg,,,,,,,,,,,,,,,
367,20,Memory,7,,,,,,,sunathzzbcwjykldrem.jpg,,,,,,,,,,,,,,,
368,20,Memory,7,,,,,,,00943960627fa.jpg,,,,,,,,,,,,,,,
369,20,Memory,7,,,,,,,00858940307fa.jpg,,,,,,,,,,,,,,,
370,20,Memory,7,,,,,,,sunaazzyhbvqjpmazjq.jpg,,,,,,,,,,,,,,,
371,20,Memory,7,,,,,,,00762941201fa.jpg,,,,,,,,,,,,,,,
372,20,Memory,7,,,,,,,sunahmhrncocyhsjpxk.jpg,,,,,,,,,,,,,,,
373,20,Memory,7,,,,,,,sunaavtbadenwnzeutj.jpg,,,,,,,,,,,,,,,
374,20,Memory,7,,,,,,,00810941205fa.jpg,,,,,,,,,,,,,,,
375,20,Memory,7,,,,,,,sunadikxpvqeabxrvvc.jpg,,,,,,,,,,,,,,,
376,20,Memory,7,,,,,,,sunaknlirqjqiwbbeeg.jpg,,,,,,,,,,,,,,,
377,20,Memory,7,,,,,,,sunaakxjfbrrequcjmx.jpg,,,,,,,,,,,,,,,
378,20,Memory,7,,,,,,,sunaaexpnawiehinlpy.jpg,,,,,,,,,,,,,,,
379,20,Memory,7,,,,,,,00786941205fa.jpg,,,,,,,,,,,,,,,
380,20,Memory,7,,,,,,,00076931230fa.jpg,,,,,,,,,,,,,,,
381,20,Memory,7,,,,,,,sunamlotskmmsjeogby.jpg,,,,,,,,,,,,,,,
382,20,Memory,7,,,,,,,00122931230fa.jpg,,,,,,,,,,,,,,,
383,20,Memory,7,,,,,,,sunarpsxqkduedrrzyi.jpg,,,,,,,,,,,,,,,
384,20,Memory,7,,,,,,,sunagmhildamktmqjss.jpg,,,,,,,,,,,,,,,
385,20,Memory,7,,,,,,,00882960530fa.jpg,,,,,,,,,,,,,,,
386,20,Memory,7,,,,,,,sunahctntqrunhdxhtb.jpg,,,,,,,,,,,,,,,
387,20,Memory,7,,,,,,,sunacmpqqfbsvlzinzl.jpg,,,,,,,,,,,,,,,
388,20,Memory,7,,,,,,,00554940519fa.jpg,,,,,,,,,,,,,,,
389,20,Memory,7,,,,,,,00650941031fa.jpg,,,,,,,,,,,,,,,
390,20,Memory,7,,,,,,,00900960530fa.jpg,,,,,,,,,,,,,,,
391,20,Memory,7,,,,,,,sunaixpqndlwhwjtjek.jpg,,,,,,,,,,,,,,,
392,20,Memory,7,,,,,,,00681941121fa.jpg,,,,,,,,,,,,,,,
393,20,Memory,7,,,,,,,sunaafewhewbxmjiurz.jpg,,,,,,,,,,,,,,,
394,20,Memory,7,,,,,,,00955960627fb.jpg,,,,,,,,,,,,,,,
395,20,Memory,7,,,,,,,01207940128fa.jpg,,,,,,,,,,,,,,,
396,20,Memory,7,,,,,,,00564940928fa.jpg,,,,,,,,,,,,,,,
397,20,Memory,7,,,,,,,00184940128fa.jpg,,,,,,,,,,,,,,,
398,20,Memory,7,,,,,,,00071940128fa.jpg,,,,,,,,,,,,,,,
399,20,Memory,7,,,,,,,00952960627fa.jpg,,,,,,,,,,,,,,,
