,Subject,Trial Type,Run,Cued Composite,Uncued Composite,Cued Face,Cued Place,Uncued Face,Uncued Place,Memory Image,Category,Cued Side,Cued Category,Attention Response Time (s),Familiarity Reaction Time (s),Familiarity Rating,Attention Level,Cue Validity,Post Invalid Cue,Pre Invalid Cue,Attention Button,Rating History,Stimulus Onset,Stimulus End,Attention Probe
0,36,Presentation,0,00276940422fa_sunabmytpyhsgigllxu.jpg,00750941201fa_sunaeuzwggvibufclwf.jpg,00276940422fa.jpg,sunabmytpyhsgigllxu.jpg,00750941201fa.jpg,sunaeuzwggvibufclwf.jpg,,,>,Face,,,,,1,,,,,,,o
1,36,Presentation,0,00062931230fb_sunaaelotvjgibjtjhs.jpg,00887960530_sunalcrtwiycqobgelp.jpg,00062931230fb.jpg,sunaaelotvjgibjtjhs.jpg,00887960530.jpg,sunalcrtwiycqobgelp.jpg,,,>,Face,,,,,1,,,,,,,x
2,36,Presentation,0,00571940928fa_sunacuatpqpqhyjhjqk.jpg,00871940307_sunajrujcsdxmfbssmc.jpg,00571940928fa.jpg,sunacuatpqpqhyjhjqk.jpg,00871940307.jpg,sunajrujcsdxmfbssmc.jpg,,,>,Face,,,,,0,,,,,,,x
3,36,Presentation,0,00749941201fa_sunaeuvjbmdpknaqqaj.jpg,00145931230fb_sunaatjesvdupctftmn.jpg,00749941201fa.jpg,sunaeuvjbmdpknaqqaj.jpg,00145931230fb.jpg,sunaatjesvdupctftmn.jpg,,,>,Face,,,,,1,,,,,,,x
4,36,Presentation,0,00263940128fb_sunabjuovqvyfuzvqwt.jpg,00963960627fa_sunayaepykrqvenaqqy.jpg,00263940128fb.jpg,sunabjuovqvyfuzvqwt.jpg,00963960627fa.jpg,sunayaepykrqvenaqqy.jpg,,,>,Face,,,,,1,,,,,,,x
5,36,Presentation,0,00630940928fa_sunaczwgyukesaajxnx.jpg,00071940128fa_sunaaexpnawiehinlpy.jpg,00630940928fa.jpg,sunaczwgyukesaajxnx.jpg,00071940128fa.jpg,sunaaexpnawiehinlpy.jpg,,,>,Face,,,,,1,,,,,,,x
6,36,Presentation,0,00915960620fa_sunapileznnbbmrwoei.jpg,00921960627fa_sunapqkpqdfvxlbqwyo.jpg,00915960620fa.jpg,sunapileznnbbmrwoei.jpg,00921960627fa.jpg,sunapqkpqdfvxlbqwyo.jpg,,,>,Face,,,,,1,,,,,,,o
7,36,Presentation,0,01002960627fb_sunbwaafjdebjzttuvq.jpg,00540940519fa_sunacdnquypmsshhsbk.jpg,01002960627fb.jpg,sunbwaafjdebjzttuvq.jpg,00540940519fa.jpg,sunacdnquypmsshhsbk.jpg,,,>,Face,,,,,1,,,,,,,x
8,36,Presentation,0,00746941201fa_sunaetydippjxikifsb.jpg,00866940307fa_sunajbwkywmsqkldfml.jpg,00746941201fa.jpg,sunaetydippjxikifsb.jpg,00866940307fa.jpg,sunajbwkywmsqkldfml.jpg,,,>,Face,,,,,1,,,,,,,o
9,36,Presentation,0,00235940128fb_sunabclssnoeuigtawp.jpg,00483940519fa_sunabyvpwkgsjtijdwj.jpg,00235940128fb.jpg,sunabclssnoeuigtawp.jpg,00483940519fa.jpg,sunabyvpwkgsjtijdwj.jpg,,,>,Face,,,,,0,,,,,,,o
10,36,Memory,0,,,,,,,00750941201fa.jpg,,,,,,,,,,,,,,,
11,36,Memory,0,,,,,,,sunabjuovqvyfuzvqwt.jpg,,,,,,,,,,,,,,,
12,36,Memory,0,,,,,,,00630940928fa.jpg,,,,,,,,,,,,,,,
13,36,Memory,0,,,,,,,00071940128fa.jpg,,,,,,,,,,,,,,,
14,36,Memory,0,,,,,,,00136931230fb.jpg,,,,,,,,,,,,,,,
15,36,Memory,0,,,,,,,00571940928fa.jpg,,,,,,,,,,,,,,,
16,36,Memory,0,,,,,,,sunaaexpnawiehinlpy.jpg,,,,,,,,,,,,,,,
17,36,Memory,0,,,,,,,sunacerqowiaeoqkmsq.jpg,,,,,,,,,,,,,,,
18,36,Memory,0,,,,,,,sunaczwgyukesaajxnx.jpg,,,,,,,,,,,,,,,
19,36,Memory,0,,,,,,,sunamlotskmmsjeogby.jpg,,,,,,,,,,,,,,,
20,36,Memory,0,,,,,,,sunabwfvcqqidycwypa.jpg,,,,,,,,,,,,,,,
21,36,Memory,0,,,,,,,sunabqowuarvqqcnipn.jpg,,,,,,,,,,,,,,,
22,36,Memory,0,,,,,,,sunacuatpqpqhyjhjqk.jpg,,,,,,,,,,,,,,,
23,36,Memory,0,,,,,,,00197940128fa.jpg,,,,,,,,,,,,,,,
24,36,Memory,0,,,,,,,00746941201fa.jpg,,,,,,,,,,,,,,,
25,36,Memory,0,,,,,,,00290940422fa.jpg,,,,,,,,,,,,,,,
26,36,Memory,0,,,,,,,00871940307.jpg,,,,,,,,,,,,,,,
27,36,Memory,0,,,,,,,sunajrujcsdxmfbssmc.jpg,,,,,,,,,,,,,,,
28,36,Memory,0,,,,,,,sunagvxkjokqimstxpe.jpg,,,,,,,,,,,,,,,
29,36,Memory,0,,,,,,,00308940422fb.jpg,,,,,,,,,,,,,,,
30,36,Memory,0,,,,,,,sunapileznnbbmrwoei.jpg,,,,,,,,,,,,,,,
31,36,Memory,0,,,,,,,sunatstrpjxhvtbaczf.jpg,,,,,,,,,,,,,,,
32,36,Memory,0,,,,,,,00803941205fa.jpg,,,,,,,,,,,,,,,
33,36,Memory,0,,,,,,,sunapqkpqdfvxlbqwyo.jpg,,,,,,,,,,,,,,,
34,36,Memory,0,,,,,,,00548940519fa.jpg,,,,,,,,,,,,,,,
35,36,Memory,0,,,,,,,00915960620fa.jpg,,,,,,,,,,,,,,,
36,36,Memory,0,,,,,,,00953960627fa.jpg,,,,,,,,,,,,,,,
37,36,Memory,0,,,,,,,sunaaylzyqlqrsmfwif.jpg,,,,,,,,,,,,,,,
38,36,Memory,0,,,,,,,00921960627fa.jpg,,,,,,,,,,,,,,,
39,36,Memory,0,,,,,,,sunaeuzwggvibufclwf.jpg,,,,,,,,,,,,,,,
40,36,Memory,0,,,,,,,sunaetydippjxikifsb.jpg,,,,,,,,,,,,,,,
41,36,Memory,0,,,,,,,sunbaejotfklekvpxcz.jpg,,,,,,,,,,,,,,,
42,36,Memory,0,,,,,,,sunaanptmsknhirrzed.jpg,,,,,,,,,,,,,,,
43,36,Memory,0,,,,,,,00263940128fb.jpg,,,,,,,,,,,,,,,
44,36,Memory,0,,,,,,,00900960530fa.jpg,,,,,,,,,,,,,,,
45,36,Memory,0,,,,,,,sunaefgzwiramypjvtd.jpg,,,,,,,,,,,,,,,
46,36,Memory,0,,,,,,,sunabyvpwkgsjtijdwj.jpg,,,,,,,,,,,,,,,
47,36,Memory,0,,,,,,,00725941201fa.jpg,,,,,,,,,,,,,,,
48,36,Memory,0,,,,,,,00483940519fa.jpg,,,,,,,,,,,,,,,
49,36,Memory,0,,,,,,,00967960627fa.jpg,,,,,,,,,,,,,,,
50,36,Presentation,1,00127931230fa_sunaampvucecsfbdafn.jpg,00773941201fa_sunafvcflzhlqloapyo.jpg,00127931230fa.jpg,sunaampvucecsfbdafn.jpg,00773941201fa.jpg,sunafvcflzhlqloapyo.jpg,,,>,Place,,,,,0,,,,,,,o
51,36,Presentation,1,01007960627fa_sunbxarcshsnqsefemx.jpg,00314940422fa_sunabwmcbaxwioksdgw.jpg,01007960627fa.jpg,sunbxarcshsnqsefemx.jpg,00314940422fa.jpg,sunabwmcbaxwioksdgw.jpg,,,>,Place,,,,,1,,,,,,,x
52,36,Presentation,1,00859940307fa_sunaiycurtqsfkvcaso.jpg,00969960627fa_sunbaoizrfijvhpnnjn.jpg,00859940307fa.jpg,sunaiycurtqsfkvcaso.jpg,00969960627fa.jpg,sunbaoizrfijvhpnnjn.jpg,,,>,Place,,,,,1,,,,,,,x
53,36,Presentation,1,00959960627fa_sunavxokzybtomhbmvm.jpg,01010960627fa_suncnkvbhypnivcohyx.jpg,00959960627fa.jpg,sunavxokzybtomhbmvm.jpg,01010960627fa.jpg,suncnkvbhypnivcohyx.jpg,,,>,Place,,,,,1,,,,,,,x
54,36,Presentation,1,00812941205fa_sunahgtbwgsmtqeodwh.jpg,00841940307fa_sunaisiwfgppimtnmxl.jpg,00812941205fa.jpg,sunahgtbwgsmtqeodwh.jpg,00841940307fa.jpg,sunaisiwfgppimtnmxl.jpg,,,>,Place,,,,,1,,,,,,,x
55,36,Presentation,1,00929960627fa_sunaprnrbmgkomdbchr.jpg,00827940307fa_sunahtfxgsrmkiulnwk.jpg,00929960627fa.jpg,sunaprnrbmgkomdbchr.jpg,00827940307fa.jpg,sunahtfxgsrmkiulnwk.jpg,,,>,Place,,,,,1,,,,,,,o
56,36,Presentation,1,00063931230fa_sunaaelyvurpntclgau.jpg,00221940128fa_sunabcfpwlpolnutyju.jpg,00063931230fa.jpg,sunaaelyvurpntclgau.jpg,00221940128fa.jpg,sunabcfpwlpolnutyju.jpg,,,>,Place,,,,,1,,,,,,,o
57,36,Presentation,1,00961960627fa_sunawotxrevnqvamsfp.jpg,00987960627fa_sunbloeoiozwjjsiamp.jpg,00961960627fa.jpg,sunawotxrevnqvamsfp.jpg,00987960627fa.jpg,sunbloeoiozwjjsiamp.jpg,,,>,Place,,,,,1,,,,,,,o
58,36,Presentation,1,00270940422fb_sunabllobxadqcyttej.jpg,00271940422fa_sunabmbnddafmywtjjj.jpg,00270940422fb.jpg,sunabllobxadqcyttej.jpg,00271940422fa.jpg,sunabmbnddafmywtjjj.jpg,,,>,Place,,,,,1,,,,,,,x
59,36,Presentation,1,00971960627fa_sunbbegcweqnetpdlrh.jpg,00754941201fa_sunaffgsyyvoqdlkmnk.jpg,00971960627fa.jpg,sunbbegcweqnetpdlrh.jpg,00754941201fa.jpg,sunaffgsyyvoqdlkmnk.jpg,,,>,Place,,,,,1,,,,,,,x
60,36,Memory,1,,,,,,,00130931230fa.jpg,,,,,,,,,,,,,,,
61,36,Memory,1,,,,,,,sunaisiwfgppimtnmxl.jpg,,,,,,,,,,,,,,,
62,36,Memory,1,,,,,,,00878960530fa.jpg,,,,,,,,,,,,,,,
63,36,Memory,1,,,,,,,00264940128fb.jpg,,,,,,,,,,,,,,,
64,36,Memory,1,,,,,,,sunaaehaikpckyjsety.jpg,,,,,,,,,,,,,,,
65,36,Memory,1,,,,,,,sunaixpqndlwhwjtjek.jpg,,,,,,,,,,,,,,,
66,36,Memory,1,,,,,,,sunbloeoiozwjjsiamp.jpg,,,,,,,,,,,,,,,
67,36,Memory,1,,,,,,,sunasnqkkyhilqkxiqm.jpg,,,,,,,,,,,,,,,
68,36,Memory,1,,,,,,,sunawotxrevnqvamsfp.jpg,,,,,,,,,,,,,,,
69,36,Memory,1,,,,,,,00060931230fa.jpg,,,,,,,,,,,,,,,
70,36,Memory,1,,,,,,,sunaydywdmvlfddbxbk.jpg,,,,,,,,,,,,,,,
71,36,Memory,1,,,,,,,00543940519fa.jpg,,,,,,,,,,,,,,,
72,36,Memory,1,,,,,,,00987960627fa.jpg,,,,,,,,,,,,,,,
73,36,Memory,1,,,,,,,sunbbegcweqnetpdlrh.jpg,,,,,,,,,,,,,,,
74,36,Memory,1,,,,,,,sunaiycurtqsfkvcaso.jpg,,,,,,,,,,,,,,,
75,36,Memory,1,,,,,,,00314940422fa.jpg,,,,,,,,,,,,,,,
76,36,Memory,1,,,,,,,00959960627fa.jpg,,,,,,,,,,,,,,,
77,36,Memory,1,,,,,,,sunaffgsyyvoqdlkmnk.jpg,,,,,,,,,,,,,,,
78,36,Memory,1,,,,,,,00773941201fa.jpg,,,,,,,,,,,,,,,
79,36,Memory,1,,,,,,,00965960627fa.jpg,,,,,,,,,,,,,,,
80,36,Memory,1,,,,,,,sunabjzyxcjnmztdonj.jpg,,,,,,,,,,,,,,,
81,36,Memory,1,,,,,,,sunabwmcbaxwioksdgw.jpg,,,,,,,,,,,,,,,
82,36,Memory,1,,,,,,,00754941201fa.jpg,,,,,,,,,,,,,,,
83,36,Memory,1,,,,,,,00949960627fb.jpg,,,,,,,,,,,,,,,
84,36,Memory,1,,,,,,,sunabllobxadqcyttej.jpg,,,,,,,,,,,,,,,
85,36,Memory,1,,,,,,,sunacepzfrmtkiqonpy.jpg,,,,,,,,,,,,,,,
86,36,Memory,1,,,,,,,00952960627fa.jpg,,,,,,,,,,,,,,,
87,36,Memory,1,,,,,,,sunathzzbcwjykldrem.jpg,,,,,,,,,,,,,,,
88,36,Memory,1,,,,,,,sunaejnvnpltdmhbcsi.jpg,,,,,,,,,,,,,,,
89,36,Memory,1,,,,,,,00728941205fa.jpg,,,,,,,,,,,,,,,
90,36,Memory,1,,,,,,,00270940422fb.jpg,,,,,,,,,,,,,,,
91,36,Memory,1,,,,,,,00841940307fa.jpg,,,,,,,,,,,,,,,
92,36,Memory,1,,,,,,,sunafvcflzhlqloapyo.jpg,,,,,,,,,,,,,,,
93,36,Memory,1,,,,,,,sunaamvxnvouicstkjb.jpg,,,,,,,,,,,,,,,
94,36,Memory,1,,,,,,,sunakgbnzxmfohgehnu.jpg,,,,,,,,,,,,,,,
95,36,Memory,1,,,,,,,00859940307fa.jpg,,,,,,,,,,,,,,,
96,36,Memory,1,,,,,,,00971960627fa.jpg,,,,,,,,,,,,,,,
97,36,Memory,1,,,,,,,00961960627fa.jpg,,,,,,,,,,,,,,,
98,36,Memory,1,,,,,,,sunavxokzybtomhbmvm.jpg,,,,,,,,,,,,,,,
99,36,Memory,1,,,,,,,00858940307fa.jpg,,,,,,,,,,,,,,,
100,36,Presentation,2,00719941201fa_sunadvithllcgmfxsrn.jpg,00559940519fa_sunacjkmnpawfzbyvae.jpg,00719941201fa.jpg,sunadvithllcgmfxsrn.jpg,00559940519fa.jpg,sunacjkmnpawfzbyvae.jpg,,,<,Place,,,,,1,,,,,,,x
101,36,Presentation,2,00562941031fa_sunacjnahdmqfnjfwqx.jpg,00931960627fa_sunaptrqvaooxfvktvw.jpg,00562941031fa.jpg,sunacjnahdmqfnjfwqx.jpg,00931960627fa.jpg,sunaptrqvaooxfvktvw.jpg,,,<,Place,,,,,1,,,,,,,x
102,36,Presentation,2,00086931230fa_sunaafynehyrzpsoaml.jpg,00889960530fa_sunaletopenvvozhpxc.jpg,00086931230fa.jpg,sunaafynehyrzpsoaml.jpg,00889960530fa.jpg,sunaletopenvvozhpxc.jpg,,,<,Place,,,,,1,,,,,,,o
103,36,Presentation,2,00839940307fa_sunaipyohrqlwngaqif.jpg,00777941205fa_sunagcinxkccdtrjmlv.jpg,00839940307fa.jpg,sunaipyohrqlwngaqif.jpg,00777941205fa.jpg,sunagcinxkccdtrjmlv.jpg,,,<,Place,,,,,1,,,,,,,o
104,36,Presentation,2,00985960627fa_sunbgklxeqjhdbyfhhy.jpg,00647941031fa_sunadflbrkckmepztql.jpg,00985960627fa.jpg,sunbgklxeqjhdbyfhhy.jpg,00647941031fa.jpg,sunadflbrkckmepztql.jpg,,,<,Place,,,,,0,,,,,,,o
105,36,Presentation,2,00993960627fa_sunbprywzqxjcezkbch.jpg,00973960627fa_sunbbgtoeuzierkkajt.jpg,00993960627fa.jpg,sunbprywzqxjcezkbch.jpg,00973960627fa.jpg,sunbbgtoeuzierkkajt.jpg,,,<,Place,,,,,1,,,,,,,x
106,36,Presentation,2,00834940307fa_sunaibnpvhkdpdnzcnz.jpg,00144931230fb_sunaathajvxrgptwhoj.jpg,00834940307fa.jpg,sunaibnpvhkdpdnzcnz.jpg,00144931230fb.jpg,sunaathajvxrgptwhoj.jpg,,,<,Place,,,,,1,,,,,,,o
107,36,Presentation,2,01011960627fa_sundahdxwmcdluscvot.jpg,00800941205fb_sunagvjurcwdbixvnyi.jpg,01011960627fa.jpg,sundahdxwmcdluscvot.jpg,00800941205fb.jpg,sunagvjurcwdbixvnyi.jpg,,,<,Place,,,,,1,,,,,,,x
108,36,Presentation,2,00133931230fa_sunaanlwnpqndclffxt.jpg,00065931230fb_sunaaemixhfquhnxxlm.jpg,00133931230fa.jpg,sunaanlwnpqndclffxt.jpg,00065931230fb.jpg,sunaaemixhfquhnxxlm.jpg,,,<,Place,,,,,1,,,,,,,o
109,36,Presentation,2,00901960530fa_sunammbnoambmhdxdwd.jpg,00700941121fa_sunadsgmtznewzyasnk.jpg,00901960530fa.jpg,sunammbnoambmhdxdwd.jpg,00700941121fa.jpg,sunadsgmtznewzyasnk.jpg,,,<,Place,,,,,1,,,,,,,x
110,36,Memory,2,,,,,,,sunahbvlpavurqoxdeq.jpg,,,,,,,,,,,,,,,
111,36,Memory,2,,,,,,,00198940128fb.jpg,,,,,,,,,,,,,,,
112,36,Memory,2,,,,,,,sunacacflqoyxhsqzhe.jpg,,,,,,,,,,,,,,,
113,36,Memory,2,,,,,,,sunaletopenvvozhpxc.jpg,,,,,,,,,,,,,,,
114,36,Memory,2,,,,,,,00834940307fa.jpg,,,,,,,,,,,,,,,
115,36,Memory,2,,,,,,,sunacypmnujalygkunp.jpg,,,,,,,,,,,,,,,
116,36,Memory,2,,,,,,,00564940928fa.jpg,,,,,,,,,,,,,,,
117,36,Memory,2,,,,,,,00901960530fa.jpg,,,,,,,,,,,,,,,
118,36,Memory,2,,,,,,,00065931230fb.jpg,,,,,,,,,,,,,,,
119,36,Memory,2,,,,,,,sunaibnpvhkdpdnzcnz.jpg,,,,,,,,,,,,,,,
120,36,Memory,2,,,,,,,00559940519fa.jpg,,,,,,,,,,,,,,,
121,36,Memory,2,,,,,,,sunacmpqqfbsvlzinzl.jpg,,,,,,,,,,,,,,,
122,36,Memory,2,,,,,,,sunbbgtoeuzierkkajt.jpg,,,,,,,,,,,,,,,
123,36,Memory,2,,,,,,,sunacycdoztxoluxjyk.jpg,,,,,,,,,,,,,,,
124,36,Memory,2,,,,,,,sunammbnoambmhdxdwd.jpg,,,,,,,,,,,,,,,
125,36,Memory,2,,,,,,,sunbprywzqxjcezkbch.jpg,,,,,,,,,,,,,,,
126,36,Memory,2,,,,,,,00973960627fa.jpg,,,,,,,,,,,,,,,
127,36,Memory,2,,,,,,,00741941201fa.jpg,,,,,,,,,,,,,,,
128,36,Memory,2,,,,,,,00809960620fa.jpg,,,,,,,,,,,,,,,
129,36,Memory,2,,,,,,,sunabizydfotqddlnjp.jpg,,,,,,,,,,,,,,,
130,36,Memory,2,,,,,,,01011960627fa.jpg,,,,,,,,,,,,,,,
131,36,Memory,2,,,,,,,00794960620fa.jpg,,,,,,,,,,,,,,,
132,36,Memory,2,,,,,,,00507940519fa.jpg,,,,,,,,,,,,,,,
133,36,Memory,2,,,,,,,sunaemcowdozyphwknd.jpg,,,,,,,,,,,,,,,
134,36,Memory,2,,,,,,,sundahdxwmcdluscvot.jpg,,,,,,,,,,,,,,,
135,36,Memory,2,,,,,,,sunaazezcsunmhttzxz.jpg,,,,,,,,,,,,,,,
136,36,Memory,2,,,,,,,00777941205fa.jpg,,,,,,,,,,,,,,,
137,36,Memory,2,,,,,,,sunaaemixhfquhnxxlm.jpg,,,,,,,,,,,,,,,
138,36,Memory,2,,,,,,,sunbpvgllfdejxcpjqp.jpg,,,,,,,,,,,,,,,
139,36,Memory,2,,,,,,,sunacjkmnpawfzbyvae.jpg,,,,,,,,,,,,,,,
140,36,Memory,2,,,,,,,00993960627fa.jpg,,,,,,,,,,,,,,,
141,36,Memory,2,,,,,,,sunadvithllcgmfxsrn.jpg,,,,,,,,,,,,,,,
142,36,Memory,2,,,,,,,sunagtqhhwxjeuxdebe.jpg,,,,,,,,,,,,,,,
143,36,Memory,2,,,,,,,00719941201fa.jpg,,,,,,,,,,,,,,,
144,36,Memory,2,,,,,,,00262940128fa.jpg,,,,,,,,,,,,,,,
145,36,Memory,2,,,,,,,00609940928fa.jpg,,,,,,,,,,,,,,,
146,36,Memory,2,,,,,,,00889960530fa.jpg,,,,,,,,,,,,,,,
147,36,Memory,2,,,,,,,sunagcinxkccdtrjmlv.jpg,,,,,,,,,,,,,,,
148,36,Memory,2,,,,,,,00620940928fa.jpg,,,,,,,,,,,,,,,
149,36,Memory,2,,,,,,,00996960627fa.jpg,,,,,,,,,,,,,,,
150,36,Presentation,3,00829940307fa_sunahwgbqkqcrwprgvh.jpg,00260940128fa_sunabgfhvifeijihhjw.jpg,00829940307fa.jpg,sunahwgbqkqcrwprgvh.jpg,00260940128fa.jpg,sunabgfhvifeijihhjw.jpg,,,>,Place,,,,,1,,,,,,,o
151,36,Presentation,3,00978960627fa_sunbddbivbptlrlauhy.jpg,00071941031fa_sunaaexqbtdswxrqjvz.jpg,00978960627fa.jpg,sunbddbivbptlrlauhy.jpg,00071941031fa.jpg,sunaaexqbtdswxrqjvz.jpg,,,>,Place,,,,,1,,,,,,,o
152,36,Presentation,3,00096931230fa_sunaaiqiqcggrskoqgy.jpg,00631940928fa_sunadbdqzigzwipuipr.jpg,00096931230fa.jpg,sunaaiqiqcggrskoqgy.jpg,00631940928fa.jpg,sunadbdqzigzwipuipr.jpg,,,>,Place,,,,,1,,,,,,,o
153,36,Presentation,3,00780960530fa_sunagetqixeypsysbpn.jpg,00073931230fa_sunaafbmtoniaasysgu.jpg,00780960530fa.jpg,sunagetqixeypsysbpn.jpg,00073931230fa.jpg,sunaafbmtoniaasysgu.jpg,,,>,Place,,,,,1,,,,,,,x
154,36,Presentation,3,00076931230fa_sunaafewhewbxmjiurz.jpg,00762941201fa_sunafgzgbisbopcyslr.jpg,00076931230fa.jpg,sunaafewhewbxmjiurz.jpg,00762941201fa.jpg,sunafgzgbisbopcyslr.jpg,,,>,Place,,,,,1,,,,,,,x
155,36,Presentation,3,00970960627fa_sunbasypfgzjtomktmu.jpg,00807941205fa_sunahawfngukizslzsd.jpg,00970960627fa.jpg,sunbasypfgzjtomktmu.jpg,00807941205fa.jpg,sunahawfngukizslzsd.jpg,,,>,Place,,,,,1,,,,,,,o
156,36,Presentation,3,00997960627fa_sunbtpilbhhbmhmeuzq.jpg,00885960530fa_sunakwlvxjpddialozd.jpg,00997960627fa.jpg,sunbtpilbhhbmhmeuzq.jpg,00885960530fa.jpg,sunakwlvxjpddialozd.jpg,,,>,Place,,,,,1,,,,,,,o
157,36,Presentation,3,00727941205fa_sunaeisnjeetzmkbuad.jpg,00140931230fb_sunaapllqyqlykszopd.jpg,00727941205fa.jpg,sunaeisnjeetzmkbuad.jpg,00140931230fb.jpg,sunaapllqyqlykszopd.jpg,,,>,Place,,,,,1,,,,,,,x
158,36,Presentation,3,00876960620fa_sunajwqkfsykceonyig.jpg,00089931230fa_sunaagcpoejbuzyvddd.jpg,00876960620fa.jpg,sunajwqkfsykceonyig.jpg,00089931230fa.jpg,sunaagcpoejbuzyvddd.jpg,,,>,Place,,,,,1,,,,,,,o
159,36,Presentation,3,00968960627fa_sunbagfpovqwbuexqdn.jpg,00288940422fa_sunabppokiyglaxpcha.jpg,00968960627fa.jpg,sunbagfpovqwbuexqdn.jpg,00288940422fa.jpg,sunabppokiyglaxpcha.jpg,,,>,Place,,,,,1,,,,,,,o
160,36,Memory,3,,,,,,,00807941205fa.jpg,,,,,,,,,,,,,,,
161,36,Memory,3,,,,,,,sunahawfngukizslzsd.jpg,,,,,,,,,,,,,,,
162,36,Memory,3,,,,,,,sunadoxcchtmsxewsau.jpg,,,,,,,,,,,,,,,
163,36,Memory,3,,,,,,,sunaajqmsaavkmgbsth.jpg,,,,,,,,,,,,,,,
164,36,Memory,3,,,,,,,00828940307fa.jpg,,,,,,,,,,,,,,,
165,36,Memory,3,,,,,,,00977960627fa.jpg,,,,,,,,,,,,,,,
166,36,Memory,3,,,,,,,sunajwqkfsykceonyig.jpg,,,,,,,,,,,,,,,
167,36,Memory,3,,,,,,,00675941121fa.jpg,,,,,,,,,,,,,,,
168,36,Memory,3,,,,,,,sunadcphrizvfpljiqt.jpg,,,,,,,,,,,,,,,
169,36,Memory,3,,,,,,,00479940519fa.jpg,,,,,,,,,,,,,,,
170,36,Memory,3,,,,,,,sunaagcpoejbuzyvddd.jpg,,,,,,,,,,,,,,,
171,36,Memory,3,,,,,,,00893960530Fa.jpg,,,,,,,,,,,,,,,
172,36,Memory,3,,,,,,,sundbixjudsgeuuehrn.jpg,,,,,,,,,,,,,,,
173,36,Memory,3,,,,,,,01207940128fa.jpg,,,,,,,,,,,,,,,
174,36,Memory,3,,,,,,,00727941205fa.jpg,,,,,,,,,,,,,,,
175,36,Memory,3,,,,,,,sunadbdqzigzwipuipr.jpg,,,,,,,,,,,,,,,
176,36,Memory,3,,,,,,,sunbagfpovqwbuexqdn.jpg,,,,,,,,,,,,,,,
177,36,Memory,3,,,,,,,00071941031fa.jpg,,,,,,,,,,,,,,,
178,36,Memory,3,,,,,,,00631940928fa.jpg,,,,,,,,,,,,,,,
179,36,Memory,3,,,,,,,sunaaexqbtdswxrqjvz.jpg,,,,,,,,,,,,,,,
180,36,Memory,3,,,,,,,00288940422fa.jpg,,,,,,,,,,,,,,,
181,36,Memory,3,,,,,,,00780960530fa.jpg,,,,,,,,,,,,,,,
182,36,Memory,3,,,,,,,sunahuynahneraqftyz.jpg,,,,,,,,,,,,,,,
183,36,Memory,3,,,,,,,00101931230fb.jpg,,,,,,,,,,,,,,,
184,36,Memory,3,,,,,,,00634940928fa.jpg,,,,,,,,,,,,,,,
185,36,Memory,3,,,,,,,sunanmoqeyprjjjfxjt.jpg,,,,,,,,,,,,,,,
186,36,Memory,3,,,,,,,00968960627fa.jpg,,,,,,,,,,,,,,,
187,36,Memory,3,,,,,,,sunaloffvbvysigxent.jpg,,,,,,,,,,,,,,,
188,36,Memory,3,,,,,,,sunabppokiyglaxpcha.jpg,,,,,,,,,,,,,,,
189,36,Memory,3,,,,,,,00876960620fa.jpg,,,,,,,,,,,,,,,
190,36,Memory,3,,,,,,,00854940307fa.jpg,,,,,,,,,,,,,,,
191,36,Memory,3,,,,,,,sunagetqixeypsysbpn.jpg,,,,,,,,,,,,,,,
192,36,Memory,3,,,,,,,00089931230fa.jpg,,,,,,,,,,,,,,,
193,36,Memory,3,,,,,,,sunbbxkanhzjgbwyxqs.jpg,,,,,,,,,,,,,,,
194,36,Memory,3,,,,,,,sunaiwduelojtwaqeyh.jpg,,,,,,,,,,,,,,,
195,36,Memory,3,,,,,,,sunaeisnjeetzmkbuad.jpg,,,,,,,,,,,,,,,
196,36,Memory,3,,,,,,,00905960530fa.jpg,,,,,,,,,,,,,,,
197,36,Memory,3,,,,,,,00829940307fa.jpg,,,,,,,,,,,,,,,
198,36,Memory,3,,,,,,,sunabxsbfwjccqxxzxq.jpg,,,,,,,,,,,,,,,
199,36,Memory,3,,,,,,,sunahwgbqkqcrwprgvh.jpg,,,,,,,,,,,,,,,
200,36,Presentation,4,00892960530fa_sunalntxqqadigcletd.jpg,00947960627fa_sunasmmcxdddtmtazwx.jpg,00892960530fa.jpg,sunalntxqqadigcletd.jpg,00947960627fa.jpg,sunasmmcxdddtmtazwx.jpg,,,<,Face,,,,,1,,,,,,,o
201,36,Presentation,4,00898960530fa_sunamkmeblgteyggink.jpg,01003960627fb_sunbwdrdvsweerwsdrj.jpg,00898960530fa.jpg,sunamkmeblgteyggink.jpg,01003960627fb.jpg,sunbwdrdvsweerwsdrj.jpg,,,<,Face,,,,,1,,,,,,,x
202,36,Presentation,4,00790941205fa_sunagpjzsbltchlwvou.jpg,00316940422fa_sunabxmguapjekttvwm.jpg,00790941205fa.jpg,sunagpjzsbltchlwvou.jpg,00316940422fa.jpg,sunabxmguapjekttvwm.jpg,,,<,Face,,,,,1,,,,,,,x
203,36,Presentation,4,00193940928fa_sunaaxjpzcnxligjtjq.jpg,00972960627fa_sunbbfqwjpdxniyhies.jpg,00193940928fa.jpg,sunaaxjpzcnxligjtjq.jpg,00972960627fa.jpg,sunbbfqwjpdxniyhies.jpg,,,<,Face,,,,,1,,,,,,,x
204,36,Presentation,4,00979960627fa_sunbdycacjfaujxitbw.jpg,00786941205fa_sunagmhildamktmqjss.jpg,00979960627fa.jpg,sunbdycacjfaujxitbw.jpg,00786941205fa.jpg,sunagmhildamktmqjss.jpg,,,<,Face,,,,,1,,,,,,,x
205,36,Presentation,4,00227940128fa_sunabckqabszusgcykj.jpg,00633940928fa_sunadbhmrgrrpyzglxs.jpg,00227940128fa.jpg,sunabckqabszusgcykj.jpg,00633940928fa.jpg,sunadbhmrgrrpyzglxs.jpg,,,<,Face,,,,,1,,,,,,,o
206,36,Presentation,4,00598940928fa_sunacxeheuiigkcgquf.jpg,00763941205fa_sunafhmnhsdurlvddpw.jpg,00598940928fa.jpg,sunacxeheuiigkcgquf.jpg,00763941205fa.jpg,sunafhmnhsdurlvddpw.jpg,,,<,Face,,,,,1,,,,,,,o
207,36,Presentation,4,00111931230fb_sunaakgekhjklxmvulj.jpg,00069931230fb_sunaaeowapdkwzqpgqr.jpg,00111931230fb.jpg,sunaakgekhjklxmvulj.jpg,00069931230fb.jpg,sunaaeowapdkwzqpgqr.jpg,,,<,Face,,,,,1,,,,,,,x
208,36,Presentation,4,00663941121fa_sunadnjjzohjhbohlwq.jpg,00120931230fa_sunaakxgygjfqrzpyoz.jpg,00663941121fa.jpg,sunadnjjzohjhbohlwq.jpg,00120931230fa.jpg,sunaakxgygjfqrzpyoz.jpg,,,<,Face,,,,,0,,,,,,,x
209,36,Presentation,4,00766960620fa_sunafijbgncijwykrnl.jpg,00112931230fa_sunaakjaacuzulqckgl.jpg,00766960620fa.jpg,sunafijbgncijwykrnl.jpg,00112931230fa.jpg,sunaakjaacuzulqckgl.jpg,,,<,Face,,,,,1,,,,,,,o
210,36,Memory,4,,,,,,,sunaakxgygjfqrzpyoz.jpg,,,,,,,,,,,,,,,
211,36,Memory,4,,,,,,,00835940307fa.jpg,,,,,,,,,,,,,,,
212,36,Memory,4,,,,,,,sunaakgekhjklxmvulj.jpg,,,,,,,,,,,,,,,
213,36,Memory,4,,,,,,,00779941205fa.jpg,,,,,,,,,,,,,,,
214,36,Memory,4,,,,,,,sunaijsqpvodplbwxkf.jpg,,,,,,,,,,,,,,,
215,36,Memory,4,,,,,,,sunbpflsdaxnddnwcqi.jpg,,,,,,,,,,,,,,,
216,36,Memory,4,,,,,,,00147931230fb.jpg,,,,,,,,,,,,,,,
217,36,Memory,4,,,,,,,sunadbhmrgrrpyzglxs.jpg,,,,,,,,,,,,,,,
218,36,Memory,4,,,,,,,sunacxtcahkymosigud.jpg,,,,,,,,,,,,,,,
219,36,Memory,4,,,,,,,00705960530fa.jpg,,,,,,,,,,,,,,,
220,36,Memory,4,,,,,,,00864940307fa.jpg,,,,,,,,,,,,,,,
221,36,Memory,4,,,,,,,sunaakmxzhuceuiryah.jpg,,,,,,,,,,,,,,,
222,36,Memory,4,,,,,,,sunagpancjmxqfazssf.jpg,,,,,,,,,,,,,,,
223,36,Memory,4,,,,,,,00120931230fa.jpg,,,,,,,,,,,,,,,
224,36,Memory,4,,,,,,,00193940928fa.jpg,,,,,,,,,,,,,,,
225,36,Memory,4,,,,,,,sunaaekxzjzrfgtkwjf.jpg,,,,,,,,,,,,,,,
226,36,Memory,4,,,,,,,sunabxmguapjekttvwm.jpg,,,,,,,,,,,,,,,
227,36,Memory,4,,,,,,,00766960620fa.jpg,,,,,,,,,,,,,,,
228,36,Memory,4,,,,,,,sunasmmcxdddtmtazwx.jpg,,,,,,,,,,,,,,,
229,36,Memory,4,,,,,,,00789960620fa.jpg,,,,,,,,,,,,,,,
230,36,Memory,4,,,,,,,sunafijbgncijwykrnl.jpg,,,,,,,,,,,,,,,
231,36,Memory,4,,,,,,,00316940422fa.jpg,,,,,,,,,,,,,,,
232,36,Memory,4,,,,,,,00790941205fa.jpg,,,,,,,,,,,,,,,
233,36,Memory,4,,,,,,,sunagdzlvkqtpnfxfcg.jpg,,,,,,,,,,,,,,,
234,36,Memory,4,,,,,,,00947960627fa.jpg,,,,,,,,,,,,,,,
235,36,Memory,4,,,,,,,sunaduslxfzlbxlllnz.jpg,,,,,,,,,,,,,,,
236,36,Memory,4,,,,,,,00598941031fa.jpg,,,,,,,,,,,,,,,
237,36,Memory,4,,,,,,,00115931230fa.jpg,,,,,,,,,,,,,,,
238,36,Memory,4,,,,,,,00111931230fb.jpg,,,,,,,,,,,,,,,
239,36,Memory,4,,,,,,,00069931230fb.jpg,,,,,,,,,,,,,,,
240,36,Memory,4,,,,,,,00061931230fb.jpg,,,,,,,,,,,,,,,
241,36,Memory,4,,,,,,,00990960627fa.jpg,,,,,,,,,,,,,,,
242,36,Memory,4,,,,,,,00633940928fa.jpg,,,,,,,,,,,,,,,
243,36,Memory,4,,,,,,,sunagpjzsbltchlwvou.jpg,,,,,,,,,,,,,,,
244,36,Memory,4,,,,,,,sunaatpkocdkocwxpkb.jpg,,,,,,,,,,,,,,,
245,36,Memory,4,,,,,,,00663941121fa.jpg,,,,,,,,,,,,,,,
246,36,Memory,4,,,,,,,sunajawzbrlrwafowen.jpg,,,,,,,,,,,,,,,
247,36,Memory,4,,,,,,,sunaaxjpzcnxligjtjq.jpg,,,,,,,,,,,,,,,
248,36,Memory,4,,,,,,,sunaaeowapdkwzqpgqr.jpg,,,,,,,,,,,,,,,
249,36,Memory,4,,,,,,,sunadnjjzohjhbohlwq.jpg,,,,,,,,,,,,,,,
250,36,Presentation,5,00082931230fa_sunaafvitpexrpvumsa.jpg,00782941205fa_sunagfvluwixdsozaql.jpg,00082931230fa.jpg,sunaafvitpexrpvumsa.jpg,00782941205fa.jpg,sunagfvluwixdsozaql.jpg,,,<,Place,,,,,1,,,,,,,o
251,36,Presentation,5,00982960627fa_sunbesrwkdsffeogeqq.jpg,00123931230fb_sunaalcrrdbjgdztbiz.jpg,00982960627fa.jpg,sunbesrwkdsffeogeqq.jpg,00123931230fb.jpg,sunaalcrrdbjgdztbiz.jpg,,,<,Place,,,,,1,,,,,,,o
252,36,Presentation,5,00784941205fb_sunagjzcrjvmxzqzljx.jpg,00771941205fa_sunafowswglhxcsufpo.jpg,00784941205fb.jpg,sunagjzcrjvmxzqzljx.jpg,00771941205fa.jpg,sunafowswglhxcsufpo.jpg,,,<,Place,,,,,1,,,,,,,o
253,36,Presentation,5,00481940519fa_sunabxsuqbleluwczoy.jpg,00554940519fa_sunacfdkbsrughwqwtt.jpg,00481940519fa.jpg,sunabxsuqbleluwczoy.jpg,00554940519fa.jpg,sunacfdkbsrughwqwtt.jpg,,,<,Place,,,,,1,,,,,,,o
254,36,Presentation,5,00909960530_sunaobtizabegtwfwul.jpg,00095931230fa_sunaahzooisqkwlxwoz.jpg,00909960530.jpg,sunaobtizabegtwfwul.jpg,00095931230fa.jpg,sunaahzooisqkwlxwoz.jpg,,,<,Place,,,,,1,,,,,,,o
255,36,Presentation,5,00773960620fa_sunafvsxtzaizojicxx.jpg,00922960627fa_sunapqkyghktgtosuuk.jpg,00773960620fa.jpg,sunafvsxtzaizojicxx.jpg,00922960627fa.jpg,sunapqkyghktgtosuuk.jpg,,,<,Place,,,,,1,,,,,,,x
256,36,Presentation,5,00581940928fa_sunacvzhvcksnwqcqbw.jpg,00895960530fa_sunamczizlzavhzhpay.jpg,00581940928fa.jpg,sunacvzhvcksnwqcqbw.jpg,00895960530fa.jpg,sunamczizlzavhzhpay.jpg,,,<,Place,,,,,1,,,,,,,o
257,36,Presentation,5,00869940307fa_sunajoveqhiprwqgoco.jpg,00090931230fa_sunaahedjlmtqekgyvj.jpg,00869940307fa.jpg,sunajoveqhiprwqgoco.jpg,00090931230fa.jpg,sunaahedjlmtqekgyvj.jpg,,,<,Place,,,,,0,,,,,,,x
258,36,Presentation,5,00906960530fa_sunantryfbloeaomfta.jpg,00838940307fa_sunaiozxhxgtfrmoagh.jpg,00906960530fa.jpg,sunantryfbloeaomfta.jpg,00838940307fa.jpg,sunaiozxhxgtfrmoagh.jpg,,,<,Place,,,,,0,,,,,,,o
259,36,Presentation,5,00760960620fa_sunaffstbkappprzxnv.jpg,00142931230fb_sunaapxkpvrhpjplsok.jpg,00760960620fa.jpg,sunaffstbkappprzxnv.jpg,00142931230fb.jpg,sunaapxkpvrhpjplsok.jpg,,,<,Place,,,,,1,,,,,,,x
260,36,Memory,5,,,,,,,00909960530.jpg,,,,,,,,,,,,,,,
261,36,Memory,5,,,,,,,00938960627fa.jpg,,,,,,,,,,,,,,,
262,36,Memory,5,,,,,,,sunaqsolmfydodnakub.jpg,,,,,,,,,,,,,,,
263,36,Memory,5,,,,,,,00869940307fa.jpg,,,,,,,,,,,,,,,
264,36,Memory,5,,,,,,,sunbesrwkdsffeogeqq.jpg,,,,,,,,,,,,,,,
265,36,Memory,5,,,,,,,sunabbafjowbzcvbucc.jpg,,,,,,,,,,,,,,,
266,36,Memory,5,,,,,,,sunajoveqhiprwqgoco.jpg,,,,,,,,,,,,,,,
267,36,Memory,5,,,,,,,00095931230fa.jpg,,,,,,,,,,,,,,,
268,36,Memory,5,,,,,,,00123931230fb.jpg,,,,,,,,,,,,,,,
269,36,Memory,5,,,,,,,sunaiozxhxgtfrmoagh.jpg,,,,,,,,,,,,,,,
270,36,Memory,5,,,,,,,00116931230fa.jpg,,,,,,,,,,,,,,,
271,36,Memory,5,,,,,,,sunaapxkpvrhpjplsok.jpg,,,,,,,,,,,,,,,
272,36,Memory,5,,,,,,,sunaenwuebvlpdmntju.jpg,,,,,,,,,,,,,,,
273,36,Memory,5,,,,,,,sunantryfbloeaomfta.jpg,,,,,,,,,,,,,,,
274,36,Memory,5,,,,,,,sunaakqepfoeqomfgxf.jpg,,,,,,,,,,,,,,,
275,36,Memory,5,,,,,,,00132931230fb.jpg,,,,,,,,,,,,,,,
276,36,Memory,5,,,,,,,sunaawsdjisukbbginm.jpg,,,,,,,,,,,,,,,
277,36,Memory,5,,,,,,,sunaffstbkappprzxnv.jpg,,,,,,,,,,,,,,,
278,36,Memory,5,,,,,,,sunaahzooisqkwlxwoz.jpg,,,,,,,,,,,,,,,
279,36,Memory,5,,,,,,,sunaqyylsngywqzwfmx.jpg,,,,,,,,,,,,,,,
280,36,Memory,5,,,,,,,00906960530fa.jpg,,,,,,,,,,,,,,,
281,36,Memory,5,,,,,,,sunaobtizabegtwfwul.jpg,,,,,,,,,,,,,,,
282,36,Memory,5,,,,,,,00760960620fa.jpg,,,,,,,,,,,,,,,
283,36,Memory,5,,,,,,,00142931230fb.jpg,,,,,,,,,,,,,,,
284,36,Memory,5,,,,,,,00742941201fa.jpg,,,,,,,,,,,,,,,
285,36,Memory,5,,,,,,,sunabctlikybqabezjv.jpg,,,,,,,,,,,,,,,
286,36,Memory,5,,,,,,,sunagrmyoovzukhxmlo.jpg,,,,,,,,,,,,,,,
287,36,Memory,5,,,,,,,00937960627fa.jpg,,,,,,,,,,,,,,,
288,36,Memory,5,,,,,,,00922960627fa.jpg,,,,,,,,,,,,,,,
289,36,Memory,5,,,,,,,00214940128fa.jpg,,,,,,,,,,,,,,,
290,36,Memory,5,,,,,,,00838940307fa.jpg,,,,,,,,,,,,,,,
291,36,Memory,5,,,,,,,sunaeomlfaabhpswasy.jpg,,,,,,,,,,,,,,,
292,36,Memory,5,,,,,,,00744941201fa.jpg,,,,,,,,,,,,,,,
293,36,Memory,5,,,,,,,00982960627fa.jpg,,,,,,,,,,,,,,,
294,36,Memory,5,,,,,,,sunaanjcbzdvtvblsdy.jpg,,,,,,,,,,,,,,,
295,36,Memory,5,,,,,,,00191940128fb.jpg,,,,,,,,,,,,,,,
296,36,Memory,5,,,,,,,sunaalcrrdbjgdztbiz.jpg,,,,,,,,,,,,,,,
297,36,Memory,5,,,,,,,sunapqkyghktgtosuuk.jpg,,,,,,,,,,,,,,,
298,36,Memory,5,,,,,,,00791941205fa.jpg,,,,,,,,,,,,,,,
299,36,Memory,5,,,,,,,00239940128fa.jpg,,,,,,,,,,,,,,,
300,36,Presentation,6,00811960530fa_sunahedfrhtcwpneund.jpg,00903960620fa_sunanainkqdvktzoxyl.jpg,00811960530fa.jpg,sunahedfrhtcwpneund.jpg,00903960620fa.jpg,sunanainkqdvktzoxyl.jpg,,,>,Face,,,,,1,,,,,,,x
301,36,Presentation,6,00129931230fb_sunaamsdyakblkfoydx.jpg,00774941201fa_sunafvtpfczkzopbgue.jpg,00129931230fb.jpg,sunaamsdyakblkfoydx.jpg,00774941201fa.jpg,sunafvtpfczkzopbgue.jpg,,,>,Face,,,,,1,,,,,,,o
302,36,Presentation,6,00926960627Fa_sunapqwoeotxshkukbh.jpg,00925960627fa_sunapqwnqzxlsfvgsjm.jpg,00926960627Fa.jpg,sunapqwoeotxshkukbh.jpg,00925960627fa.jpg,sunapqwnqzxlsfvgsjm.jpg,,,>,Face,,,,,1,,,,,,,x
303,36,Presentation,6,00131931230fb_sunaangbuylfvckqqoo.jpg,00836940307fa_sunainqelldeebvxtcz.jpg,00131931230fb.jpg,sunaangbuylfvckqqoo.jpg,00836940307fa.jpg,sunainqelldeebvxtcz.jpg,,,>,Face,,,,,1,,,,,,,o
304,36,Presentation,6,00919960620fa_sunapmfmzadmosuogaz.jpg,00986960627fa_sunbgzjryivyczuvkvm.jpg,00919960620fa.jpg,sunapmfmzadmosuogaz.jpg,00986960627fa.jpg,sunbgzjryivyczuvkvm.jpg,,,>,Face,,,,,1,,,,,,,o
305,36,Presentation,6,00163931230fb_sunaavodbcpygkggnfp.jpg,00574940928fa_sunacvbrcejzwmcgnoq.jpg,00163931230fb.jpg,sunaavodbcpygkggnfp.jpg,00574940928fa.jpg,sunacvbrcejzwmcgnoq.jpg,,,>,Face,,,,,1,,,,,,,x
306,36,Presentation,6,00913960530fa_sunaooffzffbhcpirmm.jpg,01000960627fa_sunbvzmgrdvaakxusbu.jpg,00913960530fa.jpg,sunaooffzffbhcpirmm.jpg,01000960627fa.jpg,sunbvzmgrdvaakxusbu.jpg,,,>,Face,,,,,1,,,,,,,x
307,36,Presentation,6,00109931230fa_sunaajuzribjrizdshh.jpg,00108960530fa_sunaajtnvzzpsjdzres.jpg,00109931230fa.jpg,sunaajuzribjrizdshh.jpg,00108960530fa.jpg,sunaajtnvzzpsjdzres.jpg,,,>,Face,,,,,1,,,,,,,x
308,36,Presentation,6,00770941201fa_sunaflojskatpeqyzqp.jpg,00636941031fa_sunaddtdkycxbqlpfqa.jpg,00770941201fa.jpg,sunaflojskatpeqyzqp.jpg,00636941031fa.jpg,sunaddtdkycxbqlpfqa.jpg,,,>,Face,,,,,1,,,,,,,o
309,36,Presentation,6,00280940422fb_sunabohxbskznglnrhv.jpg,00894960620fa_sunalqmfgeadpqsyzpd.jpg,00280940422fb.jpg,sunabohxbskznglnrhv.jpg,00894960620fa.jpg,sunalqmfgeadpqsyzpd.jpg,,,>,Face,,,,,1,,,,,,,x
310,36,Memory,6,,,,,,,sunaavtbadenwnzeutj.jpg,,,,,,,,,,,,,,,
311,36,Memory,6,,,,,,,00894960620fa.jpg,,,,,,,,,,,,,,,
312,36,Memory,6,,,,,,,00816941205fa.jpg,,,,,,,,,,,,,,,
313,36,Memory,6,,,,,,,00131931230fb.jpg,,,,,,,,,,,,,,,
314,36,Memory,6,,,,,,,sunacvbrcejzwmcgnoq.jpg,,,,,,,,,,,,,,,
315,36,Memory,6,,,,,,,00799941205fa.jpg,,,,,,,,,,,,,,,
316,36,Memory,6,,,,,,,00926960627Fa.jpg,,,,,,,,,,,,,,,
317,36,Memory,6,,,,,,,00163931230fb.jpg,,,,,,,,,,,,,,,
318,36,Memory,6,,,,,,,00811960530fa.jpg,,,,,,,,,,,,,,,
319,36,Memory,6,,,,,,,sunajtrfunvzdfticna.jpg,,,,,,,,,,,,,,,
320,36,Memory,6,,,,,,,00184940128fa.jpg,,,,,,,,,,,,,,,
321,36,Memory,6,,,,,,,sunagoufulkpsxrmklt.jpg,,,,,,,,,,,,,,,
322,36,Memory,6,,,,,,,00129931230fb.jpg,,,,,,,,,,,,,,,
323,36,Memory,6,,,,,,,00986960627fa.jpg,,,,,,,,,,,,,,,
324,36,Memory,6,,,,,,,00874940307fa.jpg,,,,,,,,,,,,,,,
325,36,Memory,6,,,,,,,sunbgzjryivyczuvkvm.jpg,,,,,,,,,,,,,,,
326,36,Memory,6,,,,,,,sunabtlfmiwtljmoues.jpg,,,,,,,,,,,,,,,
327,36,Memory,6,,,,,,,sunaangbuylfvckqqoo.jpg,,,,,,,,,,,,,,,
328,36,Memory,6,,,,,,,sunaavodbcpygkggnfp.jpg,,,,,,,,,,,,,,,
329,36,Memory,6,,,,,,,sunahedfrhtcwpneund.jpg,,,,,,,,,,,,,,,
330,36,Memory,6,,,,,,,sunapqwnqzxlsfvgsjm.jpg,,,,,,,,,,,,,,,
331,36,Memory,6,,,,,,,sunabrjdpmoedcdjbpo.jpg,,,,,,,,,,,,,,,
332,36,Memory,6,,,,,,,sunalqmfgeadpqsyzpd.jpg,,,,,,,,,,,,,,,
333,36,Memory,6,,,,,,,sunabeyhmxodahoieyk.jpg,,,,,,,,,,,,,,,
334,36,Memory,6,,,,,,,00292940422fb.jpg,,,,,,,,,,,,,,,
335,36,Memory,6,,,,,,,00989960627fa.jpg,,,,,,,,,,,,,,,
336,36,Memory,6,,,,,,,sunagutjvdvnhxejerz.jpg,,,,,,,,,,,,,,,
337,36,Memory,6,,,,,,,00245940128fa.jpg,,,,,,,,,,,,,,,
338,36,Memory,6,,,,,,,sunaamsdyakblkfoydx.jpg,,,,,,,,,,,,,,,
339,36,Memory,6,,,,,,,sunapqwoeotxshkukbh.jpg,,,,,,,,,,,,,,,
340,36,Memory,6,,,,,,,00925960627fa.jpg,,,,,,,,,,,,,,,
341,36,Memory,6,,,,,,,sunaddtdkycxbqlpfqa.jpg,,,,,,,,,,,,,,,
342,36,Memory,6,,,,,,,sunbondbduabvijnmch.jpg,,,,,,,,,,,,,,,
343,36,Memory,6,,,,,,,00787960620fa.jpg,,,,,,,,,,,,,,,
344,36,Memory,6,,,,,,,00302940422fa.jpg,,,,,,,,,,,,,,,
345,36,Memory,6,,,,,,,sunahmhrncocyhsjpxk.jpg,,,,,,,,,,,,,,,
346,36,Memory,6,,,,,,,00574940928fa.jpg,,,,,,,,,,,,,,,
347,36,Memory,6,,,,,,,00983960627fa.jpg,,,,,,,,,,,,,,,
348,36,Memory,6,,,,,,,00636941031fa.jpg,,,,,,,,,,,,,,,
349,36,Memory,6,,,,,,,sunbfyvfqiimvdaxlqn.jpg,,,,,,,,,,,,,,,
350,36,Presentation,7,00902960530fa_sunanaacmmosxrfwmvl.jpg,00080931230fb_sunaafjszryxyavjzln.jpg,00902960530fa.jpg,sunanaacmmosxrfwmvl.jpg,00080931230fb.jpg,sunaafjszryxyavjzln.jpg,,,<,Face,,,,,1,,,,,,,o
351,36,Presentation,7,00185940422fb_sunaawqdbpihmlbwyyn.jpg,00138931230fa_sunaapfaivxqoynnwwp.jpg,00185940422fb.jpg,sunaawqdbpihmlbwyyn.jpg,00138931230fa.jpg,sunaapfaivxqoynnwwp.jpg,,,<,Face,,,,,0,,,,,,,x
352,36,Presentation,7,00984960627fa_sunbfzchmomnvzhbxdg.jpg,00505960627fa_sunabzuqsrgcsonqlkz.jpg,00984960627fa.jpg,sunbfzchmomnvzhbxdg.jpg,00505960627fa.jpg,sunabzuqsrgcsonqlkz.jpg,,,<,Face,,,,,1,,,,,,,o
353,36,Presentation,7,00313940422fa_sunabwjvmoaddlyxfjr.jpg,00670941121fa_sunadochqcucscehsgk.jpg,00313940422fa.jpg,sunabwjvmoaddlyxfjr.jpg,00670941121fa.jpg,sunadochqcucscehsgk.jpg,,,<,Face,,,,,1,,,,,,,x
354,36,Presentation,7,00529940519fa_sunacbeefkxpymwevpk.jpg,00265940128fb_sunabkmdplkdbvxriff.jpg,00529940519fa.jpg,sunacbeefkxpymwevpk.jpg,00265940128fb.jpg,sunabkmdplkdbvxriff.jpg,,,<,Face,,,,,1,,,,,,,x
355,36,Presentation,7,00908960530fa_sunanwjjyqqwzqrqagd.jpg,00719960620fa_sunadzuvtmtmgupotmf.jpg,00908960530fa.jpg,sunanwjjyqqwzqrqagd.jpg,00719960620fa.jpg,sunadzuvtmtmgupotmf.jpg,,,<,Face,,,,,1,,,,,,,o
356,36,Presentation,7,00092931230fa_sunaaheqzstzxuadglu.jpg,00208940128fa_sunaazzyhbvqjpmazjq.jpg,00092931230fa.jpg,sunaaheqzstzxuadglu.jpg,00208940128fa.jpg,sunaazzyhbvqjpmazjq.jpg,,,<,Face,,,,,1,,,,,,,x
357,36,Presentation,7,00751960620fa_sunaezuszgtxnmsxdbk.jpg,00676941121fa_sunadpnqovzckyikrjo.jpg,00751960620fa.jpg,sunaezuszgtxnmsxdbk.jpg,00676941121fa.jpg,sunadpnqovzckyikrjo.jpg,,,<,Face,,,,,1,,,,,,,x
358,36,Presentation,7,00705941205fa_sunadtlxenqqxsyjvix.jpg,00635941031fa_sunaddsaeicthrfbkhe.jpg,00705941205fa.jpg,sunadtlxenqqxsyjvix.jpg,00635941031fa.jpg,sunaddsaeicthrfbkhe.jpg,,,<,Face,,,,,1,,,,,,,o
359,36,Presentation,7,00119931230fb_sunaakvmbftkrgqhjun.jpg,00753941201fa_sunafcofuuzebuadceo.jpg,00119931230fb.jpg,sunaakvmbftkrgqhjun.jpg,00753941201fa.jpg,sunafcofuuzebuadceo.jpg,,,<,Face,,,,,1,,,,,,,o
360,36,Memory,7,,,,,,,00984960627fa.jpg,,,,,,,,,,,,,,,
361,36,Memory,7,,,,,,,sunaaheqzstzxuadglu.jpg,,,,,,,,,,,,,,,
362,36,Memory,7,,,,,,,00908960530fa.jpg,,,,,,,,,,,,,,,
363,36,Memory,7,,,,,,,sunagjeesomrwjsfqie.jpg,,,,,,,,,,,,,,,
364,36,Memory,7,,,,,,,sunabkmdplkdbvxriff.jpg,,,,,,,,,,,,,,,
365,36,Memory,7,,,,,,,sunafvwfsmqkjrutjta.jpg,,,,,,,,,,,,,,,
366,36,Memory,7,,,,,,,00943960627fa.jpg,,,,,,,,,,,,,,,
367,36,Memory,7,,,,,,,00185940422fb.jpg,,,,,,,,,,,,,,,
368,36,Memory,7,,,,,,,00529940519fa.jpg,,,,,,,,,,,,,,,
369,36,Memory,7,,,,,,,sunadochqcucscehsgk.jpg,,,,,,,,,,,,,,,
370,36,Memory,7,,,,,,,sunanwjjyqqwzqrqagd.jpg,,,,,,,,,,,,,,,
371,36,Memory,7,,,,,,,sunarpsxqkduedrrzyi.jpg,,,,,,,,,,,,,,,
372,36,Memory,7,,,,,,,00815941205fa.jpg,,,,,,,,,,,,,,,
373,36,Memory,7,,,,,,,00070940307fa.jpg,,,,,,,,,,,,,,,
374,36,Memory,7,,,,,,,00098931230fa.jpg,,,,,,,,,,,,,,,
375,36,Memory,7,,,,,,,sunabzjxlmkwnwzimua.jpg,,,,,,,,,,,,,,,
376,36,Memory,7,,,,,,,sunbfzchmomnvzhbxdg.jpg,,,,,,,,,,,,,,,
377,36,Memory,7,,,,,,,00670941121fa.jpg,,,,,,,,,,,,,,,
378,36,Memory,7,,,,,,,00498960627fa.jpg,,,,,,,,,,,,,,,
379,36,Memory,7,,,,,,,sunaizeyhvjzknwjudw.jpg,,,,,,,,,,,,,,,
380,36,Memory,7,,,,,,,sunadzuvtmtmgupotmf.jpg,,,,,,,,,,,,,,,
381,36,Memory,7,,,,,,,00635941031fa.jpg,,,,,,,,,,,,,,,
382,36,Memory,7,,,,,,,00505960627fa.jpg,,,,,,,,,,,,,,,
383,36,Memory,7,,,,,,,00783941205fa.jpg,,,,,,,,,,,,,,,
384,36,Memory,7,,,,,,,00775941205fa.jpg,,,,,,,,,,,,,,,
385,36,Memory,7,,,,,,,sunbwtlihsuptkrckid.jpg,,,,,,,,,,,,,,,
386,36,Memory,7,,,,,,,00265940128fb.jpg,,,,,,,,,,,,,,,
387,36,Memory,7,,,,,,,sunaajpqmulidejvjsr.jpg,,,,,,,,,,,,,,,
388,36,Memory,7,,,,,,,sunabasphceswhwwqvv.jpg,,,,,,,,,,,,,,,
389,36,Memory,7,,,,,,,sunahiphsekjihkafsl.jpg,,,,,,,,,,,,,,,
390,36,Memory,7,,,,,,,sunabzuqsrgcsonqlkz.jpg,,,,,,,,,,,,,,,
391,36,Memory,7,,,,,,,01004960627fa.jpg,,,,,,,,,,,,,,,
392,36,Memory,7,,,,,,,00092931230fa.jpg,,,,,,,,,,,,,,,
393,36,Memory,7,,,,,,,00719960620fa.jpg,,,,,,,,,,,,,,,
394,36,Memory,7,,,,,,,sunaawqdbpihmlbwyyn.jpg,,,,,,,,,,,,,,,
395,36,Memory,7,,,,,,,sunaddsaeicthrfbkhe.jpg,,,,,,,,,,,,,,,
396,36,Memory,7,,,,,,,sunacbeefkxpymwevpk.jpg,,,,,,,,,,,,,,,
397,36,Memory,7,,,,,,,00860940307fa.jpg,,,,,,,,,,,,,,,
398,36,Memory,7,,,,,,,00211940128fa.jpg,,,,,,,,,,,,,,,
399,36,Memory,7,,,,,,,sunaaeplwsfslcbtojr.jpg,,,,,,,,,,,,,,,
