,Subject,Trial Type,Run,Cued Composite,Uncued Composite,Cued Face,Cued Place,Uncued Face,Uncued Place,Memory Image,Category,Cued Side,Cued Category,Attention Reaction Time (s),Familiarity Reaction Time (s),Familiarity Rating,Attention Level,Cue Validity,Post Invalid Cue,Pre Invalid Cue,Attention Button,Rating History,Stimulus Onset,Stimulus End,Attention Probe
0,22,Presentation,0,00071941031fa_sunaaexqbtdswxrqjvz.jpg,00909960530_sunaobtizabegtwfwul.jpg,00071941031fa.jpg,sunaaexqbtdswxrqjvz.jpg,00909960530.jpg,sunaobtizabegtwfwul.jpg,,,>,Place,,,,,1,,,,,,,x
1,22,Presentation,0,00108960530fa_sunaajtnvzzpsjdzres.jpg,00093931230fa_sunaahwnmtqsrhocysw.jpg,00108960530fa.jpg,sunaajtnvzzpsjdzres.jpg,00093931230fa.jpg,sunaahwnmtqsrhocysw.jpg,,,>,Place,,,,,1,,,,,,,x
2,22,Presentation,0,00943960627fa_sunarpsxqkduedrrzyi.jpg,00193940928fa_sunaaxjpzcnxligjtjq.jpg,00943960627fa.jpg,sunarpsxqkduedrrzyi.jpg,00193940928fa.jpg,sunaaxjpzcnxligjtjq.jpg,,,>,Place,,,,,1,,,,,,,o
3,22,Presentation,0,00719941201fa_sunadvithllcgmfxsrn.jpg,00095931230fa_sunaahzooisqkwlxwoz.jpg,00719941201fa.jpg,sunadvithllcgmfxsrn.jpg,00095931230fa.jpg,sunaahzooisqkwlxwoz.jpg,,,>,Place,,,,,1,,,,,,,o
4,22,Presentation,0,00987960627fa_sunbloeoiozwjjsiamp.jpg,00144931230fb_sunaathajvxrgptwhoj.jpg,00987960627fa.jpg,sunbloeoiozwjjsiamp.jpg,00144931230fb.jpg,sunaathajvxrgptwhoj.jpg,,,>,Place,,,,,1,,,,,,,o
5,22,Presentation,0,00911960530fa_sunaooaqzputrowwbsw.jpg,00772941201fa_sunafpfpiiujzoesnqg.jpg,00911960530fa.jpg,sunaooaqzputrowwbsw.jpg,00772941201fa.jpg,sunafpfpiiujzoesnqg.jpg,,,>,Place,,,,,1,,,,,,,x
6,22,Presentation,0,00838940307fa_sunaiozxhxgtfrmoagh.jpg,00080931230fb_sunaafjszryxyavjzln.jpg,00838940307fa.jpg,sunaiozxhxgtfrmoagh.jpg,00080931230fb.jpg,sunaafjszryxyavjzln.jpg,,,>,Place,,,,,1,,,,,,,x
7,22,Presentation,0,00700941121fa_sunadsgmtznewzyasnk.jpg,00967960627fa_sunbaejotfklekvpxcz.jpg,00700941121fa.jpg,sunadsgmtznewzyasnk.jpg,00967960627fa.jpg,sunbaejotfklekvpxcz.jpg,,,>,Place,,,,,1,,,,,,,x
8,22,Presentation,0,00676941121fa_sunadpnqovzckyikrjo.jpg,00868960307fa_sunajjxttslobudoqbv.jpg,00676941121fa.jpg,sunadpnqovzckyikrjo.jpg,00868960307fa.jpg,sunajjxttslobudoqbv.jpg,,,>,Place,,,,,1,,,,,,,x
9,22,Presentation,0,00554940519fa_sunacfdkbsrughwqwtt.jpg,00790941205fa_sunagpjzsbltchlwvou.jpg,00554940519fa.jpg,sunacfdkbsrughwqwtt.jpg,00790941205fa.jpg,sunagpjzsbltchlwvou.jpg,,,>,Place,,,,,1,,,,,,,o
10,22,Memory,0,,,,,,,00700941121fa.jpg,,,,,,,,,,,,,,,
11,22,Memory,0,,,,,,,sunaooaqzputrowwbsw.jpg,,,,,,,,,,,,,,,
12,22,Memory,0,,,,,,,00750941201fa.jpg,,,,,,,,,,,,,,,
13,22,Memory,0,,,,,,,sunbagfpovqwbuexqdn.jpg,,,,,,,,,,,,,,,
14,22,Memory,0,,,,,,,00108960530fa.jpg,,,,,,,,,,,,,,,
15,22,Memory,0,,,,,,,sunadsgmtznewzyasnk.jpg,,,,,,,,,,,,,,,
16,22,Memory,0,,,,,,,00943960627fa.jpg,,,,,,,,,,,,,,,
17,22,Memory,0,,,,,,,00911960530fa.jpg,,,,,,,,,,,,,,,
18,22,Memory,0,,,,,,,sunaccdtpgenvcbcbcf.jpg,,,,,,,,,,,,,,,
19,22,Memory,0,,,,,,,sunaffstbkappprzxnv.jpg,,,,,,,,,,,,,,,
20,22,Memory,0,,,,,,,00095931230fa.jpg,,,,,,,,,,,,,,,
21,22,Memory,0,,,,,,,sunaauhozyxzeeqstxi.jpg,,,,,,,,,,,,,,,
22,22,Memory,0,,,,,,,sunarpsxqkduedrrzyi.jpg,,,,,,,,,,,,,,,
23,22,Memory,0,,,,,,,00909960530.jpg,,,,,,,,,,,,,,,
24,22,Memory,0,,,,,,,sunagpjzsbltchlwvou.jpg,,,,,,,,,,,,,,,
25,22,Memory,0,,,,,,,00532960627fa.jpg,,,,,,,,,,,,,,,
26,22,Memory,0,,,,,,,00554940519fa.jpg,,,,,,,,,,,,,,,
27,22,Memory,0,,,,,,,sunaeuzwggvibufclwf.jpg,,,,,,,,,,,,,,,
28,22,Memory,0,,,,,,,00968960627fa.jpg,,,,,,,,,,,,,,,
29,22,Memory,0,,,,,,,00996960627fa.jpg,,,,,,,,,,,,,,,
30,22,Memory,0,,,,,,,sunaamsdyakblkfoydx.jpg,,,,,,,,,,,,,,,
31,22,Memory,0,,,,,,,sunafpfpiiujzoesnqg.jpg,,,,,,,,,,,,,,,
32,22,Memory,0,,,,,,,sunaejnvnpltdmhbcsi.jpg,,,,,,,,,,,,,,,
33,22,Memory,0,,,,,,,00296940422fa.jpg,,,,,,,,,,,,,,,
34,22,Memory,0,,,,,,,00093931230fa.jpg,,,,,,,,,,,,,,,
35,22,Memory,0,,,,,,,sunaajtnvzzpsjdzres.jpg,,,,,,,,,,,,,,,
36,22,Memory,0,,,,,,,00129931230fb.jpg,,,,,,,,,,,,,,,
37,22,Memory,0,,,,,,,sunabrwnslxalcohfre.jpg,,,,,,,,,,,,,,,
38,22,Memory,0,,,,,,,00772941201fa.jpg,,,,,,,,,,,,,,,
39,22,Memory,0,,,,,,,sunajawzbrlrwafowen.jpg,,,,,,,,,,,,,,,
40,22,Memory,0,,,,,,,sunbpvgllfdejxcpjqp.jpg,,,,,,,,,,,,,,,
41,22,Memory,0,,,,,,,sunaahzooisqkwlxwoz.jpg,,,,,,,,,,,,,,,
42,22,Memory,0,,,,,,,00728941205fa.jpg,,,,,,,,,,,,,,,
43,22,Memory,0,,,,,,,sunaobtizabegtwfwul.jpg,,,,,,,,,,,,,,,
44,22,Memory,0,,,,,,,00864940307fa.jpg,,,,,,,,,,,,,,,
45,22,Memory,0,,,,,,,00153931230fa.jpg,,,,,,,,,,,,,,,
46,22,Memory,0,,,,,,,sunaahwnmtqsrhocysw.jpg,,,,,,,,,,,,,,,
47,22,Memory,0,,,,,,,sunacfdkbsrughwqwtt.jpg,,,,,,,,,,,,,,,
48,22,Memory,0,,,,,,,00790941205fa.jpg,,,,,,,,,,,,,,,
49,22,Memory,0,,,,,,,00760960620fa.jpg,,,,,,,,,,,,,,,
50,22,Presentation,1,01004960627fa_sunbwtlihsuptkrckid.jpg,00280940422fb_sunabohxbskznglnrhv.jpg,01004960627fa.jpg,sunbwtlihsuptkrckid.jpg,00280940422fb.jpg,sunabohxbskznglnrhv.jpg,,,<,Place,,,,,0,,,,,,,x
51,22,Presentation,1,00803941205fa_sunagvxkjokqimstxpe.jpg,00815941205fa_sunahiphsekjihkafsl.jpg,00803941205fa.jpg,sunagvxkjokqimstxpe.jpg,00815941205fa.jpg,sunahiphsekjihkafsl.jpg,,,<,Place,,,,,1,,,,,,,o
52,22,Presentation,1,00877960530fa_sunajxpkuhbizeveguy.jpg,00763941205fa_sunafhmnhsdurlvddpw.jpg,00877960530fa.jpg,sunajxpkuhbizeveguy.jpg,00763941205fa.jpg,sunafhmnhsdurlvddpw.jpg,,,<,Place,,,,,1,,,,,,,x
53,22,Presentation,1,00746941201fa_sunaetydippjxikifsb.jpg,00812941205fa_sunahgtbwgsmtqeodwh.jpg,00746941201fa.jpg,sunaetydippjxikifsb.jpg,00812941205fa.jpg,sunahgtbwgsmtqeodwh.jpg,,,<,Place,,,,,1,,,,,,,x
54,22,Presentation,1,00839940307fa_sunaipyohrqlwngaqif.jpg,00786941205fa_sunagmhildamktmqjss.jpg,00839940307fa.jpg,sunaipyohrqlwngaqif.jpg,00786941205fa.jpg,sunagmhildamktmqjss.jpg,,,<,Place,,,,,1,,,,,,,x
55,22,Presentation,1,00800941205fb_sunagvjurcwdbixvnyi.jpg,00271940422fa_sunabmbnddafmywtjjj.jpg,00800941205fb.jpg,sunagvjurcwdbixvnyi.jpg,00271940422fa.jpg,sunabmbnddafmywtjjj.jpg,,,<,Place,,,,,1,,,,,,,o
56,22,Presentation,1,00977960627fa_sunbbxkanhzjgbwyxqs.jpg,00848940307fa_sunaivdylrawbmhryfp.jpg,00977960627fa.jpg,sunbbxkanhzjgbwyxqs.jpg,00848940307fa.jpg,sunaivdylrawbmhryfp.jpg,,,<,Place,,,,,1,,,,,,,o
57,22,Presentation,1,00131931230fb_sunaangbuylfvckqqoo.jpg,00892960530fa_sunalntxqqadigcletd.jpg,00131931230fb.jpg,sunaangbuylfvckqqoo.jpg,00892960530fa.jpg,sunalntxqqadigcletd.jpg,,,<,Place,,,,,1,,,,,,,x
58,22,Presentation,1,00816941205fa_sunahmhrncocyhsjpxk.jpg,01011960627fa_sundahdxwmcdluscvot.jpg,00816941205fa.jpg,sunahmhrncocyhsjpxk.jpg,01011960627fa.jpg,sundahdxwmcdluscvot.jpg,,,<,Place,,,,,1,,,,,,,o
59,22,Presentation,1,00730960620fa_sunaekgzpfilgjxpeyq.jpg,00876960620fa_sunajwqkfsykceonyig.jpg,00730960620fa.jpg,sunaekgzpfilgjxpeyq.jpg,00876960620fa.jpg,sunajwqkfsykceonyig.jpg,,,<,Place,,,,,0,,,,,,,x
60,22,Memory,1,,,,,,,sunahiphsekjihkafsl.jpg,,,,,,,,,,,,,,,
61,22,Memory,1,,,,,,,00877960530fa.jpg,,,,,,,,,,,,,,,
62,22,Memory,1,,,,,,,00870940307fa.jpg,,,,,,,,,,,,,,,
63,22,Memory,1,,,,,,,sunahgtbwgsmtqeodwh.jpg,,,,,,,,,,,,,,,
64,22,Memory,1,,,,,,,00977960627fa.jpg,,,,,,,,,,,,,,,
65,22,Memory,1,,,,,,,sunadochqcucscehsgk.jpg,,,,,,,,,,,,,,,
66,22,Memory,1,,,,,,,00670941121fa.jpg,,,,,,,,,,,,,,,
67,22,Memory,1,,,,,,,00705941205fa.jpg,,,,,,,,,,,,,,,
68,22,Memory,1,,,,,,,sunaekgzpfilgjxpeyq.jpg,,,,,,,,,,,,,,,
69,22,Memory,1,,,,,,,sunajrgtewnualfcerj.jpg,,,,,,,,,,,,,,,
70,22,Memory,1,,,,,,,sunaangbuylfvckqqoo.jpg,,,,,,,,,,,,,,,
71,22,Memory,1,,,,,,,00822940307fa.jpg,,,,,,,,,,,,,,,
72,22,Memory,1,,,,,,,sunbbxkanhzjgbwyxqs.jpg,,,,,,,,,,,,,,,
73,22,Memory,1,,,,,,,sunaaeplwsfslcbtojr.jpg,,,,,,,,,,,,,,,
74,22,Memory,1,,,,,,,sunaletopenvvozhpxc.jpg,,,,,,,,,,,,,,,
75,22,Memory,1,,,,,,,sunagmhildamktmqjss.jpg,,,,,,,,,,,,,,,
76,22,Memory,1,,,,,,,00127931230fa.jpg,,,,,,,,,,,,,,,
77,22,Memory,1,,,,,,,sunasrjlmglmjzbmqxb.jpg,,,,,,,,,,,,,,,
78,22,Memory,1,,,,,,,00786941205fa.jpg,,,,,,,,,,,,,,,
79,22,Memory,1,,,,,,,00498960627fa.jpg,,,,,,,,,,,,,,,
80,22,Memory,1,,,,,,,sunahqrxievfeusiqlt.jpg,,,,,,,,,,,,,,,
81,22,Memory,1,,,,,,,sunaaexpnawiehinlpy.jpg,,,,,,,,,,,,,,,
82,22,Memory,1,,,,,,,00280940422fb.jpg,,,,,,,,,,,,,,,
83,22,Memory,1,,,,,,,00730960620fa.jpg,,,,,,,,,,,,,,,
84,22,Memory,1,,,,,,,sunagvxkjokqimstxpe.jpg,,,,,,,,,,,,,,,
85,22,Memory,1,,,,,,,sunalntxqqadigcletd.jpg,,,,,,,,,,,,,,,
86,22,Memory,1,,,,,,,00892960530fa.jpg,,,,,,,,,,,,,,,
87,22,Memory,1,,,,,,,00815941205fa.jpg,,,,,,,,,,,,,,,
88,22,Memory,1,,,,,,,00812941205fa.jpg,,,,,,,,,,,,,,,
89,22,Memory,1,,,,,,,00950960627fa.jpg,,,,,,,,,,,,,,,
90,22,Memory,1,,,,,,,sunajxpkuhbizeveguy.jpg,,,,,,,,,,,,,,,
91,22,Memory,1,,,,,,,00131931230fb.jpg,,,,,,,,,,,,,,,
92,22,Memory,1,,,,,,,sunabzjxlmkwnwzimua.jpg,,,,,,,,,,,,,,,
93,22,Memory,1,,,,,,,sunaampvucecsfbdafn.jpg,,,,,,,,,,,,,,,
94,22,Memory,1,,,,,,,sunabohxbskznglnrhv.jpg,,,,,,,,,,,,,,,
95,22,Memory,1,,,,,,,00803941205fa.jpg,,,,,,,,,,,,,,,
96,22,Memory,1,,,,,,,sunadtlxenqqxsyjvix.jpg,,,,,,,,,,,,,,,
97,22,Memory,1,,,,,,,00889960530fa.jpg,,,,,,,,,,,,,,,
98,22,Memory,1,,,,,,,00071940128fa.jpg,,,,,,,,,,,,,,,
99,22,Memory,1,,,,,,,00070940307fa.jpg,,,,,,,,,,,,,,,
100,22,Presentation,2,00742941201fa_sunaenwuebvlpdmntju.jpg,00818940307fa_sunahpblecxtmuzkmxb.jpg,00742941201fa.jpg,sunaenwuebvlpdmntju.jpg,00818940307fa.jpg,sunahpblecxtmuzkmxb.jpg,,,>,Face,,,,,1,,,,,,,o
101,22,Presentation,2,00598941031fa_sunacxtcahkymosigud.jpg,00543940519fa_sunacepzfrmtkiqonpy.jpg,00598941031fa.jpg,sunacxtcahkymosigud.jpg,00543940519fa.jpg,sunacepzfrmtkiqonpy.jpg,,,>,Face,,,,,1,,,,,,,x
102,22,Presentation,2,00130931230fa_sunaamvxnvouicstkjb.jpg,00970960627fa_sunbasypfgzjtomktmu.jpg,00130931230fa.jpg,sunaamvxnvouicstkjb.jpg,00970960627fa.jpg,sunbasypfgzjtomktmu.jpg,,,>,Face,,,,,1,,,,,,,o
103,22,Presentation,2,00479940519fa_sunabxsbfwjccqxxzxq.jpg,00745941205fa_sunaeouogqolxvggaoq.jpg,00479940519fa.jpg,sunabxsbfwjccqxxzxq.jpg,00745941205fa.jpg,sunaeouogqolxvggaoq.jpg,,,>,Face,,,,,1,,,,,,,o
104,22,Presentation,2,00791941205fa_sunagrmyoovzukhxmlo.jpg,00218940128fa_sunabbwggenhfbftyvi.jpg,00791941205fa.jpg,sunagrmyoovzukhxmlo.jpg,00218940128fa.jpg,sunabbwggenhfbftyvi.jpg,,,>,Face,,,,,1,,,,,,,x
105,22,Presentation,2,00921960627fa_sunapqkpqdfvxlbqwyo.jpg,00650941031fa_sunadikxpvqeabxrvvc.jpg,00921960627fa.jpg,sunapqkpqdfvxlbqwyo.jpg,00650941031fa.jpg,sunadikxpvqeabxrvvc.jpg,,,>,Face,,,,,1,,,,,,,x
106,22,Presentation,2,00955960627fb_sunauburywlkjszngcq.jpg,00481940519fa_sunabxsuqbleluwczoy.jpg,00955960627fb.jpg,sunauburywlkjszngcq.jpg,00481940519fa.jpg,sunabxsuqbleluwczoy.jpg,,,>,Face,,,,,1,,,,,,,x
107,22,Presentation,2,00880960530fa_sunakmnfgklupjijsgf.jpg,00751960620fa_sunaezuszgtxnmsxdbk.jpg,00880960530fa.jpg,sunakmnfgklupjijsgf.jpg,00751960620fa.jpg,sunaezuszgtxnmsxdbk.jpg,,,>,Face,,,,,1,,,,,,,x
108,22,Presentation,2,00942960627fa_sunarfdklgdnjgeqfjg.jpg,00126931230fb_sunaamdjwemxpmmtypi.jpg,00942960627fa.jpg,sunarfdklgdnjgeqfjg.jpg,00126931230fb.jpg,sunaamdjwemxpmmtypi.jpg,,,>,Face,,,,,1,,,,,,,o
109,22,Presentation,2,00082931230fa_sunaafvitpexrpvumsa.jpg,00063931230fa_sunaaelyvurpntclgau.jpg,00082931230fa.jpg,sunaafvitpexrpvumsa.jpg,00063931230fa.jpg,sunaaelyvurpntclgau.jpg,,,>,Face,,,,,1,,,,,,,x
110,22,Memory,2,,,,,,,00791941205fa.jpg,,,,,,,,,,,,,,,
111,22,Memory,2,,,,,,,00650941031fa.jpg,,,,,,,,,,,,,,,
112,22,Memory,2,,,,,,,sunbasypfgzjtomktmu.jpg,,,,,,,,,,,,,,,
113,22,Memory,2,,,,,,,00958960627fa.jpg,,,,,,,,,,,,,,,
114,22,Memory,2,,,,,,,00065931230fb.jpg,,,,,,,,,,,,,,,
115,22,Memory,2,,,,,,,sunaeouogqolxvggaoq.jpg,,,,,,,,,,,,,,,
116,22,Memory,2,,,,,,,sunagrmyoovzukhxmlo.jpg,,,,,,,,,,,,,,,
117,22,Memory,2,,,,,,,sunapqkpqdfvxlbqwyo.jpg,,,,,,,,,,,,,,,
118,22,Memory,2,,,,,,,00970960627fa.jpg,,,,,,,,,,,,,,,
119,22,Memory,2,,,,,,,00745941205fa.jpg,,,,,,,,,,,,,,,
120,22,Memory,2,,,,,,,sunaaemixhfquhnxxlm.jpg,,,,,,,,,,,,,,,
121,22,Memory,2,,,,,,,sunaafvitpexrpvumsa.jpg,,,,,,,,,,,,,,,
122,22,Memory,2,,,,,,,sunacycdoztxoluxjyk.jpg,,,,,,,,,,,,,,,
123,22,Memory,2,,,,,,,sunabtlfmiwtljmoues.jpg,,,,,,,,,,,,,,,
124,22,Memory,2,,,,,,,sunacsaovnjezqwbykf.jpg,,,,,,,,,,,,,,,
125,22,Memory,2,,,,,,,sunagtqhhwxjeuxdebe.jpg,,,,,,,,,,,,,,,
126,22,Memory,2,,,,,,,00082931230fa.jpg,,,,,,,,,,,,,,,
127,22,Memory,2,,,,,,,00818940307fa.jpg,,,,,,,,,,,,,,,
128,22,Memory,2,,,,,,,sunbxarcshsnqsefemx.jpg,,,,,,,,,,,,,,,
129,22,Memory,2,,,,,,,00302940422fa.jpg,,,,,,,,,,,,,,,
130,22,Memory,2,,,,,,,00598941031fa.jpg,,,,,,,,,,,,,,,
131,22,Memory,2,,,,,,,00794960620fa.jpg,,,,,,,,,,,,,,,
132,22,Memory,2,,,,,,,00921960627fa.jpg,,,,,,,,,,,,,,,
133,22,Memory,2,,,,,,,sunacepzfrmtkiqonpy.jpg,,,,,,,,,,,,,,,
134,22,Memory,2,,,,,,,00185940422fb.jpg,,,,,,,,,,,,,,,
135,22,Memory,2,,,,,,,00097931230fa.jpg,,,,,,,,,,,,,,,
136,22,Memory,2,,,,,,,sunahpblecxtmuzkmxb.jpg,,,,,,,,,,,,,,,
137,22,Memory,2,,,,,,,sunaajayojuslbbnneg.jpg,,,,,,,,,,,,,,,
138,22,Memory,2,,,,,,,sunaawqdbpihmlbwyyn.jpg,,,,,,,,,,,,,,,
139,22,Memory,2,,,,,,,00742941201fa.jpg,,,,,,,,,,,,,,,
140,22,Memory,2,,,,,,,sunacxtcahkymosigud.jpg,,,,,,,,,,,,,,,
141,22,Memory,2,,,,,,,sunabtrnbvpppgczjim.jpg,,,,,,,,,,,,,,,
142,22,Memory,2,,,,,,,00564941031fa.jpg,,,,,,,,,,,,,,,
143,22,Memory,2,,,,,,,00543940519fa.jpg,,,,,,,,,,,,,,,
144,22,Memory,2,,,,,,,sunavspxmxubqaeidjt.jpg,,,,,,,,,,,,,,,
145,22,Memory,2,,,,,,,01007960627fa.jpg,,,,,,,,,,,,,,,
146,22,Memory,2,,,,,,,00305940422fa.jpg,,,,,,,,,,,,,,,
147,22,Memory,2,,,,,,,sunaenwuebvlpdmntju.jpg,,,,,,,,,,,,,,,
148,22,Memory,2,,,,,,,00609940928fa.jpg,,,,,,,,,,,,,,,
149,22,Memory,2,,,,,,,sunadikxpvqeabxrvvc.jpg,,,,,,,,,,,,,,,
150,22,Presentation,3,00947960627fa_sunasmmcxdddtmtazwx.jpg,00894960620fa_sunalqmfgeadpqsyzpd.jpg,00947960627fa.jpg,sunasmmcxdddtmtazwx.jpg,00894960620fa.jpg,sunalqmfgeadpqsyzpd.jpg,,,>,Place,,,,,1,,,,,,,x
151,22,Presentation,3,00858940307fa_sunaixpqndlwhwjtjek.jpg,00878960530fa_sunakgbnzxmfohgehnu.jpg,00858940307fa.jpg,sunaixpqndlwhwjtjek.jpg,00878960530fa.jpg,sunakgbnzxmfohgehnu.jpg,,,>,Place,,,,,1,,,,,,,x
152,22,Presentation,3,00638941031fa_sunadfktsqjthoglcsm.jpg,00140931230fb_sunaapllqyqlykszopd.jpg,00638941031fa.jpg,sunadfktsqjthoglcsm.jpg,00140931230fb.jpg,sunaapllqyqlykszopd.jpg,,,>,Place,,,,,0,,,,,,,o
153,22,Presentation,3,00784941205fb_sunagjzcrjvmxzqzljx.jpg,00944960627fa_sunasbbntuiheekqyaq.jpg,00784941205fb.jpg,sunagjzcrjvmxzqzljx.jpg,00944960627fa.jpg,sunasbbntuiheekqyaq.jpg,,,>,Place,,,,,1,,,,,,,o
154,22,Presentation,3,00723941201fa_sunaedtgwjvvziytspa.jpg,00810941205fa_sunahctntqrunhdxhtb.jpg,00723941201fa.jpg,sunaedtgwjvvziytspa.jpg,00810941205fa.jpg,sunahctntqrunhdxhtb.jpg,,,>,Place,,,,,1,,,,,,,o
155,22,Presentation,3,00841940307fa_sunaisiwfgppimtnmxl.jpg,00915960620fa_sunapileznnbbmrwoei.jpg,00841940307fa.jpg,sunaisiwfgppimtnmxl.jpg,00915960620fa.jpg,sunapileznnbbmrwoei.jpg,,,>,Place,,,,,0,,,,,,,o
156,22,Presentation,3,00634940928fa_sunadcphrizvfpljiqt.jpg,00061931230fb_sunaaekxzjzrfgtkwjf.jpg,00634940928fa.jpg,sunadcphrizvfpljiqt.jpg,00061931230fb.jpg,sunaaekxzjzrfgtkwjf.jpg,,,>,Place,,,,,1,,,,,,,x
157,22,Presentation,3,00115931230fa_sunaakmxzhuceuiryah.jpg,00559940519fa_sunacjkmnpawfzbyvae.jpg,00115931230fa.jpg,sunaakmxzhuceuiryah.jpg,00559940519fa.jpg,sunacjkmnpawfzbyvae.jpg,,,>,Place,,,,,1,,,,,,,o
158,22,Presentation,3,00898960530fa_sunamkmeblgteyggink.jpg,00069931230fb_sunaaeowapdkwzqpgqr.jpg,00898960530fa.jpg,sunamkmeblgteyggink.jpg,00069931230fb.jpg,sunaaeowapdkwzqpgqr.jpg,,,>,Place,,,,,1,,,,,,,o
159,22,Presentation,3,00663941121fa_sunadnjjzohjhbohlwq.jpg,00905960530fa_sunanmoqeyprjjjfxjt.jpg,00663941121fa.jpg,sunadnjjzohjhbohlwq.jpg,00905960530fa.jpg,sunanmoqeyprjjjfxjt.jpg,,,>,Place,,,,,1,,,,,,,x
160,22,Memory,3,,,,,,,sunaapllqyqlykszopd.jpg,,,,,,,,,,,,,,,
161,22,Memory,3,,,,,,,sunacvbrcejzwmcgnoq.jpg,,,,,,,,,,,,,,,
162,22,Memory,3,,,,,,,sunbbgtoeuzierkkajt.jpg,,,,,,,,,,,,,,,
163,22,Memory,3,,,,,,,sunanaacmmosxrfwmvl.jpg,,,,,,,,,,,,,,,
164,22,Memory,3,,,,,,,00581940928fa.jpg,,,,,,,,,,,,,,,
165,22,Memory,3,,,,,,,sunabyvpwkgsjtijdwj.jpg,,,,,,,,,,,,,,,
166,22,Memory,3,,,,,,,sunagcinxkccdtrjmlv.jpg,,,,,,,,,,,,,,,
167,22,Memory,3,,,,,,,00894960620fa.jpg,,,,,,,,,,,,,,,
168,22,Memory,3,,,,,,,00140931230fb.jpg,,,,,,,,,,,,,,,
169,22,Memory,3,,,,,,,sunadcphrizvfpljiqt.jpg,,,,,,,,,,,,,,,
170,22,Memory,3,,,,,,,sunaedtgwjvvziytspa.jpg,,,,,,,,,,,,,,,
171,22,Memory,3,,,,,,,00723941201fa.jpg,,,,,,,,,,,,,,,
172,22,Memory,3,,,,,,,00576941031fa.jpg,,,,,,,,,,,,,,,
173,22,Memory,3,,,,,,,sunanmoqeyprjjjfxjt.jpg,,,,,,,,,,,,,,,
174,22,Memory,3,,,,,,,00119931230fb.jpg,,,,,,,,,,,,,,,
175,22,Memory,3,,,,,,,sunadnjjzohjhbohlwq.jpg,,,,,,,,,,,,,,,
176,22,Memory,3,,,,,,,sunacvzhvcksnwqcqbw.jpg,,,,,,,,,,,,,,,
177,22,Memory,3,,,,,,,00947960627fa.jpg,,,,,,,,,,,,,,,
178,22,Memory,3,,,,,,,sunagjzcrjvmxzqzljx.jpg,,,,,,,,,,,,,,,
179,22,Memory,3,,,,,,,00681941121fa.jpg,,,,,,,,,,,,,,,
180,22,Memory,3,,,,,,,00973960627fa.jpg,,,,,,,,,,,,,,,
181,22,Memory,3,,,,,,,00313940422fa.jpg,,,,,,,,,,,,,,,
182,22,Memory,3,,,,,,,00777941205fa.jpg,,,,,,,,,,,,,,,
183,22,Memory,3,,,,,,,sunaaeowapdkwzqpgqr.jpg,,,,,,,,,,,,,,,
184,22,Memory,3,,,,,,,sunahctntqrunhdxhtb.jpg,,,,,,,,,,,,,,,
185,22,Memory,3,,,,,,,00810941205fa.jpg,,,,,,,,,,,,,,,
186,22,Memory,3,,,,,,,sunabwjvmoaddlyxfjr.jpg,,,,,,,,,,,,,,,
187,22,Memory,3,,,,,,,sunalqmfgeadpqsyzpd.jpg,,,,,,,,,,,,,,,
188,22,Memory,3,,,,,,,sunacvjlsylseoghjup.jpg,,,,,,,,,,,,,,,
189,22,Memory,3,,,,,,,00483940519fa.jpg,,,,,,,,,,,,,,,
190,22,Memory,3,,,,,,,sunaakvmbftkrgqhjun.jpg,,,,,,,,,,,,,,,
191,22,Memory,3,,,,,,,00069931230fb.jpg,,,,,,,,,,,,,,,
192,22,Memory,3,,,,,,,00574940928fa.jpg,,,,,,,,,,,,,,,
193,22,Memory,3,,,,,,,sunasmmcxdddtmtazwx.jpg,,,,,,,,,,,,,,,
194,22,Memory,3,,,,,,,00634940928fa.jpg,,,,,,,,,,,,,,,
195,22,Memory,3,,,,,,,00905960530fa.jpg,,,,,,,,,,,,,,,
196,22,Memory,3,,,,,,,sunadqmjrhfjyuzyvdd.jpg,,,,,,,,,,,,,,,
197,22,Memory,3,,,,,,,00902960530fa.jpg,,,,,,,,,,,,,,,
198,22,Memory,3,,,,,,,00784941205fb.jpg,,,,,,,,,,,,,,,
199,22,Memory,3,,,,,,,00663941121fa.jpg,,,,,,,,,,,,,,,
200,22,Presentation,4,00793941205fa_sunagtjwilqjvxohypn.jpg,00860940307fa_sunaizeyhvjzknwjudw.jpg,00793941205fa.jpg,sunagtjwilqjvxohypn.jpg,00860940307fa.jpg,sunaizeyhvjzknwjudw.jpg,,,<,Face,,,,,1,,,,,,,o
201,22,Presentation,4,00971960627fa_sunbbegcweqnetpdlrh.jpg,00774941201fa_sunafvtpfczkzopbgue.jpg,00971960627fa.jpg,sunbbegcweqnetpdlrh.jpg,00774941201fa.jpg,sunafvtpfczkzopbgue.jpg,,,<,Face,,,,,1,,,,,,,o
202,22,Presentation,4,00903960620fa_sunanainkqdvktzoxyl.jpg,00929960627fa_sunaprnrbmgkomdbchr.jpg,00903960620fa.jpg,sunanainkqdvktzoxyl.jpg,00929960627fa.jpg,sunaprnrbmgkomdbchr.jpg,,,<,Face,,,,,1,,,,,,,x
203,22,Presentation,4,00835940307fa_sunaijsqpvodplbwxkf.jpg,01003960627fb_sunbwdrdvsweerwsdrj.jpg,00835940307fa.jpg,sunaijsqpvodplbwxkf.jpg,01003960627fb.jpg,sunbwdrdvsweerwsdrj.jpg,,,<,Face,,,,,1,,,,,,,x
204,22,Presentation,4,00620940928fa_sunacypmnujalygkunp.jpg,00869940307fa_sunajoveqhiprwqgoco.jpg,00620940928fa.jpg,sunacypmnujalygkunp.jpg,00869940307fa.jpg,sunajoveqhiprwqgoco.jpg,,,<,Face,,,,,1,,,,,,,o
205,22,Presentation,4,00316940422fa_sunabxmguapjekttvwm.jpg,00747941201fa_sunaeutbrtswvsozxyk.jpg,00316940422fa.jpg,sunabxmguapjekttvwm.jpg,00747941201fa.jpg,sunaeutbrtswvsozxyk.jpg,,,<,Face,,,,,1,,,,,,,o
206,22,Presentation,4,00208940128fa_sunaazzyhbvqjpmazjq.jpg,00158931230fb_sunaavchcbptaerhcfy.jpg,00208940128fa.jpg,sunaazzyhbvqjpmazjq.jpg,00158931230fb.jpg,sunaavchcbptaerhcfy.jpg,,,<,Face,,,,,1,,,,,,,o
207,22,Presentation,4,00227940128fa_sunabckqabszusgcykj.jpg,00306940422fa_sunabueyoajufbkraki.jpg,00227940128fa.jpg,sunabckqabszusgcykj.jpg,00306940422fa.jpg,sunabueyoajufbkraki.jpg,,,<,Face,,,,,1,,,,,,,o
208,22,Presentation,4,00598940928fa_sunacxeheuiigkcgquf.jpg,00799941205fa_sunagutjvdvnhxejerz.jpg,00598940928fa.jpg,sunacxeheuiigkcgquf.jpg,00799941205fa.jpg,sunagutjvdvnhxejerz.jpg,,,<,Face,,,,,1,,,,,,,o
209,22,Presentation,4,00060931230fa_sunaaehaikpckyjsety.jpg,00125931230fa_sunaalltyvjhbzhkmvg.jpg,00060931230fa.jpg,sunaaehaikpckyjsety.jpg,00125931230fa.jpg,sunaalltyvjhbzhkmvg.jpg,,,<,Face,,,,,1,,,,,,,x
210,22,Memory,4,,,,,,,sunaofikylqtxphvdem.jpg,,,,,,,,,,,,,,,
211,22,Memory,4,,,,,,,00620940928fa.jpg,,,,,,,,,,,,,,,
212,22,Memory,4,,,,,,,00860940307fa.jpg,,,,,,,,,,,,,,,
213,22,Memory,4,,,,,,,00076931230fa.jpg,,,,,,,,,,,,,,,
214,22,Memory,4,,,,,,,sunaaehaikpckyjsety.jpg,,,,,,,,,,,,,,,
215,22,Memory,4,,,,,,,sunajoveqhiprwqgoco.jpg,,,,,,,,,,,,,,,
216,22,Memory,4,,,,,,,00906960530fa.jpg,,,,,,,,,,,,,,,
217,22,Memory,4,,,,,,,00859940307fa.jpg,,,,,,,,,,,,,,,
218,22,Memory,4,,,,,,,00799941205fa.jpg,,,,,,,,,,,,,,,
219,22,Memory,4,,,,,,,sunabkmdplkdbvxriff.jpg,,,,,,,,,,,,,,,
220,22,Memory,4,,,,,,,sunaizeyhvjzknwjudw.jpg,,,,,,,,,,,,,,,
221,22,Memory,4,,,,,,,sunbtpilbhhbmhmeuzq.jpg,,,,,,,,,,,,,,,
222,22,Memory,4,,,,,,,sunaeutbrtswvsozxyk.jpg,,,,,,,,,,,,,,,
223,22,Memory,4,,,,,,,sunacypmnujalygkunp.jpg,,,,,,,,,,,,,,,
224,22,Memory,4,,,,,,,sunabckqabszusgcykj.jpg,,,,,,,,,,,,,,,
225,22,Memory,4,,,,,,,00265940128fb.jpg,,,,,,,,,,,,,,,
226,22,Memory,4,,,,,,,sunbbegcweqnetpdlrh.jpg,,,,,,,,,,,,,,,
227,22,Memory,4,,,,,,,sunaalltyvjhbzhkmvg.jpg,,,,,,,,,,,,,,,
228,22,Memory,4,,,,,,,00162931230fb.jpg,,,,,,,,,,,,,,,
229,22,Memory,4,,,,,,,00773960620fa.jpg,,,,,,,,,,,,,,,
230,22,Memory,4,,,,,,,00125931230fa.jpg,,,,,,,,,,,,,,,
231,22,Memory,4,,,,,,,sunaijsqpvodplbwxkf.jpg,,,,,,,,,,,,,,,
232,22,Memory,4,,,,,,,00869940307fa.jpg,,,,,,,,,,,,,,,
233,22,Memory,4,,,,,,,00910960530fa.jpg,,,,,,,,,,,,,,,
234,22,Memory,4,,,,,,,00997960627fa.jpg,,,,,,,,,,,,,,,
235,22,Memory,4,,,,,,,00227940128fa.jpg,,,,,,,,,,,,,,,
236,22,Memory,4,,,,,,,00747941201fa.jpg,,,,,,,,,,,,,,,
237,22,Memory,4,,,,,,,00993960627fa.jpg,,,,,,,,,,,,,,,
238,22,Memory,4,,,,,,,sunaiycurtqsfkvcaso.jpg,,,,,,,,,,,,,,,
239,22,Memory,4,,,,,,,sunafvsxtzaizojicxx.jpg,,,,,,,,,,,,,,,
240,22,Memory,4,,,,,,,sunaafewhewbxmjiurz.jpg,,,,,,,,,,,,,,,
241,22,Memory,4,,,,,,,00971960627fa.jpg,,,,,,,,,,,,,,,
242,22,Memory,4,,,,,,,00096931230fa.jpg,,,,,,,,,,,,,,,
243,22,Memory,4,,,,,,,00835940307fa.jpg,,,,,,,,,,,,,,,
244,22,Memory,4,,,,,,,sunaaiqiqcggrskoqgy.jpg,,,,,,,,,,,,,,,
245,22,Memory,4,,,,,,,sunbprywzqxjcezkbch.jpg,,,,,,,,,,,,,,,
246,22,Memory,4,,,,,,,sunagutjvdvnhxejerz.jpg,,,,,,,,,,,,,,,
247,22,Memory,4,,,,,,,sunantryfbloeaomfta.jpg,,,,,,,,,,,,,,,
248,22,Memory,4,,,,,,,sunaavjinpnkappuonm.jpg,,,,,,,,,,,,,,,
249,22,Memory,4,,,,,,,00060931230fa.jpg,,,,,,,,,,,,,,,
250,22,Presentation,5,00933960627fa_sunapwjkcxdaeqehfql.jpg,00782941205fa_sunagfvluwixdsozaql.jpg,00933960627fa.jpg,sunapwjkcxdaeqehfql.jpg,00782941205fa.jpg,sunagfvluwixdsozaql.jpg,,,<,Place,,,,,1,,,,,,,o
251,22,Presentation,5,00901960530fa_sunammbnoambmhdxdwd.jpg,00211940128fa_sunabasphceswhwwqvv.jpg,00901960530fa.jpg,sunammbnoambmhdxdwd.jpg,00211940128fa.jpg,sunabasphceswhwwqvv.jpg,,,<,Place,,,,,1,,,,,,,o
252,22,Presentation,5,00990960627fa_sunbpflsdaxnddnwcqi.jpg,00913960530fa_sunaooffzffbhcpirmm.jpg,00990960627fa.jpg,sunbpflsdaxnddnwcqi.jpg,00913960530fa.jpg,sunaooffzffbhcpirmm.jpg,,,<,Place,,,,,1,,,,,,,o
253,22,Presentation,5,00145931230fb_sunaatjesvdupctftmn.jpg,00809960620fa_sunahbvlpavurqoxdeq.jpg,00145931230fb.jpg,sunaatjesvdupctftmn.jpg,00809960620fa.jpg,sunahbvlpavurqoxdeq.jpg,,,<,Place,,,,,1,,,,,,,x
254,22,Presentation,5,00804960530fa_sunagwswhkvnsmuszlz.jpg,00925960627fa_sunapqwnqzxlsfvgsjm.jpg,00804960530fa.jpg,sunagwswhkvnsmuszlz.jpg,00925960627fa.jpg,sunapqwnqzxlsfvgsjm.jpg,,,<,Place,,,,,1,,,,,,,x
255,22,Presentation,5,00807941205fa_sunahawfngukizslzsd.jpg,00926960627Fa_sunapqwoeotxshkukbh.jpg,00807941205fa.jpg,sunahawfngukizslzsd.jpg,00926960627Fa.jpg,sunapqwoeotxshkukbh.jpg,,,<,Place,,,,,0,,,,,,,x
256,22,Presentation,5,00762941201fa_sunafgzgbisbopcyslr.jpg,00966960627fa_sunaygrtwrwfezqjizr.jpg,00762941201fa.jpg,sunafgzgbisbopcyslr.jpg,00966960627fa.jpg,sunaygrtwrwfezqjizr.jpg,,,<,Place,,,,,1,,,,,,,x
257,22,Presentation,5,00773941201fa_sunafvcflzhlqloapyo.jpg,00761960627fa_sunafgdqbclkwfocdhg.jpg,00773941201fa.jpg,sunafvcflzhlqloapyo.jpg,00761960627fa.jpg,sunafgdqbclkwfocdhg.jpg,,,<,Place,,,,,1,,,,,,,x
258,22,Presentation,5,00959960627fa_sunavxokzybtomhbmvm.jpg,00242940128fa_sunabcuurugvxwparpk.jpg,00959960627fa.jpg,sunavxokzybtomhbmvm.jpg,00242940128fa.jpg,sunabcuurugvxwparpk.jpg,,,<,Place,,,,,1,,,,,,,o
259,22,Presentation,5,00245940128fa_sunabeyhmxodahoieyk.jpg,00631940928fa_sunadbdqzigzwipuipr.jpg,00245940128fa.jpg,sunabeyhmxodahoieyk.jpg,00631940928fa.jpg,sunadbdqzigzwipuipr.jpg,,,<,Place,,,,,0,,,,,,,x
260,22,Memory,5,,,,,,,00966960627fa.jpg,,,,,,,,,,,,,,,
261,22,Memory,5,,,,,,,00145931230fb.jpg,,,,,,,,,,,,,,,
262,22,Memory,5,,,,,,,sunabeyhmxodahoieyk.jpg,,,,,,,,,,,,,,,
263,22,Memory,5,,,,,,,sunafvcflzhlqloapyo.jpg,,,,,,,,,,,,,,,
264,22,Memory,5,,,,,,,sunapqwnqzxlsfvgsjm.jpg,,,,,,,,,,,,,,,
265,22,Memory,5,,,,,,,sunabcuurugvxwparpk.jpg,,,,,,,,,,,,,,,
266,22,Memory,5,,,,,,,sunabclssnoeuigtawp.jpg,,,,,,,,,,,,,,,
267,22,Memory,5,,,,,,,00705960530fa.jpg,,,,,,,,,,,,,,,
268,22,Memory,5,,,,,,,sunaajqmsaavkmgbsth.jpg,,,,,,,,,,,,,,,
269,22,Memory,5,,,,,,,00895960530fa.jpg,,,,,,,,,,,,,,,
270,22,Memory,5,,,,,,,00242940128fa.jpg,,,,,,,,,,,,,,,
271,22,Memory,5,,,,,,,00773941201fa.jpg,,,,,,,,,,,,,,,
272,22,Memory,5,,,,,,,00937960627fa.jpg,,,,,,,,,,,,,,,
273,22,Memory,5,,,,,,,sunaduslxfzlbxlllnz.jpg,,,,,,,,,,,,,,,
274,22,Memory,5,,,,,,,00221940128fa.jpg,,,,,,,,,,,,,,,
275,22,Memory,5,,,,,,,00235940128fb.jpg,,,,,,,,,,,,,,,
276,22,Memory,5,,,,,,,sunabzuqsrgcsonqlkz.jpg,,,,,,,,,,,,,,,
277,22,Memory,5,,,,,,,00245940128fa.jpg,,,,,,,,,,,,,,,
278,22,Memory,5,,,,,,,00101931230fb.jpg,,,,,,,,,,,,,,,
279,22,Memory,5,,,,,,,sunafgdqbclkwfocdhg.jpg,,,,,,,,,,,,,,,
280,22,Memory,5,,,,,,,sunagwswhkvnsmuszlz.jpg,,,,,,,,,,,,,,,
281,22,Memory,5,,,,,,,sunaygrtwrwfezqjizr.jpg,,,,,,,,,,,,,,,
282,22,Memory,5,,,,,,,sunavxokzybtomhbmvm.jpg,,,,,,,,,,,,,,,
283,22,Memory,5,,,,,,,00949960627fb.jpg,,,,,,,,,,,,,,,
284,22,Memory,5,,,,,,,00893960530Fa.jpg,,,,,,,,,,,,,,,
285,22,Memory,5,,,,,,,sunaffgsyyvoqdlkmnk.jpg,,,,,,,,,,,,,,,
286,22,Memory,5,,,,,,,00505960627fa.jpg,,,,,,,,,,,,,,,
287,22,Memory,5,,,,,,,sunaqsolmfydodnakub.jpg,,,,,,,,,,,,,,,
288,22,Memory,5,,,,,,,sunaloffvbvysigxent.jpg,,,,,,,,,,,,,,,
289,22,Memory,5,,,,,,,00754941201fa.jpg,,,,,,,,,,,,,,,
290,22,Memory,5,,,,,,,sunapqwoeotxshkukbh.jpg,,,,,,,,,,,,,,,
291,22,Memory,5,,,,,,,sunamczizlzavhzhpay.jpg,,,,,,,,,,,,,,,
292,22,Memory,5,,,,,,,00761960627fa.jpg,,,,,,,,,,,,,,,
293,22,Memory,5,,,,,,,sunasnqkkyhilqkxiqm.jpg,,,,,,,,,,,,,,,
294,22,Memory,5,,,,,,,00925960627fa.jpg,,,,,,,,,,,,,,,
295,22,Memory,5,,,,,,,00926960627Fa.jpg,,,,,,,,,,,,,,,
296,22,Memory,5,,,,,,,sunabcfpwlpolnutyju.jpg,,,,,,,,,,,,,,,
297,22,Memory,5,,,,,,,sunaatjesvdupctftmn.jpg,,,,,,,,,,,,,,,
298,22,Memory,5,,,,,,,00804960530fa.jpg,,,,,,,,,,,,,,,
299,22,Memory,5,,,,,,,00959960627fa.jpg,,,,,,,,,,,,,,,
300,22,Presentation,6,00314940422fa_sunabwmcbaxwioksdgw.jpg,00630941031fa_sunadakkdovnuzlycvp.jpg,00314940422fa.jpg,sunabwmcbaxwioksdgw.jpg,00630941031fa.jpg,sunadakkdovnuzlycvp.jpg,,,>,Face,,,,,1,,,,,,,x
301,22,Presentation,6,00725941201fa_sunaefgzwiramypjvtd.jpg,00828940307fa_sunahuynahneraqftyz.jpg,00725941201fa.jpg,sunaefgzwiramypjvtd.jpg,00828940307fa.jpg,sunahuynahneraqftyz.jpg,,,>,Face,,,,,1,,,,,,,x
302,22,Presentation,6,00163931230fb_sunaavodbcpygkggnfp.jpg,00116931230fa_sunaakqepfoeqomfgxf.jpg,00163931230fb.jpg,sunaavodbcpygkggnfp.jpg,00116931230fa.jpg,sunaakqepfoeqomfgxf.jpg,,,>,Face,,,,,1,,,,,,,o
303,22,Presentation,6,00719960620fa_sunadzuvtmtmgupotmf.jpg,00694941121fa_sunadrmfzmstgdjdcod.jpg,00719960620fa.jpg,sunadzuvtmtmgupotmf.jpg,00694941121fa.jpg,sunadrmfzmstgdjdcod.jpg,,,>,Face,,,,,1,,,,,,,o
304,22,Presentation,6,01005960627fa_sunbwyuesflwdpqtgoy.jpg,00529940519fa_sunacbeefkxpymwevpk.jpg,01005960627fa.jpg,sunbwyuesflwdpqtgoy.jpg,00529940519fa.jpg,sunacbeefkxpymwevpk.jpg,,,>,Face,,,,,1,,,,,,,x
305,22,Presentation,6,00142931230fb_sunaapxkpvrhpjplsok.jpg,00548940519fa_sunacerqowiaeoqkmsq.jpg,00142931230fb.jpg,sunaapxkpvrhpjplsok.jpg,00548940519fa.jpg,sunacerqowiaeoqkmsq.jpg,,,>,Face,,,,,1,,,,,,,o
306,22,Presentation,6,00749941201fa_sunaeuvjbmdpknaqqaj.jpg,00753941201fa_sunafcofuuzebuadceo.jpg,00749941201fa.jpg,sunaeuvjbmdpknaqqaj.jpg,00753941201fa.jpg,sunafcofuuzebuadceo.jpg,,,>,Face,,,,,1,,,,,,,o
307,22,Presentation,6,00263940128fb_sunabjuovqvyfuzvqwt.jpg,00805941205fa_sunagwzdbtlixdhgolm.jpg,00263940128fb.jpg,sunabjuovqvyfuzvqwt.jpg,00805941205fa.jpg,sunagwzdbtlixdhgolm.jpg,,,>,Face,,,,,1,,,,,,,o
308,22,Presentation,6,00834940307fa_sunaibnpvhkdpdnzcnz.jpg,00914960620fa_sunaozisvwfbmlkfhzv.jpg,00834940307fa.jpg,sunaibnpvhkdpdnzcnz.jpg,00914960620fa.jpg,sunaozisvwfbmlkfhzv.jpg,,,>,Face,,,,,0,,,,,,,o
309,22,Presentation,6,00922960627fa_sunapqkyghktgtosuuk.jpg,00675941121fa_sunadoxcchtmsxewsau.jpg,00922960627fa.jpg,sunapqkyghktgtosuuk.jpg,00675941121fa.jpg,sunadoxcchtmsxewsau.jpg,,,>,Face,,,,,1,,,,,,,x
310,22,Memory,6,,,,,,,sunaizgnnplsvajzhkc.jpg,,,,,,,,,,,,,,,
311,22,Memory,6,,,,,,,sunadbhmrgrrpyzglxs.jpg,,,,,,,,,,,,,,,
312,22,Memory,6,,,,,,,sunaakqepfoeqomfgxf.jpg,,,,,,,,,,,,,,,
313,22,Memory,6,,,,,,,00163931230fb.jpg,,,,,,,,,,,,,,,
314,22,Memory,6,,,,,,,sunacsdhbbsybcyxnel.jpg,,,,,,,,,,,,,,,
315,22,Memory,6,,,,,,,00834940307fa.jpg,,,,,,,,,,,,,,,
316,22,Memory,6,,,,,,,sunabjuovqvyfuzvqwt.jpg,,,,,,,,,,,,,,,
317,22,Memory,6,,,,,,,sunaibnpvhkdpdnzcnz.jpg,,,,,,,,,,,,,,,
318,22,Memory,6,,,,,,,00743941201fa.jpg,,,,,,,,,,,,,,,
319,22,Memory,6,,,,,,,00073931230fa.jpg,,,,,,,,,,,,,,,
320,22,Memory,6,,,,,,,sunaawsdjisukbbginm.jpg,,,,,,,,,,,,,,,
321,22,Memory,6,,,,,,,00263940128fb.jpg,,,,,,,,,,,,,,,
322,22,Memory,6,,,,,,,00953960627fa.jpg,,,,,,,,,,,,,,,
323,22,Memory,6,,,,,,,00744941201fa.jpg,,,,,,,,,,,,,,,
324,22,Memory,6,,,,,,,sunagwzdbtlixdhgolm.jpg,,,,,,,,,,,,,,,
325,22,Memory,6,,,,,,,00675941121fa.jpg,,,,,,,,,,,,,,,
326,22,Memory,6,,,,,,,sunaeoghzrjarigmwua.jpg,,,,,,,,,,,,,,,
327,22,Memory,6,,,,,,,00828940307fa.jpg,,,,,,,,,,,,,,,
328,22,Memory,6,,,,,,,00787960620fa.jpg,,,,,,,,,,,,,,,
329,22,Memory,6,,,,,,,00633940928fa.jpg,,,,,,,,,,,,,,,
330,22,Memory,6,,,,,,,sunahuynahneraqftyz.jpg,,,,,,,,,,,,,,,
331,22,Memory,6,,,,,,,00116931230fa.jpg,,,,,,,,,,,,,,,
332,22,Memory,6,,,,,,,sunapqkyghktgtosuuk.jpg,,,,,,,,,,,,,,,
333,22,Memory,6,,,,,,,00719960620fa.jpg,,,,,,,,,,,,,,,
334,22,Memory,6,,,,,,,00922960627fa.jpg,,,,,,,,,,,,,,,
335,22,Memory,6,,,,,,,sunatstrpjxhvtbaczf.jpg,,,,,,,,,,,,,,,
336,22,Memory,6,,,,,,,00568940928fa.jpg,,,,,,,,,,,,,,,
337,22,Memory,6,,,,,,,00862940307fa.jpg,,,,,,,,,,,,,,,
338,22,Memory,6,,,,,,,sunaeomlfaabhpswasy.jpg,,,,,,,,,,,,,,,
339,22,Memory,6,,,,,,,sunaavodbcpygkggnfp.jpg,,,,,,,,,,,,,,,
340,22,Memory,6,,,,,,,sunagoufulkpsxrmklt.jpg,,,,,,,,,,,,,,,
341,22,Memory,6,,,,,,,sunacerqowiaeoqkmsq.jpg,,,,,,,,,,,,,,,
342,22,Memory,6,,,,,,,sunadzuvtmtmgupotmf.jpg,,,,,,,,,,,,,,,
343,22,Memory,6,,,,,,,00191940128fb.jpg,,,,,,,,,,,,,,,
344,22,Memory,6,,,,,,,00630940928fa.jpg,,,,,,,,,,,,,,,
345,22,Memory,6,,,,,,,00548940519fa.jpg,,,,,,,,,,,,,,,
346,22,Memory,6,,,,,,,sunadoxcchtmsxewsau.jpg,,,,,,,,,,,,,,,
347,22,Memory,6,,,,,,,sunaczwgyukesaajxnx.jpg,,,,,,,,,,,,,,,
348,22,Memory,6,,,,,,,sunaafbmtoniaasysgu.jpg,,,,,,,,,,,,,,,
349,22,Memory,6,,,,,,,00805941205fa.jpg,,,,,,,,,,,,,,,
350,22,Presentation,7,00214940128fa_sunabbafjowbzcvbucc.jpg,01009960627fa_sunbxzweleltykebgan.jpg,00214940128fa.jpg,sunabbafjowbzcvbucc.jpg,01009960627fa.jpg,sunbxzweleltykebgan.jpg,,,<,Face,,,,,1,,,,,,,x
351,22,Presentation,7,00979960627fa_sunbdycacjfaujxitbw.jpg,00900960530fa_sunamlotskmmsjeogby.jpg,00979960627fa.jpg,sunbdycacjfaujxitbw.jpg,00900960530fa.jpg,sunamlotskmmsjeogby.jpg,,,<,Face,,,,,1,,,,,,,x
352,22,Presentation,7,00780960530fa_sunagetqixeypsysbpn.jpg,00123931230fb_sunaalcrrdbjgdztbiz.jpg,00780960530fa.jpg,sunagetqixeypsysbpn.jpg,00123931230fb.jpg,sunaalcrrdbjgdztbiz.jpg,,,<,Face,,,,,1,,,,,,,o
353,22,Presentation,7,00288940422fa_sunabppokiyglaxpcha.jpg,00270940422fb_sunabllobxadqcyttej.jpg,00288940422fa.jpg,sunabppokiyglaxpcha.jpg,00270940422fb.jpg,sunabllobxadqcyttej.jpg,,,<,Face,,,,,0,,,,,,,o
354,22,Presentation,7,00788941205fa_sunagountlxpzkytsmp.jpg,00564940928fa_sunacmpqqfbsvlzinzl.jpg,00788941205fa.jpg,sunagountlxpzkytsmp.jpg,00564940928fa.jpg,sunacmpqqfbsvlzinzl.jpg,,,<,Face,,,,,1,,,,,,,o
355,22,Presentation,7,00789960620fa_sunagpancjmxqfazssf.jpg,00976960627fa_sunbbhqyyzmsxhsbjmp.jpg,00789960620fa.jpg,sunagpancjmxqfazssf.jpg,00976960627fa.jpg,sunbbhqyyzmsxhsbjmp.jpg,,,<,Face,,,,,1,,,,,,,o
356,22,Presentation,7,00785941205fa_sunaglqunwuycxydmyu.jpg,00775941205fa_sunafvwfsmqkjrutjta.jpg,00785941205fa.jpg,sunaglqunwuycxydmyu.jpg,00775941205fa.jpg,sunafvwfsmqkjrutjta.jpg,,,<,Face,,,,,1,,,,,,,x
357,22,Presentation,7,00290940422fa_sunabqowuarvqqcnipn.jpg,00089931230fa_sunaagcpoejbuzyvddd.jpg,00290940422fa.jpg,sunabqowuarvqqcnipn.jpg,00089931230fa.jpg,sunaagcpoejbuzyvddd.jpg,,,<,Face,,,,,1,,,,,,,o
358,22,Presentation,7,00727941205fa_sunaeisnjeetzmkbuad.jpg,00779941205fa_sunagdzlvkqtpnfxfcg.jpg,00727941205fa.jpg,sunaeisnjeetzmkbuad.jpg,00779941205fa.jpg,sunagdzlvkqtpnfxfcg.jpg,,,<,Face,,,,,1,,,,,,,x
359,22,Presentation,7,00662941121fa_sunadkazmlajmohnwfl.jpg,00797960620fa_sunagufzbeteqdjxais.jpg,00662941121fa.jpg,sunadkazmlajmohnwfl.jpg,00797960620fa.jpg,sunagufzbeteqdjxais.jpg,,,<,Face,,,,,1,,,,,,,x
360,22,Memory,7,,,,,,,sunabppokiyglaxpcha.jpg,,,,,,,,,,,,,,,
361,22,Memory,7,,,,,,,00775941205fa.jpg,,,,,,,,,,,,,,,
362,22,Memory,7,,,,,,,00938960627fa.jpg,,,,,,,,,,,,,,,
363,22,Memory,7,,,,,,,sunagountlxpzkytsmp.jpg,,,,,,,,,,,,,,,
364,22,Memory,7,,,,,,,sunakwlvxjpddialozd.jpg,,,,,,,,,,,,,,,
365,22,Memory,7,,,,,,,sunagetqixeypsysbpn.jpg,,,,,,,,,,,,,,,
366,22,Memory,7,,,,,,,00124931230fa.jpg,,,,,,,,,,,,,,,
367,22,Memory,7,,,,,,,00960960627fa.jpg,,,,,,,,,,,,,,,
368,22,Memory,7,,,,,,,sunaagcpoejbuzyvddd.jpg,,,,,,,,,,,,,,,
369,22,Memory,7,,,,,,,sunaqbmgkgqucajzrkp.jpg,,,,,,,,,,,,,,,
370,22,Memory,7,,,,,,,00727941205fa.jpg,,,,,,,,,,,,,,,
371,22,Memory,7,,,,,,,00788941205fa.jpg,,,,,,,,,,,,,,,
372,22,Memory,7,,,,,,,00885960530fa.jpg,,,,,,,,,,,,,,,
373,22,Memory,7,,,,,,,sunacmpqqfbsvlzinzl.jpg,,,,,,,,,,,,,,,
374,22,Memory,7,,,,,,,sunbfyvfqiimvdaxlqn.jpg,,,,,,,,,,,,,,,
375,22,Memory,7,,,,,,,00969960627fa.jpg,,,,,,,,,,,,,,,
376,22,Memory,7,,,,,,,00270940422fb.jpg,,,,,,,,,,,,,,,
377,22,Memory,7,,,,,,,sunaqyylsngywqzwfmx.jpg,,,,,,,,,,,,,,,
378,22,Memory,7,,,,,,,sunawksfbacycuhbrsc.jpg,,,,,,,,,,,,,,,
379,22,Memory,7,,,,,,,sunabllobxadqcyttej.jpg,,,,,,,,,,,,,,,
380,22,Memory,7,,,,,,,sunabrlndkruqokhury.jpg,,,,,,,,,,,,,,,
381,22,Memory,7,,,,,,,sunafvwfsmqkjrutjta.jpg,,,,,,,,,,,,,,,
382,22,Memory,7,,,,,,,sunbaoizrfijvhpnnjn.jpg,,,,,,,,,,,,,,,
383,22,Memory,7,,,,,,,00288940422fa.jpg,,,,,,,,,,,,,,,
384,22,Memory,7,,,,,,,sunaeisnjeetzmkbuad.jpg,,,,,,,,,,,,,,,
385,22,Memory,7,,,,,,,00123931230fb.jpg,,,,,,,,,,,,,,,
386,22,Memory,7,,,,,,,00089931230fa.jpg,,,,,,,,,,,,,,,
387,22,Memory,7,,,,,,,sunaalhlvzmjmitybdn.jpg,,,,,,,,,,,,,,,
388,22,Memory,7,,,,,,,sunaalcrrdbjgdztbiz.jpg,,,,,,,,,,,,,,,
389,22,Memory,7,,,,,,,00780960530fa.jpg,,,,,,,,,,,,,,,
390,22,Memory,7,,,,,,,00983960627fa.jpg,,,,,,,,,,,,,,,
391,22,Memory,7,,,,,,,00102931230fa.jpg,,,,,,,,,,,,,,,
392,22,Memory,7,,,,,,,00564940928fa.jpg,,,,,,,,,,,,,,,
393,22,Memory,7,,,,,,,00935960627fa.jpg,,,,,,,,,,,,,,,
394,22,Memory,7,,,,,,,sunbdycacjfaujxitbw.jpg,,,,,,,,,,,,,,,
395,22,Memory,7,,,,,,,sunaajspcoepticvplv.jpg,,,,,,,,,,,,,,,
396,22,Memory,7,,,,,,,00979960627fa.jpg,,,,,,,,,,,,,,,
397,22,Memory,7,,,,,,,sunabmytpyhsgigllxu.jpg,,,,,,,,,,,,,,,
398,22,Memory,7,,,,,,,00276940422fa.jpg,,,,,,,,,,,,,,,
399,22,Memory,7,,,,,,,00294940422fb.jpg,,,,,,,,,,,,,,,
