,Subject,Trial Type,Run,Cued Composite,Uncued Composite,Cued Face,Cued Place,Uncued Face,Uncued Place,Memory Image,Category,Cued Side,Cued Category,Attention Reaction Time (s),Familiarity Reaction Time (s),Familiarity Rating,Attention Level,Cue Validity,Post Invalid Cue,Pre Invalid Cue,Attention Button,Rating History,Stimulus Onset,Stimulus End,Attention Probe
160,23,Memory,3,,,,,,,00953960627fa.jpg,,,,,1.47,2.0,,,,,,,1539545499.985492,1539545502.551365,
161,23,Memory,3,,,,,,,00789960620fa.jpg,,,,,0.852,3.0,,,,,,,1539545503.96959,1539545506.353,
162,23,Memory,3,,,,,,,00479940519fa.jpg,,,,,1.906,2.0,,,,,,,1539545507.787419,1539545510.355131,
163,23,Memory,3,,,,,,,00743941201fa.jpg,,,,,0.87,1.0,,,,,,,1539545511.771912,1539545514.223078,
164,23,Memory,3,,,,,,,sunajawzbrlrwafowen.jpg,,,,,1.802,1.0,,,,,,,1539545515.606368,1539545518.074062,
165,23,Memory,3,,,,,,,00723941201fa.jpg,,,,,1.105,3.0,,,,,,,1539545519.474509,1539545522.142241,
166,23,Memory,3,,,,,,,00070940307fa.jpg,,,,,1.655,2.0,,,,,,,1539545523.508839,1539545526.043635,
167,23,Memory,3,,,,,,,00937960627fa.jpg,,,,,1.589,2.0,,,,,,,1539545527.460793,1539545529.861631,
168,23,Memory,3,,,,,,,sunaaeplwsfslcbtojr.jpg,,,,,0.754,2.0,,,,,,,1539545531.228087,1539545533.729223,
169,23,Memory,3,,,,,,,sunacsdhbbsybcyxnel.jpg,,,,,0.753,1.0,,,,,,,1539545535.129977,1539545537.430142,
170,23,Memory,3,,,,,,,sunajwqkfsykceonyig.jpg,,,,,1.037,1.0,,,,,,,1539545538.830404,1539545541.198835,
171,23,Memory,3,,,,,,,sunahawfngukizslzsd.jpg,,,,,0.902,1.0,,,,,,,1539545542.564839,1539545545.082859,
172,23,Memory,3,,,,,,,sunaalltyvjhbzhkmvg.jpg,,,,,1.887,1.0,,,,,,,1539545546.533,1539545549.084762,
173,23,Memory,3,,,,,,,sunaauglwmctnkxyird.jpg,,,,,0.585,1.0,,,,,,,1539545550.468054,1539545553.068112,
174,23,Memory,3,,,,,,,00800941205fb.jpg,,,,,1.219,2.0,,,,,,,1539545554.553375,1539545556.919435,
175,23,Memory,3,,,,,,,00874940307fa.jpg,,,,,1.655,1.0,,,,,,,1539545558.353253,1539545560.720935,
176,23,Memory,3,,,,,,,sunabxsbfwjccqxxzxq.jpg,,,,,1.303,1.0,,,,,,,1539545562.070695,1539545564.572493,
177,23,Memory,3,,,,,,,sunaatjesvdupctftmn.jpg,,,,,0.803,1.0,,,,,,,1539545565.956813,1539545568.356961,
178,23,Memory,3,,,,,,,00145931230fb.jpg,,,,,1.953,1.0,,,,,,,1539545569.857867,1539545572.391422,
179,23,Memory,3,,,,,,,00887960530.jpg,,,,,1.352,2.0,,,,,,,1539545573.774991,1539545576.476149,
180,23,Memory,3,,,,,,,sunaqsolmfydodnakub.jpg,,,,,0.804,1.0,,,,,,,1539545577.877196,1539545580.377576,
181,23,Memory,3,,,,,,,sunagpancjmxqfazssf.jpg,,,,,0.769,2.0,,,,,,,1539545581.795076,1539545584.328206,
182,23,Memory,3,,,,,,,sunalcrtwiycqobgelp.jpg,,,,,1.121,1.0,,,,,,,1539545585.861675,1539545588.195988,
183,23,Memory,3,,,,,,,sunabclssnoeuigtawp.jpg,,,,,0.553,1.0,,,,,,,1539545589.664219,1539545592.231094,
184,23,Memory,3,,,,,,,sunaapfaivxqoynnwwp.jpg,,,,,0.654,1.0,,,,,,,1539545593.614509,1539545596.048783,
185,23,Memory,3,,,,,,,00138931230fa.jpg,,,,,0.487,1.0,,,,,,,1539545597.466586,1539545599.916927,
186,23,Memory,3,,,,,,,sunatstrpjxhvtbaczf.jpg,,,,,1.57,1.0,,,,,,,1539545601.333901,1539545603.767692,
187,23,Memory,3,,,,,,,sunajtrfunvzdfticna.jpg,,,,,1.138,2.0,,,,,,,1539545605.16976,1539545607.669983,
188,23,Memory,3,,,,,,,00568940928fa.jpg,,,,,1.42,3.0,,,,,,,1539545609.087137,1539545611.588172,
189,23,Memory,3,,,,,,,sunaedtgwjvvziytspa.jpg,,,,,1.139,1.0,,,,,,,1539545613.004056,1539545615.405456,
190,23,Memory,3,,,,,,,sunafxokyavhgptyfye.jpg,,,,,0.986,1.0,,,,,,,1539545616.7722,1539545619.257819,
191,23,Memory,3,,,,,,,00125931230fa.jpg,,,,,1.169,3.0,,,,,,,1539545620.624399,1539545622.957679,
192,23,Memory,3,,,,,,,00235940128fb.jpg,,,,,0.984,4.0,,,,,,,1539545624.359048,1539545626.708919,
193,23,Memory,3,,,,,,,00864940307fa.jpg,,,,,1.138,2.0,,,,,,,1539545628.093066,1539545630.494511,
194,23,Memory,3,,,,,,,00807941205fa.jpg,,,,,1.472,2.0,,,,,,,1539545632.044432,1539545634.52824,
195,23,Memory,3,,,,,,,00876960620fa.jpg,,,,,1.655,2.0,,,,,,,1539545635.879304,1539545638.161672,
196,23,Memory,3,,,,,,,00776941205fa.jpg,,,,,0.837,2.0,,,,,,,1539545639.563655,1539545642.031385,
197,23,Memory,3,,,,,,,sunagvjurcwdbixvnyi.jpg,,,,,0.721,1.0,,,,,,,1539545643.448171,1539545645.849231,
198,23,Memory,3,,,,,,,00149931230fa.jpg,,,,,1.02,2.0,,,,,,,1539545647.265825,1539545649.550065,
199,23,Memory,3,,,,,,,sunaeoghzrjarigmwua.jpg,,,,,0.77,1.0,,,,,,,1539545650.984483,1539545653.317616,
