,Subject,Trial Type,Run,Cued Composite,Uncued Composite,Cued Face,Cued Place,Uncued Face,Uncued Place,Memory Image,Category,Cued Side,Cued Category,Attention Response Time (s),Familiarity Reaction Time (s),Familiarity Rating,Attention Level,Cue Validity,Post Invalid Cue,Pre Invalid Cue,Attention Button,Rating History,Stimulus Onset,Stimulus End,Attention Probe
0,4,Presentation,0,00942960627fa_sunarfdklgdnjgeqfjg.jpg,00630941031fa_sunadakkdovnuzlycvp.jpg,,,,,,,<,Face,,,,,1,,,,,,,o
1,4,Presentation,0,00193940928fa_sunaaxjpzcnxligjtjq.jpg,00481940519fa_sunabxsuqbleluwczoy.jpg,,,,,,,<,Place,,,,,0,,,,,,,x
2,4,Presentation,0,00966960627fa_sunaygrtwrwfezqjizr.jpg,00795941205fa_sunagtumacdlmciqamz.jpg,,,,,,,>,Face,,,,,1,,,,,,,o
3,4,Presentation,0,00705960530fa_sunaduslxfzlbxlllnz.jpg,00529940519fa_sunacbeefkxpymwevpk.jpg,,,,,,,>,Place,,,,,1,,,,,,,x
4,4,Presentation,0,00145931230fb_sunaatjesvdupctftmn.jpg,00559940519fa_sunacjkmnpawfzbyvae.jpg,,,,,,,<,Face,,,,,1,,,,,,,o
5,4,Presentation,0,00574940928fa_sunacvbrcejzwmcgnoq.jpg,00905960530fa_sunanmoqeyprjjjfxjt.jpg,,,,,,,>,Place,,,,,0,,,,,,,o
6,4,Presentation,0,00568940928fa_sunacsdhbbsybcyxnel.jpg,00919960620fa_sunapmfmzadmosuogaz.jpg,,,,,,,>,Face,,,,,1,,,,,,,o
7,4,Presentation,0,00895960530fa_sunamczizlzavhzhpay.jpg,00082931230fa_sunaafvitpexrpvumsa.jpg,,,,,,,<,Face,,,,,0,,,,,,,o
8,4,Presentation,0,00864940307fa_sunajawzbrlrwafowen.jpg,00239940128fa_sunabctlikybqabezjv.jpg,,,,,,,<,Place,,,,,1,,,,,,,o
9,4,Presentation,0,00210940128fb_sunabanoxjtqxamkucc.jpg,00933960627fa_sunapwjkcxdaeqehfql.jpg,,,,,,,>,Place,,,,,1,,,,,,,o
10,4,Memory,0,,,,,,,00966960627fa.jpg,,,,,,,,,,,,,,,
11,4,Memory,0,,,,,,,sunapwjkcxdaeqehfql.jpg,,,,,,,,,,,,,,,
12,4,Memory,0,,,,,,,sunaduslxfzlbxlllnz.jpg,,,,,,,,,,,,,,,
13,4,Memory,0,,,,,,,sunaafbmtoniaasysgu.jpg,,,,,,,,,,,,,,,
14,4,Memory,0,,,,,,,sunaygrtwrwfezqjizr.jpg,,,,,,,,,,,,,,,
15,4,Memory,0,,,,,,,00095931230fa.jpg,,,,,,,,,,,,,,,
16,4,Memory,0,,,,,,,00933960627fa.jpg,,,,,,,,,,,,,,,
17,4,Memory,0,,,,,,,sunaatjesvdupctftmn.jpg,,,,,,,,,,,,,,,
18,4,Memory,0,,,,,,,00564941031fa.jpg,,,,,,,,,,,,,,,
19,4,Memory,0,,,,,,,00705960530fa.jpg,,,,,,,,,,,,,,,
20,4,Memory,0,,,,,,,sunaaelotvjgibjtjhs.jpg,,,,,,,,,,,,,,,
21,4,Memory,0,,,,,,,00073931230fa.jpg,,,,,,,,,,,,,,,
22,4,Memory,0,,,,,,,sunacsaovnjezqwbykf.jpg,,,,,,,,,,,,,,,
23,4,Memory,0,,,,,,,sunbpflsdaxnddnwcqi.jpg,,,,,,,,,,,,,,,
24,4,Memory,0,,,,,,,00210940128fb.jpg,,,,,,,,,,,,,,,
25,4,Memory,0,,,,,,,sunabanoxjtqxamkucc.jpg,,,,,,,,,,,,,,,
26,4,Memory,0,,,,,,,00062931230fb.jpg,,,,,,,,,,,,,,,
27,4,Memory,0,,,,,,,00895960530fa.jpg,,,,,,,,,,,,,,,
28,4,Memory,0,,,,,,,sunbvzmgrdvaakxusbu.jpg,,,,,,,,,,,,,,,
29,4,Memory,0,,,,,,,sunadakkdovnuzlycvp.jpg,,,,,,,,,,,,,,,
30,4,Memory,0,,,,,,,00990960627fa.jpg,,,,,,,,,,,,,,,
31,4,Memory,0,,,,,,,00529940519fa.jpg,,,,,,,,,,,,,,,
32,4,Memory,0,,,,,,,sunamczizlzavhzhpay.jpg,,,,,,,,,,,,,,,
33,4,Memory,0,,,,,,,00630941031fa.jpg,,,,,,,,,,,,,,,
34,4,Memory,0,,,,,,,sunacbeefkxpymwevpk.jpg,,,,,,,,,,,,,,,
35,4,Memory,0,,,,,,,00795941205fa.jpg,,,,,,,,,,,,,,,
36,4,Memory,0,,,,,,,sunaahzooisqkwlxwoz.jpg,,,,,,,,,,,,,,,
37,4,Memory,0,,,,,,,00239940128fa.jpg,,,,,,,,,,,,,,,
38,4,Memory,0,,,,,,,00271940422fa.jpg,,,,,,,,,,,,,,,
39,4,Memory,0,,,,,,,00145931230fb.jpg,,,,,,,,,,,,,,,
40,4,Memory,0,,,,,,,01000960627fa.jpg,,,,,,,,,,,,,,,
41,4,Memory,0,,,,,,,00911960530fa.jpg,,,,,,,,,,,,,,,
42,4,Memory,0,,,,,,,sunabctlikybqabezjv.jpg,,,,,,,,,,,,,,,
43,4,Memory,0,,,,,,,sunaooaqzputrowwbsw.jpg,,,,,,,,,,,,,,,
44,4,Memory,0,,,,,,,sunabmbnddafmywtjjj.jpg,,,,,,,,,,,,,,,
45,4,Memory,0,,,,,,,00557940519fa.jpg,,,,,,,,,,,,,,,
46,4,Memory,0,,,,,,,sunachtuarilwyqnvjx.jpg,,,,,,,,,,,,,,,
47,4,Memory,0,,,,,,,sunajrujcsdxmfbssmc.jpg,,,,,,,,,,,,,,,
48,4,Memory,0,,,,,,,sunagtumacdlmciqamz.jpg,,,,,,,,,,,,,,,
49,4,Memory,0,,,,,,,00871940307.jpg,,,,,,,,,,,,,,,
50,4,Presentation,1,01007960627fa_sunbxarcshsnqsefemx.jpg,00086931230fa_sunaafynehyrzpsoaml.jpg,,,,,,,<,Place,,,,,1,,,,,,,x
51,4,Presentation,1,00953960627fa_sunatstrpjxhvtbaczf.jpg,00077931230fb_sunaafgqutfaishsxyu.jpg,,,,,,,>,Place,,,,,1,,,,,,,x
52,4,Presentation,1,00747941201fa_sunaeutbrtswvsozxyk.jpg,00638941031fa_sunadfktsqjthoglcsm.jpg,,,,,,,>,Face,,,,,1,,,,,,,o
53,4,Presentation,1,00970960627fa_sunbasypfgzjtomktmu.jpg,00316940422fa_sunabxmguapjekttvwm.jpg,,,,,,,<,Place,,,,,1,,,,,,,x
54,4,Presentation,1,00908960530fa_sunanwjjyqqwzqrqagd.jpg,00635941031fa_sunaddsaeicthrfbkhe.jpg,,,,,,,>,Face,,,,,1,,,,,,,x
55,4,Presentation,1,00859940307fa_sunaiycurtqsfkvcaso.jpg,00663941121fa_sunadnjjzohjhbohlwq.jpg,,,,,,,<,Face,,,,,1,,,,,,,x
56,4,Presentation,1,00752960620fa_sunafbwnojpqeyzssoe.jpg,00878960530fa_sunakgbnzxmfohgehnu.jpg,,,,,,,>,Face,,,,,1,,,,,,,o
57,4,Presentation,1,00862940307fa_sunaizgnnplsvajzhkc.jpg,00809960620fa_sunahbvlpavurqoxdeq.jpg,,,,,,,<,Place,,,,,1,,,,,,,x
58,4,Presentation,1,00787941205fa_sunagmwxxwymwojbvgi.jpg,00090931230fa_sunaahedjlmtqekgyvj.jpg,,,,,,,<,Face,,,,,1,,,,,,,o
59,4,Presentation,1,00935960627fa_sunaqbmgkgqucajzrkp.jpg,00119931230fb_sunaakvmbftkrgqhjun.jpg,,,,,,,>,Place,,,,,1,,,,,,,x
60,4,Memory,1,,,,,,,sunaafynehyrzpsoaml.jpg,,,,,,,,,,,,,,,
61,4,Memory,1,,,,,,,sunaakqepfoeqomfgxf.jpg,,,,,,,,,,,,,,,
62,4,Memory,1,,,,,,,sunaakvmbftkrgqhjun.jpg,,,,,,,,,,,,,,,
63,4,Memory,1,,,,,,,00931960627fa.jpg,,,,,,,,,,,,,,,
64,4,Memory,1,,,,,,,sunbasypfgzjtomktmu.jpg,,,,,,,,,,,,,,,
65,4,Memory,1,,,,,,,00809960620fa.jpg,,,,,,,,,,,,,,,
66,4,Memory,1,,,,,,,sunagetqixeypsysbpn.jpg,,,,,,,,,,,,,,,
67,4,Memory,1,,,,,,,00700941121fa.jpg,,,,,,,,,,,,,,,
68,4,Memory,1,,,,,,,sunaptrqvaooxfvktvw.jpg,,,,,,,,,,,,,,,
69,4,Memory,1,,,,,,,00747941201fa.jpg,,,,,,,,,,,,,,,
70,4,Memory,1,,,,,,,00970960627fa.jpg,,,,,,,,,,,,,,,
71,4,Memory,1,,,,,,,00086931230fa.jpg,,,,,,,,,,,,,,,
72,4,Memory,1,,,,,,,sunahawfngukizslzsd.jpg,,,,,,,,,,,,,,,
73,4,Memory,1,,,,,,,00908960530fa.jpg,,,,,,,,,,,,,,,
74,4,Memory,1,,,,,,,00663941121fa.jpg,,,,,,,,,,,,,,,
75,4,Memory,1,,,,,,,00634940928fa.jpg,,,,,,,,,,,,,,,
76,4,Memory,1,,,,,,,sunaeutbrtswvsozxyk.jpg,,,,,,,,,,,,,,,
77,4,Memory,1,,,,,,,00090931230fa.jpg,,,,,,,,,,,,,,,
78,4,Memory,1,,,,,,,00780960530fa.jpg,,,,,,,,,,,,,,,
79,4,Memory,1,,,,,,,00887960530.jpg,,,,,,,,,,,,,,,
80,4,Memory,1,,,,,,,00133931230fa.jpg,,,,,,,,,,,,,,,
81,4,Memory,1,,,,,,,sunadnjjzohjhbohlwq.jpg,,,,,,,,,,,,,,,
82,4,Memory,1,,,,,,,00859940307fa.jpg,,,,,,,,,,,,,,,
83,4,Memory,1,,,,,,,sunaiycurtqsfkvcaso.jpg,,,,,,,,,,,,,,,
84,4,Memory,1,,,,,,,sunaqbmgkgqucajzrkp.jpg,,,,,,,,,,,,,,,
85,4,Memory,1,,,,,,,sunaanlwnpqndclffxt.jpg,,,,,,,,,,,,,,,
86,4,Memory,1,,,,,,,00773941201fa.jpg,,,,,,,,,,,,,,,
87,4,Memory,1,,,,,,,sunadcphrizvfpljiqt.jpg,,,,,,,,,,,,,,,
88,4,Memory,1,,,,,,,sunahbvlpavurqoxdeq.jpg,,,,,,,,,,,,,,,
89,4,Memory,1,,,,,,,00119931230fb.jpg,,,,,,,,,,,,,,,
90,4,Memory,1,,,,,,,sunafvcflzhlqloapyo.jpg,,,,,,,,,,,,,,,
91,4,Memory,1,,,,,,,sunaahedjlmtqekgyvj.jpg,,,,,,,,,,,,,,,
92,4,Memory,1,,,,,,,sunanwjjyqqwzqrqagd.jpg,,,,,,,,,,,,,,,
93,4,Memory,1,,,,,,,sunalcrtwiycqobgelp.jpg,,,,,,,,,,,,,,,
94,4,Memory,1,,,,,,,sunaaeplwsfslcbtojr.jpg,,,,,,,,,,,,,,,
95,4,Memory,1,,,,,,,sunadsgmtznewzyasnk.jpg,,,,,,,,,,,,,,,
96,4,Memory,1,,,,,,,00116931230fa.jpg,,,,,,,,,,,,,,,
97,4,Memory,1,,,,,,,00070940307fa.jpg,,,,,,,,,,,,,,,
98,4,Memory,1,,,,,,,00807941205fa.jpg,,,,,,,,,,,,,,,
99,4,Memory,1,,,,,,,00935960627fa.jpg,,,,,,,,,,,,,,,
100,4,Presentation,2,01009960627fa_sunbxzweleltykebgan.jpg,00191940128fb_sunaawsdjisukbbginm.jpg,,,,,,,>,Face,,,,,1,,,,,,,x
101,4,Presentation,2,00723941201fa_sunaedtgwjvvziytspa.jpg,01004960627fa_sunbwtlihsuptkrckid.jpg,,,,,,,>,Place,,,,,1,,,,,,,o
102,4,Presentation,2,00129931230fb_sunaamsdyakblkfoydx.jpg,00987960627fa_sunbloeoiozwjjsiamp.jpg,,,,,,,<,Place,,,,,1,,,,,,,x
103,4,Presentation,2,00902960530fa_sunanaacmmosxrfwmvl.jpg,00140931230fb_sunaapllqyqlykszopd.jpg,,,,,,,<,Face,,,,,1,,,,,,,o
104,4,Presentation,2,00647941031fa_sunadflbrkckmepztql.jpg,00742941201fa_sunaenwuebvlpdmntju.jpg,,,,,,,>,Place,,,,,1,,,,,,,o
105,4,Presentation,2,00801941205fa_sunagvprlbprarvgdvj.jpg,00540940519fa_sunacdnquypmsshhsbk.jpg,,,,,,,>,Face,,,,,0,,,,,,,x
106,4,Presentation,2,00728941205fa_sunaejnvnpltdmhbcsi.jpg,01207940128fa_sundbixjudsgeuuehrn.jpg,,,,,,,<,Face,,,,,1,,,,,,,x
107,4,Presentation,2,00266940128fb_sunabkngeblodihjvbk.jpg,00076931230fa_sunaafewhewbxmjiurz.jpg,,,,,,,>,Place,,,,,1,,,,,,,o
108,4,Presentation,2,00753941201fa_sunafcofuuzebuadceo.jpg,00791941205fa_sunagrmyoovzukhxmlo.jpg,,,,,,,<,Place,,,,,1,,,,,,,o
109,4,Presentation,2,00109931230fa_sunaajuzribjrizdshh.jpg,00305940422fa_sunabtrnbvpppgczjim.jpg,,,,,,,<,Face,,,,,1,,,,,,,o
110,4,Memory,2,,,,,,,sunbloeoiozwjjsiamp.jpg,,,,,,,,,,,,,,,
111,4,Memory,2,,,,,,,00131931230fb.jpg,,,,,,,,,,,,,,,
112,4,Memory,2,,,,,,,00540940519fa.jpg,,,,,,,,,,,,,,,
113,4,Memory,2,,,,,,,00745941205fa.jpg,,,,,,,,,,,,,,,
114,4,Memory,2,,,,,,,sunaflojskatpeqyzqp.jpg,,,,,,,,,,,,,,,
115,4,Memory,2,,,,,,,sunabkngeblodihjvbk.jpg,,,,,,,,,,,,,,,
116,4,Memory,2,,,,,,,sunaawsdjisukbbginm.jpg,,,,,,,,,,,,,,,
117,4,Memory,2,,,,,,,sunaeouogqolxvggaoq.jpg,,,,,,,,,,,,,,,
118,4,Memory,2,,,,,,,sunaofikylqtxphvdem.jpg,,,,,,,,,,,,,,,
119,4,Memory,2,,,,,,,01207940128fa.jpg,,,,,,,,,,,,,,,
120,4,Memory,2,,,,,,,sunaenwuebvlpdmntju.jpg,,,,,,,,,,,,,,,
121,4,Memory,2,,,,,,,sunagvprlbprarvgdvj.jpg,,,,,,,,,,,,,,,
122,4,Memory,2,,,,,,,00903960620fa.jpg,,,,,,,,,,,,,,,
123,4,Memory,2,,,,,,,00753941201fa.jpg,,,,,,,,,,,,,,,
124,4,Memory,2,,,,,,,sunacvjlsylseoghjup.jpg,,,,,,,,,,,,,,,
125,4,Memory,2,,,,,,,sunaedtgwjvvziytspa.jpg,,,,,,,,,,,,,,,
126,4,Memory,2,,,,,,,00910960530fa.jpg,,,,,,,,,,,,,,,
127,4,Memory,2,,,,,,,00987960627fa.jpg,,,,,,,,,,,,,,,
128,4,Memory,2,,,,,,,00925960627fa.jpg,,,,,,,,,,,,,,,
129,4,Memory,2,,,,,,,sunarpsxqkduedrrzyi.jpg,,,,,,,,,,,,,,,
130,4,Memory,2,,,,,,,sunapqwnqzxlsfvgsjm.jpg,,,,,,,,,,,,,,,
131,4,Memory,2,,,,,,,sunacdnquypmsshhsbk.jpg,,,,,,,,,,,,,,,
132,4,Memory,2,,,,,,,00770941201fa.jpg,,,,,,,,,,,,,,,
133,4,Memory,2,,,,,,,00662941121fa.jpg,,,,,,,,,,,,,,,
134,4,Memory,2,,,,,,,00723941201fa.jpg,,,,,,,,,,,,,,,
135,4,Memory,2,,,,,,,sundbixjudsgeuuehrn.jpg,,,,,,,,,,,,,,,
136,4,Memory,2,,,,,,,00191940128fb.jpg,,,,,,,,,,,,,,,
137,4,Memory,2,,,,,,,sunanainkqdvktzoxyl.jpg,,,,,,,,,,,,,,,
138,4,Memory,2,,,,,,,00801941205fa.jpg,,,,,,,,,,,,,,,
139,4,Memory,2,,,,,,,sunadkazmlajmohnwfl.jpg,,,,,,,,,,,,,,,
140,4,Memory,2,,,,,,,sunaangbuylfvckqqoo.jpg,,,,,,,,,,,,,,,
141,4,Memory,2,,,,,,,00959960627fa.jpg,,,,,,,,,,,,,,,
142,4,Memory,2,,,,,,,sunaajuzribjrizdshh.jpg,,,,,,,,,,,,,,,
143,4,Memory,2,,,,,,,00576941031fa.jpg,,,,,,,,,,,,,,,
144,4,Memory,2,,,,,,,00742941201fa.jpg,,,,,,,,,,,,,,,
145,4,Memory,2,,,,,,,sunafcofuuzebuadceo.jpg,,,,,,,,,,,,,,,
146,4,Memory,2,,,,,,,00943960627fa.jpg,,,,,,,,,,,,,,,
147,4,Memory,2,,,,,,,00266940128fb.jpg,,,,,,,,,,,,,,,
148,4,Memory,2,,,,,,,sunavxokzybtomhbmvm.jpg,,,,,,,,,,,,,,,
149,4,Memory,2,,,,,,,00109931230fa.jpg,,,,,,,,,,,,,,,
150,4,Presentation,3,00922960627fa_sunapqkyghktgtosuuk.jpg,00779941205fa_sunagdzlvkqtpnfxfcg.jpg,,,,,,,<,Face,,,,,1,,,,,,,o
151,4,Presentation,3,00185940422fb_sunaawqdbpihmlbwyyn.jpg,00126931230fb_sunaamdjwemxpmmtypi.jpg,,,,,,,>,Place,,,,,1,,,,,,,o
152,4,Presentation,3,00093931230fa_sunaahwnmtqsrhocysw.jpg,01002960627fb_sunbwaafjdebjzttuvq.jpg,,,,,,,<,Place,,,,,1,,,,,,,x
153,4,Presentation,3,00958960627fa_sunavspxmxubqaeidjt.jpg,00302940422fa_sunabtlfmiwtljmoues.jpg,,,,,,,>,Place,,,,,1,,,,,,,x
154,4,Presentation,3,00785941205fa_sunaglqunwuycxydmyu.jpg,00263940128fb_sunabjuovqvyfuzvqwt.jpg,,,,,,,>,Face,,,,,1,,,,,,,o
155,4,Presentation,3,00743941201fa_sunaeoghzrjarigmwua.jpg,00786941205fa_sunagmhildamktmqjss.jpg,,,,,,,>,Place,,,,,0,,,,,,,x
156,4,Presentation,3,00158931230fb_sunaavchcbptaerhcfy.jpg,00242940128fa_sunabcuurugvxwparpk.jpg,,,,,,,<,Face,,,,,1,,,,,,,x
157,4,Presentation,3,00947960627fa_sunasmmcxdddtmtazwx.jpg,00648941031fa_sunadfndyrtqqiasoig.jpg,,,,,,,<,Place,,,,,1,,,,,,,x
158,4,Presentation,3,00773960620fa_sunafvsxtzaizojicxx.jpg,00163931230fb_sunaavodbcpygkggnfp.jpg,,,,,,,<,Face,,,,,1,,,,,,,o
159,4,Presentation,3,00952960627fa_sunathzzbcwjykldrem.jpg,00245940128fa_sunabeyhmxodahoieyk.jpg,,,,,,,>,Face,,,,,1,,,,,,,x
160,4,Memory,3,,,,,,,sunaamdjwemxpmmtypi.jpg,,,,,,,,,,,,,,,
161,4,Memory,3,,,,,,,00779941205fa.jpg,,,,,,,,,,,,,,,
162,4,Memory,3,,,,,,,sunaglqunwuycxydmyu.jpg,,,,,,,,,,,,,,,
163,4,Memory,3,,,,,,,sunaavjinpnkappuonm.jpg,,,,,,,,,,,,,,,
164,4,Memory,3,,,,,,,sunahrltmuwbiehihpe.jpg,,,,,,,,,,,,,,,
165,4,Memory,3,,,,,,,sunagjzcrjvmxzqzljx.jpg,,,,,,,,,,,,,,,
166,4,Memory,3,,,,,,,00804960530fa.jpg,,,,,,,,,,,,,,,
167,4,Memory,3,,,,,,,sunafvsxtzaizojicxx.jpg,,,,,,,,,,,,,,,
168,4,Memory,3,,,,,,,00063931230fa.jpg,,,,,,,,,,,,,,,
169,4,Memory,3,,,,,,,sunaalcrrdbjgdztbiz.jpg,,,,,,,,,,,,,,,
170,4,Memory,3,,,,,,,00302940422fa.jpg,,,,,,,,,,,,,,,
171,4,Memory,3,,,,,,,sunaawqdbpihmlbwyyn.jpg,,,,,,,,,,,,,,,
172,4,Memory,3,,,,,,,00163931230fb.jpg,,,,,,,,,,,,,,,
173,4,Memory,3,,,,,,,00185940422fb.jpg,,,,,,,,,,,,,,,
174,4,Memory,3,,,,,,,00960960627fa.jpg,,,,,,,,,,,,,,,
175,4,Memory,3,,,,,,,sunaaelyvurpntclgau.jpg,,,,,,,,,,,,,,,
176,4,Memory,3,,,,,,,00785941205fa.jpg,,,,,,,,,,,,,,,
177,4,Memory,3,,,,,,,sunabjuovqvyfuzvqwt.jpg,,,,,,,,,,,,,,,
178,4,Memory,3,,,,,,,00071941031fa.jpg,,,,,,,,,,,,,,,
179,4,Memory,3,,,,,,,sunaaexqbtdswxrqjvz.jpg,,,,,,,,,,,,,,,
180,4,Memory,3,,,,,,,00162931230fb.jpg,,,,,,,,,,,,,,,
181,4,Memory,3,,,,,,,00997960627fa.jpg,,,,,,,,,,,,,,,
182,4,Memory,3,,,,,,,sunbtpilbhhbmhmeuzq.jpg,,,,,,,,,,,,,,,
183,4,Memory,3,,,,,,,sunawksfbacycuhbrsc.jpg,,,,,,,,,,,,,,,
184,4,Memory,3,,,,,,,00123931230fb.jpg,,,,,,,,,,,,,,,
185,4,Memory,3,,,,,,,00784941205fb.jpg,,,,,,,,,,,,,,,
186,4,Memory,3,,,,,,,sunathzzbcwjykldrem.jpg,,,,,,,,,,,,,,,
187,4,Memory,3,,,,,,,sunagdzlvkqtpnfxfcg.jpg,,,,,,,,,,,,,,,
188,4,Memory,3,,,,,,,sunabtlfmiwtljmoues.jpg,,,,,,,,,,,,,,,
189,4,Memory,3,,,,,,,00811960530fa.jpg,,,,,,,,,,,,,,,
190,4,Memory,3,,,,,,,sunaavodbcpygkggnfp.jpg,,,,,,,,,,,,,,,
191,4,Memory,3,,,,,,,00743941201fa.jpg,,,,,,,,,,,,,,,
192,4,Memory,3,,,,,,,00773960620fa.jpg,,,,,,,,,,,,,,,
193,4,Memory,3,,,,,,,00126931230fb.jpg,,,,,,,,,,,,,,,
194,4,Memory,3,,,,,,,00263940128fb.jpg,,,,,,,,,,,,,,,
195,4,Memory,3,,,,,,,sunagwswhkvnsmuszlz.jpg,,,,,,,,,,,,,,,
196,4,Memory,3,,,,,,,sunahedfrhtcwpneund.jpg,,,,,,,,,,,,,,,
197,4,Memory,3,,,,,,,sunaeoghzrjarigmwua.jpg,,,,,,,,,,,,,,,
198,4,Memory,3,,,,,,,00952960627fa.jpg,,,,,,,,,,,,,,,
199,4,Memory,3,,,,,,,00825940307fa.jpg,,,,,,,,,,,,,,,
200,4,Presentation,4,00894960620fa_sunalqmfgeadpqsyzpd.jpg,00937960627fa_sunaqsolmfydodnakub.jpg,,,,,,,>,Place,,,,,1,,,,,,,x
201,4,Presentation,4,00882960530fa_sunaknlirqjqiwbbeeg.jpg,00766960620fa_sunafijbgncijwykrnl.jpg,,,,,,,<,Face,,,,,1,,,,,,,x
202,4,Presentation,4,00138931230fa_sunaapfaivxqoynnwwp.jpg,00914960620fa_sunaozisvwfbmlkfhzv.jpg,,,,,,,<,Place,,,,,1,,,,,,,o
203,4,Presentation,4,00676941121fa_sunadpnqovzckyikrjo.jpg,00149931230fa_sunaauglwmctnkxyird.jpg,,,,,,,>,Place,,,,,1,,,,,,,o
204,4,Presentation,4,00280940422fb_sunabohxbskznglnrhv.jpg,00760960620fa_sunaffstbkappprzxnv.jpg,,,,,,,<,Place,,,,,1,,,,,,,o
205,4,Presentation,4,00754941201fa_sunaffgsyyvoqdlkmnk.jpg,00944960627fa_sunasbbntuiheekqyaq.jpg,,,,,,,>,Face,,,,,1,,,,,,,x
206,4,Presentation,4,00727941205fa_sunaeisnjeetzmkbuad.jpg,00507940519fa_sunacacflqoyxhsqzhe.jpg,,,,,,,<,Face,,,,,1,,,,,,,x
207,4,Presentation,4,00153931230fa_sunaauhozyxzeeqstxi.jpg,00921960627fa_sunapqkpqdfvxlbqwyo.jpg,,,,,,,>,Face,,,,,1,,,,,,,x
208,4,Presentation,4,00147931230fb_sunaatpkocdkocwxpkb.jpg,00719960620fa_sunadzuvtmtmgupotmf.jpg,,,,,,,<,Place,,,,,1,,,,,,,x
209,4,Presentation,4,00901960530fa_sunammbnoambmhdxdwd.jpg,00749941201fa_sunaeuvjbmdpknaqqaj.jpg,,,,,,,>,Face,,,,,1,,,,,,,x
210,4,Memory,4,,,,,,,sunbmaiocftdtvnzgap.jpg,,,,,,,,,,,,,,,
211,4,Memory,4,,,,,,,sunadzuvtmtmgupotmf.jpg,,,,,,,,,,,,,,,
212,4,Memory,4,,,,,,,00937960627fa.jpg,,,,,,,,,,,,,,,
213,4,Memory,4,,,,,,,00882960530fa.jpg,,,,,,,,,,,,,,,
214,4,Memory,4,,,,,,,00264940128fb.jpg,,,,,,,,,,,,,,,
215,4,Memory,4,,,,,,,00214940128fa.jpg,,,,,,,,,,,,,,,
216,4,Memory,4,,,,,,,00749941201fa.jpg,,,,,,,,,,,,,,,
217,4,Memory,4,,,,,,,00901960530fa.jpg,,,,,,,,,,,,,,,
218,4,Memory,4,,,,,,,sunabbafjowbzcvbucc.jpg,,,,,,,,,,,,,,,
219,4,Memory,4,,,,,,,00746941201fa.jpg,,,,,,,,,,,,,,,
220,4,Memory,4,,,,,,,00754941201fa.jpg,,,,,,,,,,,,,,,
221,4,Memory,4,,,,,,,00111931230fb.jpg,,,,,,,,,,,,,,,
222,4,Memory,4,,,,,,,00153931230fa.jpg,,,,,,,,,,,,,,,
223,4,Memory,4,,,,,,,sunaaiqiqcggrskoqgy.jpg,,,,,,,,,,,,,,,
224,4,Memory,4,,,,,,,sunaakgekhjklxmvulj.jpg,,,,,,,,,,,,,,,
225,4,Memory,4,,,,,,,sunabohxbskznglnrhv.jpg,,,,,,,,,,,,,,,
226,4,Memory,4,,,,,,,sunacvzhvcksnwqcqbw.jpg,,,,,,,,,,,,,,,
227,4,Memory,4,,,,,,,sunaaexpnawiehinlpy.jpg,,,,,,,,,,,,,,,
228,4,Memory,4,,,,,,,00988960627fa.jpg,,,,,,,,,,,,,,,
229,4,Memory,4,,,,,,,sunabjzyxcjnmztdonj.jpg,,,,,,,,,,,,,,,
230,4,Memory,4,,,,,,,00921960627fa.jpg,,,,,,,,,,,,,,,
231,4,Memory,4,,,,,,,sunaauhozyxzeeqstxi.jpg,,,,,,,,,,,,,,,
232,4,Memory,4,,,,,,,00149931230fa.jpg,,,,,,,,,,,,,,,
233,4,Memory,4,,,,,,,00096931230fa.jpg,,,,,,,,,,,,,,,
234,4,Memory,4,,,,,,,sunammbnoambmhdxdwd.jpg,,,,,,,,,,,,,,,
235,4,Memory,4,,,,,,,sunaobtizabegtwfwul.jpg,,,,,,,,,,,,,,,
236,4,Memory,4,,,,,,,00280940422fb.jpg,,,,,,,,,,,,,,,
237,4,Memory,4,,,,,,,00719960620fa.jpg,,,,,,,,,,,,,,,
238,4,Memory,4,,,,,,,sunabqowuarvqqcnipn.jpg,,,,,,,,,,,,,,,
239,4,Memory,4,,,,,,,sunaetydippjxikifsb.jpg,,,,,,,,,,,,,,,
240,4,Memory,4,,,,,,,sunapqkpqdfvxlbqwyo.jpg,,,,,,,,,,,,,,,
241,4,Memory,4,,,,,,,00290940422fa.jpg,,,,,,,,,,,,,,,
242,4,Memory,4,,,,,,,00071940128fa.jpg,,,,,,,,,,,,,,,
243,4,Memory,4,,,,,,,00909960530.jpg,,,,,,,,,,,,,,,
244,4,Memory,4,,,,,,,sunaauglwmctnkxyird.jpg,,,,,,,,,,,,,,,
245,4,Memory,4,,,,,,,sunaknlirqjqiwbbeeg.jpg,,,,,,,,,,,,,,,
246,4,Memory,4,,,,,,,sunaqsolmfydodnakub.jpg,,,,,,,,,,,,,,,
247,4,Memory,4,,,,,,,sunaeuvjbmdpknaqqaj.jpg,,,,,,,,,,,,,,,
248,4,Memory,4,,,,,,,00581940928fa.jpg,,,,,,,,,,,,,,,
249,4,Memory,4,,,,,,,sunaffgsyyvoqdlkmnk.jpg,,,,,,,,,,,,,,,
250,4,Presentation,5,00996960627fa_sunbpvgllfdejxcpjqp.jpg,00763941205fa_sunafhmnhsdurlvddpw.jpg,,,,,,,>,Face,,,,,1,,,,,,,x
251,4,Presentation,5,01010960627fa_suncnkvbhypnivcohyx.jpg,00906960530fa_sunantryfbloeaomfta.jpg,,,,,,,<,Face,,,,,1,,,,,,,x
252,4,Presentation,5,00938960627fa_sunaqyylsngywqzwfmx.jpg,00751960620fa_sunaezuszgtxnmsxdbk.jpg,,,,,,,>,Face,,,,,1,,,,,,,x
253,4,Presentation,5,00971960627fa_sunbbegcweqnetpdlrh.jpg,00125931230fa_sunaalltyvjhbzhkmvg.jpg,,,,,,,<,Place,,,,,1,,,,,,,o
254,4,Presentation,5,00719941201fa_sunadvithllcgmfxsrn.jpg,00836940307fa_sunainqelldeebvxtcz.jpg,,,,,,,>,Place,,,,,1,,,,,,,o
255,4,Presentation,5,00984960627fa_sunbfzchmomnvzhbxdg.jpg,00694941121fa_sunadrmfzmstgdjdcod.jpg,,,,,,,<,Place,,,,,1,,,,,,,o
256,4,Presentation,5,00870940307fa_sunajrgtewnualfcerj.jpg,00262940128fa_sunabizydfotqddlnjp.jpg,,,,,,,>,Place,,,,,1,,,,,,,o
257,4,Presentation,5,00548940519fa_sunacerqowiaeoqkmsq.jpg,00065931230fb_sunaaemixhfquhnxxlm.jpg,,,,,,,>,Face,,,,,0,,,,,,,o
258,4,Presentation,5,00482940519fa_sunabyfxcxhdebvdyfd.jpg,00949960627fb_sunasnqkkyhilqkxiqm.jpg,,,,,,,<,Place,,,,,1,,,,,,,x
259,4,Presentation,5,00841940307fa_sunaisiwfgppimtnmxl.jpg,00479940519fa_sunabxsbfwjccqxxzxq.jpg,,,,,,,<,Face,,,,,1,,,,,,,x
260,4,Memory,5,,,,,,,sunbpvgllfdejxcpjqp.jpg,,,,,,,,,,,,,,,
261,4,Memory,5,,,,,,,00705941205fa.jpg,,,,,,,,,,,,,,,
262,4,Memory,5,,,,,,,suncnkvbhypnivcohyx.jpg,,,,,,,,,,,,,,,
263,4,Memory,5,,,,,,,sunaqyylsngywqzwfmx.jpg,,,,,,,,,,,,,,,
264,4,Memory,5,,,,,,,00198940128fb.jpg,,,,,,,,,,,,,,,
265,4,Memory,5,,,,,,,sunantryfbloeaomfta.jpg,,,,,,,,,,,,,,,
266,4,Memory,5,,,,,,,00144931230fb.jpg,,,,,,,,,,,,,,,
267,4,Memory,5,,,,,,,00996960627fa.jpg,,,,,,,,,,,,,,,
268,4,Memory,5,,,,,,,sunaefgzwiramypjvtd.jpg,,,,,,,,,,,,,,,
269,4,Memory,5,,,,,,,sunahqrxievfeusiqlt.jpg,,,,,,,,,,,,,,,
270,4,Memory,5,,,,,,,sunabizydfotqddlnjp.jpg,,,,,,,,,,,,,,,
271,4,Memory,5,,,,,,,00936960627fa.jpg,,,,,,,,,,,,,,,
272,4,Memory,5,,,,,,,sunafvwfsmqkjrutjta.jpg,,,,,,,,,,,,,,,
273,4,Memory,5,,,,,,,00938960627fa.jpg,,,,,,,,,,,,,,,
274,4,Memory,5,,,,,,,00906960530fa.jpg,,,,,,,,,,,,,,,
275,4,Memory,5,,,,,,,sunacypmnujalygkunp.jpg,,,,,,,,,,,,,,,
276,4,Memory,5,,,,,,,sunadtlxenqqxsyjvix.jpg,,,,,,,,,,,,,,,
277,4,Memory,5,,,,,,,00822940307fa.jpg,,,,,,,,,,,,,,,
278,4,Memory,5,,,,,,,00719941201fa.jpg,,,,,,,,,,,,,,,
279,4,Memory,5,,,,,,,sunadvithllcgmfxsrn.jpg,,,,,,,,,,,,,,,
280,4,Memory,5,,,,,,,00775941205fa.jpg,,,,,,,,,,,,,,,
281,4,Memory,5,,,,,,,00127931230fa.jpg,,,,,,,,,,,,,,,
282,4,Memory,5,,,,,,,sunasnqkkyhilqkxiqm.jpg,,,,,,,,,,,,,,,
283,4,Memory,5,,,,,,,sunaazezcsunmhttzxz.jpg,,,,,,,,,,,,,,,
284,4,Memory,5,,,,,,,sunaqgjuuwvdcyiccjt.jpg,,,,,,,,,,,,,,,
285,4,Memory,5,,,,,,,00554940519fa.jpg,,,,,,,,,,,,,,,
286,4,Memory,5,,,,,,,01010960627fa.jpg,,,,,,,,,,,,,,,
287,4,Memory,5,,,,,,,sunacfdkbsrughwqwtt.jpg,,,,,,,,,,,,,,,
288,4,Memory,5,,,,,,,00262940128fa.jpg,,,,,,,,,,,,,,,
289,4,Memory,5,,,,,,,sunaalltyvjhbzhkmvg.jpg,,,,,,,,,,,,,,,
290,4,Memory,5,,,,,,,sunaathajvxrgptwhoj.jpg,,,,,,,,,,,,,,,
291,4,Memory,5,,,,,,,00949960627fb.jpg,,,,,,,,,,,,,,,
292,4,Memory,5,,,,,,,00725941201fa.jpg,,,,,,,,,,,,,,,
293,4,Memory,5,,,,,,,00620940928fa.jpg,,,,,,,,,,,,,,,
294,4,Memory,5,,,,,,,00125931230fa.jpg,,,,,,,,,,,,,,,
295,4,Memory,5,,,,,,,sunajrgtewnualfcerj.jpg,,,,,,,,,,,,,,,
296,4,Memory,5,,,,,,,sunaampvucecsfbdafn.jpg,,,,,,,,,,,,,,,
297,4,Memory,5,,,,,,,sunafhmnhsdurlvddpw.jpg,,,,,,,,,,,,,,,
298,4,Memory,5,,,,,,,00763941205fa.jpg,,,,,,,,,,,,,,,
299,4,Memory,5,,,,,,,00870940307fa.jpg,,,,,,,,,,,,,,,
300,4,Presentation,6,00828940307fa_sunahuynahneraqftyz.jpg,00961960627fa_sunawotxrevnqvamsfp.jpg,,,,,,,>,Place,,,,,1,,,,,,,o
301,4,Presentation,6,00829940307fa_sunahwgbqkqcrwprgvh.jpg,00136931230fb_sunaanptmsknhirrzed.jpg,,,,,,,<,Place,,,,,0,,,,,,,x
302,4,Presentation,6,00869940307fa_sunajoveqhiprwqgoco.jpg,00913960530fa_sunaooffzffbhcpirmm.jpg,,,,,,,>,Face,,,,,1,,,,,,,x
303,4,Presentation,6,00789960620fa_sunagpancjmxqfazssf.jpg,00097931230fa_sunaajayojuslbbnneg.jpg,,,,,,,<,Face,,,,,1,,,,,,,x
304,4,Presentation,6,00874940307fa_sunajtrfunvzdfticna.jpg,00963960627fa_sunayaepykrqvenaqqy.jpg,,,,,,,>,Face,,,,,1,,,,,,,x
305,4,Presentation,6,00227940128fa_sunabckqabszusgcykj.jpg,00313940422fa_sunabwjvmoaddlyxfjr.jpg,,,,,,,<,Place,,,,,1,,,,,,,x
306,4,Presentation,6,00102931230fa_sunaajspcoepticvplv.jpg,00636941031fa_sunaddtdkycxbqlpfqa.jpg,,,,,,,<,Face,,,,,1,,,,,,,o
307,4,Presentation,6,00132931230fb_sunaanjcbzdvtvblsdy.jpg,00308940422fb_sunabwfvcqqidycwypa.jpg,,,,,,,>,Place,,,,,1,,,,,,,o
308,4,Presentation,6,00124931230fa_sunaalhlvzmjmitybdn.jpg,00983960627fa_sunbfyvfqiimvdaxlqn.jpg,,,,,,,<,Face,,,,,0,,,,,,,o
309,4,Presentation,6,00069931230fb_sunaaeowapdkwzqpgqr.jpg,00089931230fa_sunaagcpoejbuzyvddd.jpg,,,,,,,>,Place,,,,,1,,,,,,,x
310,4,Memory,6,,,,,,,00827940307fa.jpg,,,,,,,,,,,,,,,
311,4,Memory,6,,,,,,,sunabrlndkruqokhury.jpg,,,,,,,,,,,,,,,
312,4,Memory,6,,,,,,,00792941205fa.jpg,,,,,,,,,,,,,,,
313,4,Memory,6,,,,,,,sunaanjcbzdvtvblsdy.jpg,,,,,,,,,,,,,,,
314,4,Memory,6,,,,,,,sunaalhlvzmjmitybdn.jpg,,,,,,,,,,,,,,,
315,4,Memory,6,,,,,,,sunaanptmsknhirrzed.jpg,,,,,,,,,,,,,,,
316,4,Memory,6,,,,,,,00963960627fa.jpg,,,,,,,,,,,,,,,
317,4,Memory,6,,,,,,,00999960627fa.jpg,,,,,,,,,,,,,,,
318,4,Memory,6,,,,,,,sunaagcpoejbuzyvddd.jpg,,,,,,,,,,,,,,,
319,4,Memory,6,,,,,,,00132931230fb.jpg,,,,,,,,,,,,,,,
320,4,Memory,6,,,,,,,sunahgtbwgsmtqeodwh.jpg,,,,,,,,,,,,,,,
321,4,Memory,6,,,,,,,sunaecpkgfewqqreqwe.jpg,,,,,,,,,,,,,,,
322,4,Memory,6,,,,,,,sunagtjwilqjvxohypn.jpg,,,,,,,,,,,,,,,
323,4,Memory,6,,,,,,,sunbvbrvgbpanfrawft.jpg,,,,,,,,,,,,,,,
324,4,Memory,6,,,,,,,00308940422fb.jpg,,,,,,,,,,,,,,,
325,4,Memory,6,,,,,,,00294940422fb.jpg,,,,,,,,,,,,,,,
326,4,Memory,6,,,,,,,sunabwfvcqqidycwypa.jpg,,,,,,,,,,,,,,,
327,4,Memory,6,,,,,,,00589940928fa.jpg,,,,,,,,,,,,,,,
328,4,Memory,6,,,,,,,sunagsiwrmuixqgdimb.jpg,,,,,,,,,,,,,,,
329,4,Memory,6,,,,,,,sunbbgtoeuzierkkajt.jpg,,,,,,,,,,,,,,,
330,4,Memory,6,,,,,,,00089931230fa.jpg,,,,,,,,,,,,,,,
331,4,Memory,6,,,,,,,00136931230fb.jpg,,,,,,,,,,,,,,,
332,4,Memory,6,,,,,,,00124931230fa.jpg,,,,,,,,,,,,,,,
333,4,Memory,6,,,,,,,00983960627fa.jpg,,,,,,,,,,,,,,,
334,4,Memory,6,,,,,,,00720960620fa.jpg,,,,,,,,,,,,,,,
335,4,Memory,6,,,,,,,sunayaepykrqvenaqqy.jpg,,,,,,,,,,,,,,,
336,4,Memory,6,,,,,,,sunahtfxgsrmkiulnwk.jpg,,,,,,,,,,,,,,,
337,4,Memory,6,,,,,,,00108960530fa.jpg,,,,,,,,,,,,,,,
338,4,Memory,6,,,,,,,sunbfyvfqiimvdaxlqn.jpg,,,,,,,,,,,,,,,
339,4,Memory,6,,,,,,,00869940307fa.jpg,,,,,,,,,,,,,,,
340,4,Memory,6,,,,,,,00793941205fa.jpg,,,,,,,,,,,,,,,
341,4,Memory,6,,,,,,,00973960627fa.jpg,,,,,,,,,,,,,,,
342,4,Memory,6,,,,,,,00812941205fa.jpg,,,,,,,,,,,,,,,
343,4,Memory,6,,,,,,,sunacwggadqsfpovdjv.jpg,,,,,,,,,,,,,,,
344,4,Memory,6,,,,,,,sunaajtnvzzpsjdzres.jpg,,,,,,,,,,,,,,,
345,4,Memory,6,,,,,,,sunajoveqhiprwqgoco.jpg,,,,,,,,,,,,,,,
346,4,Memory,6,,,,,,,sunagpancjmxqfazssf.jpg,,,,,,,,,,,,,,,
347,4,Memory,6,,,,,,,00102931230fa.jpg,,,,,,,,,,,,,,,
348,4,Memory,6,,,,,,,00789960620fa.jpg,,,,,,,,,,,,,,,
349,4,Memory,6,,,,,,,sunaajspcoepticvplv.jpg,,,,,,,,,,,,,,,
350,4,Presentation,7,00209940128fb_sunabaergayifsgacxt.jpg,00777941205fa_sunagcinxkccdtrjmlv.jpg,,,,,,,<,Place,,,,,1,,,,,,,x
351,4,Presentation,7,00532960627fa_sunaccdtpgenvcbcbcf.jpg,00858940307fa_sunaixpqndlwhwjtjek.jpg,,,,,,,>,Face,,,,,1,,,,,,,x
352,4,Presentation,7,00796941205fa_sunaguchqqnrtodtezq.jpg,00768941205fa_sunafkmnlytenlsywia.jpg,,,,,,,<,Place,,,,,1,,,,,,,o
353,4,Presentation,7,00498960627fa_sunabzjxlmkwnwzimua.jpg,00805941205fa_sunagwzdbtlixdhgolm.jpg,,,,,,,<,Face,,,,,1,,,,,,,o
354,4,Presentation,7,00788941205fa_sunagountlxpzkytsmp.jpg,00884960530fa_sunakodkcslgqhqlgwl.jpg,,,,,,,>,Place,,,,,1,,,,,,,o
355,4,Presentation,7,00977960627fa_sunbbxkanhzjgbwyxqs.jpg,00194940128fb_sunaayehfdqcyxggsej.jpg,,,,,,,>,Face,,,,,1,,,,,,,o
356,4,Presentation,7,00631940928fa_sunadbdqzigzwipuipr.jpg,00741941201fa_sunaemcowdozyphwknd.jpg,,,,,,,<,Face,,,,,1,,,,,,,x
357,4,Presentation,7,00800941205fb_sunagvjurcwdbixvnyi.jpg,01011960627fa_sundahdxwmcdluscvot.jpg,,,,,,,>,Face,,,,,1,,,,,,,o
358,4,Presentation,7,00543940519fa_sunacepzfrmtkiqonpy.jpg,00101931230fb_sunaajqmsaavkmgbsth.jpg,,,,,,,<,Place,,,,,1,,,,,,,o
359,4,Presentation,7,00989960627fa_sunbondbduabvijnmch.jpg,00221940128fa_sunabcfpwlpolnutyju.jpg,,,,,,,>,Place,,,,,1,,,,,,,o
360,4,Memory,7,,,,,,,sunasrjlmglmjzbmqxb.jpg,,,,,,,,,,,,,,,
361,4,Memory,7,,,,,,,sunaekgzpfilgjxpeyq.jpg,,,,,,,,,,,,,,,
362,4,Memory,7,,,,,,,00796941205fa.jpg,,,,,,,,,,,,,,,
363,4,Memory,7,,,,,,,00209940128fb.jpg,,,,,,,,,,,,,,,
364,4,Memory,7,,,,,,,00950960627fa.jpg,,,,,,,,,,,,,,,
365,4,Memory,7,,,,,,,00221940128fa.jpg,,,,,,,,,,,,,,,
366,4,Memory,7,,,,,,,00868960307fa.jpg,,,,,,,,,,,,,,,
367,4,Memory,7,,,,,,,00797960620fa.jpg,,,,,,,,,,,,,,,
368,4,Memory,7,,,,,,,sunakwlvxjpddialozd.jpg,,,,,,,,,,,,,,,
369,4,Memory,7,,,,,,,00957960627fa.jpg,,,,,,,,,,,,,,,
370,4,Memory,7,,,,,,,sunbbxkanhzjgbwyxqs.jpg,,,,,,,,,,,,,,,
371,4,Memory,7,,,,,,,00741941201fa.jpg,,,,,,,,,,,,,,,
372,4,Memory,7,,,,,,,sunabcfpwlpolnutyju.jpg,,,,,,,,,,,,,,,
373,4,Memory,7,,,,,,,sunagwzdbtlixdhgolm.jpg,,,,,,,,,,,,,,,
374,4,Memory,7,,,,,,,00154931230fa.jpg,,,,,,,,,,,,,,,
375,4,Memory,7,,,,,,,00885960530fa.jpg,,,,,,,,,,,,,,,
376,4,Memory,7,,,,,,,00800941205fb.jpg,,,,,,,,,,,,,,,
377,4,Memory,7,,,,,,,sunagufzbeteqdjxais.jpg,,,,,,,,,,,,,,,
378,4,Memory,7,,,,,,,sunafkmnlytenlsywia.jpg,,,,,,,,,,,,,,,
379,4,Memory,7,,,,,,,00884960530fa.jpg,,,,,,,,,,,,,,,
380,4,Memory,7,,,,,,,sunbaejotfklekvpxcz.jpg,,,,,,,,,,,,,,,
381,4,Memory,7,,,,,,,00730960620fa.jpg,,,,,,,,,,,,,,,
382,4,Memory,7,,,,,,,sunajjxttslobudoqbv.jpg,,,,,,,,,,,,,,,
383,4,Memory,7,,,,,,,00670941121fa.jpg,,,,,,,,,,,,,,,
384,4,Memory,7,,,,,,,sunabaergayifsgacxt.jpg,,,,,,,,,,,,,,,
385,4,Memory,7,,,,,,,00839940307fa.jpg,,,,,,,,,,,,,,,
386,4,Memory,7,,,,,,,00532960627fa.jpg,,,,,,,,,,,,,,,
387,4,Memory,7,,,,,,,00967960627fa.jpg,,,,,,,,,,,,,,,
388,4,Memory,7,,,,,,,sunaemcowdozyphwknd.jpg,,,,,,,,,,,,,,,
389,4,Memory,7,,,,,,,sunadochqcucscehsgk.jpg,,,,,,,,,,,,,,,
390,4,Memory,7,,,,,,,sunagvjurcwdbixvnyi.jpg,,,,,,,,,,,,,,,
391,4,Memory,7,,,,,,,00768941205fa.jpg,,,,,,,,,,,,,,,
392,4,Memory,7,,,,,,,00977960627fa.jpg,,,,,,,,,,,,,,,
393,4,Memory,7,,,,,,,00805941205fa.jpg,,,,,,,,,,,,,,,
394,4,Memory,7,,,,,,,sunaauueuhhvklldjik.jpg,,,,,,,,,,,,,,,
395,4,Memory,7,,,,,,,sunaccdtpgenvcbcbcf.jpg,,,,,,,,,,,,,,,
396,4,Memory,7,,,,,,,sunakodkcslgqhqlgwl.jpg,,,,,,,,,,,,,,,
397,4,Memory,7,,,,,,,sunaipyohrqlwngaqif.jpg,,,,,,,,,,,,,,,
398,4,Memory,7,,,,,,,sunavhxgmgrqsaptynb.jpg,,,,,,,,,,,,,,,
399,4,Memory,7,,,,,,,sunaguchqqnrtodtezq.jpg,,,,,,,,,,,,,,,
