,Subject,Trial Type,Run,Cued Composite,Uncued Composite,Cued Face,Cued Place,Uncued Face,Uncued Place,Memory Image,Category,Cued Side,Cued Category,Attention Reaction Time (s),Familiarity Reaction Time (s),Familiarity Rating,Attention Level,Cue Validity,Post Invalid Cue,Pre Invalid Cue,Attention Button,Rating History,Stimulus Onset,Stimulus End,Attention Probe
160,36,Memory,3,,,,,,,00790941205fa.jpg,,,,,1.42,2.0,,,,,,,1540406866.460319,1540406868.658843,
161,36,Memory,3,,,,,,,sunagtjwilqjvxohypn.jpg,,,,,1.407,1.0,,,,,,,1540406869.961729,1540406872.167345,
162,36,Memory,3,,,,,,,sunaathajvxrgptwhoj.jpg,,,,,1.298,1.0,,,,,,,1540406873.464373,1540406875.601601,
163,36,Memory,3,,,,,,,00979960627fa.jpg,,,,,1.64,2.0,,,,,,,1540406876.879958,1540406879.077406,
164,36,Memory,3,,,,,,,sunahiphsekjihkafsl.jpg,,,,,1.324,3.0,,,,,,,1540406880.348804,1540406882.611787,
165,36,Memory,3,,,,,,,00793941205fa.jpg,,,,,1.908,3.0,,,,,,,1540406883.862749,1540406886.065479,
166,36,Memory,3,,,,,,,00891960530fa.jpg,,,,,1.576,1.0,,,,,,,1540406887.351556,1540406889.713931,
167,36,Memory,3,,,,,,,00892960530fa.jpg,,,,,1.009,1.0,,,,,,,1540406891.035612,1540406893.348335,
168,36,Memory,3,,,,,,,sunaahzooisqkwlxwoz.jpg,,,,,1.336,1.0,,,,,,,1540406894.620489,1540406896.934289,
169,36,Memory,3,,,,,,,sunaddtdkycxbqlpfqa.jpg,,,,,1.275,4.0,,,,,,,1540406898.205316,1540406900.384766,
170,36,Memory,3,,,,,,,00730960620fa.jpg,,,,,1.575,2.0,,,,,,,1540406901.672314,1540406904.019763,
171,36,Memory,3,,,,,,,00077931230fb.jpg,,,,,1.024,3.0,,,,,,,1540406905.30759,1540406907.555322,
172,36,Memory,3,,,,,,,sunaawsdjisukbbginm.jpg,,,,,1.192,3.0,,,,,,,1540406908.807711,1540406911.004942,
173,36,Memory,3,,,,,,,sunabueyoajufbkraki.jpg,,,,,0.774,1.0,,,,,,,1540406912.277059,1540406914.655757,
174,36,Memory,3,,,,,,,00815941205fa.jpg,,,,,0.919,1.0,,,,,,,1540406915.927316,1540406918.057683,
175,36,Memory,3,,,,,,,00306940422fa.jpg,,,,,0.731,1.0,,,,,,,1540406919.311271,1540406921.295001,
176,36,Memory,3,,,,,,,00191940128fb.jpg,,,,,1.214,1.0,,,,,,,1540406922.541697,1540406924.526275,
177,36,Memory,3,,,,,,,sunafvtpfczkzopbgue.jpg,,,,,1.503,1.0,,,,,,,1540406925.793086,1540406927.778249,
178,36,Memory,3,,,,,,,00060931230fa.jpg,,,,,1.653,2.0,,,,,,,1540406929.027117,1540406931.014428,
179,36,Memory,3,,,,,,,sunadqmjrhfjyuzyvdd.jpg,,,,,1.086,2.0,,,,,,,1540406932.30036,1540406934.282957,
180,36,Memory,3,,,,,,,sunalntxqqadigcletd.jpg,,,,,1.687,1.0,,,,,,,1540406935.546239,1540406937.531327,
181,36,Memory,3,,,,,,,00681941121fa.jpg,,,,,1.85,2.0,,,,,,,1540406938.797996,1540406940.782066,
182,36,Memory,3,,,,,,,sunagpjzsbltchlwvou.jpg,,,,,1.933,1.0,,,,,,,1540406942.037449,1540406944.014841,
183,36,Memory,3,,,,,,,00095931230fa.jpg,,,,,1.203,4.0,,,,,,,1540406945.287589,1540406947.267005,
184,36,Memory,3,,,,,,,00636941031fa.jpg,,,,,1.602,3.0,,,,,,,1540406948.521354,1540406950.50569,
185,36,Memory,3,,,,,,,sunaakmxzhuceuiryah.jpg,,,,,1.538,1.0,,,,,,,1540406951.768617,1540406953.752684,
186,36,Memory,3,,,,,,,00146960620fb.jpg,,,,,1.586,3.0,,,,,,,1540406955.006362,1540406956.987206,
187,36,Memory,3,,,,,,,sunaaehaikpckyjsety.jpg,,,,,0.913,1.0,,,,,,,1540406958.253378,1540406960.289596,
188,36,Memory,3,,,,,,,sunaahwnmtqsrhocysw.jpg,,,,,1.482,3.0,,,,,,,1540406961.554599,1540406963.5389,
189,36,Memory,3,,,,,,,00774941201fa.jpg,,,,,1.934,3.0,,,,,,,1540406964.789193,1540406966.777859,
190,36,Memory,3,,,,,,,sunaatpeezlljqaxlhj.jpg,,,,,1.466,1.0,,,,,,,1540406968.045781,1540406970.02473,
191,36,Memory,3,,,,,,,00986960627fa.jpg,,,,,1.368,1.0,,,,,,,1540406971.295986,1540406973.279764,
192,36,Memory,3,,,,,,,sunalkiibhqpxfamlll.jpg,,,,,1.134,2.0,,,,,,,1540406974.558541,1540406976.542163,
193,36,Memory,3,,,,,,,sunbdycacjfaujxitbw.jpg,,,,,1.052,1.0,,,,,,,1540406977.810131,1540406979.794769,
194,36,Memory,3,,,,,,,00115931230fa.jpg,,,,,1.186,1.0,,,,,,,1540406981.060403,1540406983.045398,
195,36,Memory,3,,,,,,,00093931230fa.jpg,,,,,1.153,3.0,,,,,,,1540406984.317046,1540406986.295591,
196,36,Memory,3,,,,,,,sunaafgqutfaishsxyu.jpg,,,,,1.185,2.0,,,,,,,1540406987.546623,1540406989.530782,
197,36,Memory,3,,,,,,,sunaekgzpfilgjxpeyq.jpg,,,,,1.254,1.0,,,,,,,1540406990.78629,1540406992.765594,
198,36,Memory,3,,,,,,,sunbgzjryivyczuvkvm.jpg,,,,,1.215,1.0,,,,,,,1540406994.120417,1540406996.099247,
199,36,Memory,3,,,,,,,00144931230fb.jpg,,,,,1.25,2.0,,,,,,,1540406997.354937,1540406999.334483,
