,Subject,Trial Type,Run,Cued Composite,Uncued Composite,Cued Face,Cued Place,Uncued Face,Uncued Place,Memory Image,Category,Cued Side,Cued Category,Attention Reaction Time (s),Familiarity Reaction Time (s),Familiarity Rating,Attention Level,Cue Validity,Post Invalid Cue,Pre Invalid Cue,Attention Button,Rating History,Stimulus Onset,Stimulus End,Attention Probe
310,36,Memory,6,,,,,,,00700941121fa.jpg,,,,,0.864,1.0,,,,,,,1540408000.88301,1540408002.91343,
311,36,Memory,6,,,,,,,sunaakvmbftkrgqhjun.jpg,,,,,1.481,3.0,,,,,,,1540408004.183845,1540408006.147495,
312,36,Memory,6,,,,,,,00061931230fb.jpg,,,,,1.533,3.0,,,,,,,1540408007.419375,1540408009.38233,
313,36,Memory,6,,,,,,,sunantryfbloeaomfta.jpg,,,,,1.667,2.0,,,,,,,1540408010.652704,1540408012.618006,
314,36,Memory,6,,,,,,,00063931230fa.jpg,,,,,0.917,1.0,,,,,,,1540408013.866301,1540408015.834371,
315,36,Memory,6,,,,,,,00834940307fa.jpg,,,,,1.367,1.0,,,,,,,1540408017.084331,1540408019.051538,
316,36,Memory,6,,,,,,,00801941205fa.jpg,,,,,0.0,,,,,,,,1540408020.305957,1540408022.268736,
317,36,Memory,6,,,,,,,00548940519fa.jpg,,,,,1.464,1.0,,,,,,,1540408023.519464,1540408025.486836,
318,36,Memory,6,,,,,,,00568940928fa.jpg,,,,,1.535,3.0,,,,,,,1540408026.737261,1540408028.705314,
319,36,Memory,6,,,,,,,00663941121fa.jpg,,,,,1.332,1.0,,,,,,,1540408029.955132,1540408031.922399,
320,36,Memory,6,,,,,,,00906960530fa.jpg,,,,,1.315,1.0,,,,,,,1540408033.177721,1540408035.14212,
321,36,Memory,6,,,,,,,sunacerqowiaeoqkmsq.jpg,,,,,1.384,1.0,,,,,,,1540408036.395807,1540408038.358014,
322,36,Memory,6,,,,,,,sunaayehfdqcyxggsej.jpg,,,,,1.568,3.0,,,,,,,1540408039.608372,1540408041.577426,
323,36,Memory,6,,,,,,,sunaibnpvhkdpdnzcnz.jpg,,,,,1.468,1.0,,,,,,,1540408042.843647,1540408044.812439,
324,36,Memory,6,,,,,,,sunaaexqbtdswxrqjvz.jpg,,,,,1.084,4.0,,,,,,,1540408046.093386,1540408048.061415,
325,36,Memory,6,,,,,,,sunbwyuesflwdpqtgoy.jpg,,,,,1.002,2.0,,,,,,,1540408049.310855,1540408051.278554,
326,36,Memory,6,,,,,,,00589940928fa.jpg,,,,,1.032,2.0,,,,,,,1540408052.529372,1540408054.495576,
327,36,Memory,6,,,,,,,00218940128fa.jpg,,,,,1.398,4.0,,,,,,,1540408055.746176,1540408057.718362,
328,36,Memory,6,,,,,,,00905960530fa.jpg,,,,,1.502,4.0,,,,,,,1540408058.981178,1540408060.948229,
329,36,Memory,6,,,,,,,sunaooffzffbhcpirmm.jpg,,,,,1.0,1.0,,,,,,,1540408062.215251,1540408064.182348,
330,36,Memory,6,,,,,,,sunacwggadqsfpovdjv.jpg,,,,,0.9,1.0,,,,,,,1540408065.449491,1540408067.42043,
331,36,Memory,6,,,,,,,sunabbwggenhfbftyvi.jpg,,,,,1.331,1.0,,,,,,,1540408068.684548,1540408070.65533,
332,36,Memory,6,,,,,,,00783941205fa.jpg,,,,,1.102,3.0,,,,,,,1540408071.93514,1540408073.902623,
333,36,Memory,6,,,,,,,sunaaelyvurpntclgau.jpg,,,,,1.254,1.0,,,,,,,1540408075.158047,1540408077.121163,
334,36,Memory,6,,,,,,,sunagvprlbprarvgdvj.jpg,,,,,1.385,4.0,,,,,,,1540408078.376194,1540408080.339138,
335,36,Memory,6,,,,,,,01005960627fa.jpg,,,,,1.653,2.0,,,,,,,1540408081.588202,1540408083.5556,
336,36,Memory,6,,,,,,,00119931230fb.jpg,,,,,1.214,3.0,,,,,,,1540408084.822912,1540408086.790778,
337,36,Memory,6,,,,,,,00197940128fa.jpg,,,,,1.399,3.0,,,,,,,1540408088.041563,1540408090.012822,
338,36,Memory,6,,,,,,,sunadsgmtznewzyasnk.jpg,,,,,0.848,1.0,,,,,,,1540408091.257605,1540408093.226084,
339,36,Memory,6,,,,,,,sunaaylzyqlqrsmfwif.jpg,,,,,0.915,4.0,,,,,,,1540408094.496509,1540408096.463501,
340,36,Memory,6,,,,,,,sunaaekxzjzrfgtkwjf.jpg,,,,,0.815,1.0,,,,,,,1540408097.714534,1540408099.6779,
341,36,Memory,6,,,,,,,sunadnjjzohjhbohlwq.jpg,,,,,0.866,1.0,,,,,,,1540408100.933327,1540408102.899669,
342,36,Memory,6,,,,,,,00913960530fa.jpg,,,,,1.202,2.0,,,,,,,1540408104.163278,1540408106.130431,
343,36,Memory,6,,,,,,,00071941031fa.jpg,,,,,1.116,1.0,,,,,,,1540408107.380397,1540408109.348832,
344,36,Memory,6,,,,,,,sunagjeesomrwjsfqie.jpg,,,,,0.0,,,,,,,,1540408110.614445,1540408112.582355,
345,36,Memory,6,,,,,,,sunanmoqeyprjjjfxjt.jpg,,,,,0.715,4.0,,,,,,,1540408113.849591,1540408115.816254,
346,36,Memory,6,,,,,,,00242940128fa.jpg,,,,,1.882,3.0,,,,,,,1540408117.066888,1540408119.236733,
347,36,Memory,6,,,,,,,00194940128fb.jpg,,,,,0.781,1.0,,,,,,,1540408120.501093,1540408122.469203,
348,36,Memory,6,,,,,,,sunabcuurugvxwparpk.jpg,,,,,1.102,2.0,,,,,,,1540408123.72349,1540408125.689213,
349,36,Memory,6,,,,,,,sunacsdhbbsybcyxnel.jpg,,,,,0.801,1.0,,,,,,,1540408126.941187,1540408128.904517,
