,Subject,Trial Type,Run,Cued Composite,Uncued Composite,Cued Face,Cued Place,Uncued Face,Uncued Place,Memory Image,Category,Cued Side,Cued Category,Attention Reaction Time (s),Familiarity Reaction Time (s),Familiarity Rating,Attention Level,Cue Validity,Post Invalid Cue,Pre Invalid Cue,Attention Button,Rating History,Stimulus Onset,Stimulus End,Attention Probe
0,15,Presentation,0,00070940307fa_sunaaeplwsfslcbtojr.jpg,00313940422fa_sunabwjvmoaddlyxfjr.jpg,00070940307fa.jpg,sunaaeplwsfslcbtojr.jpg,00313940422fa.jpg,sunabwjvmoaddlyxfjr.jpg,,,>,Face,,,,,1,,,,,,,x
1,15,Presentation,0,00719960620fa_sunadzuvtmtmgupotmf.jpg,00977960627fa_sunbbxkanhzjgbwyxqs.jpg,00719960620fa.jpg,sunadzuvtmtmgupotmf.jpg,00977960627fa.jpg,sunbbxkanhzjgbwyxqs.jpg,,,>,Face,,,,,1,,,,,,,x
2,15,Presentation,0,00245940128fa_sunabeyhmxodahoieyk.jpg,00854940307fa_sunaiwduelojtwaqeyh.jpg,00245940128fa.jpg,sunabeyhmxodahoieyk.jpg,00854940307fa.jpg,sunaiwduelojtwaqeyh.jpg,,,>,Face,,,,,1,,,,,,,x
3,15,Presentation,0,00571940928fa_sunacuatpqpqhyjhjqk.jpg,00751960620fa_sunaezuszgtxnmsxdbk.jpg,00571940928fa.jpg,sunacuatpqpqhyjhjqk.jpg,00751960620fa.jpg,sunaezuszgtxnmsxdbk.jpg,,,>,Face,,,,,1,,,,,,,o
4,15,Presentation,0,00851940307fa_sunaivflshbyfrfzhqb.jpg,00073931230fa_sunaafbmtoniaasysgu.jpg,00851940307fa.jpg,sunaivflshbyfrfzhqb.jpg,00073931230fa.jpg,sunaafbmtoniaasysgu.jpg,,,>,Face,,,,,1,,,,,,,x
5,15,Presentation,0,00816941205fa_sunahmhrncocyhsjpxk.jpg,00838940307fa_sunaiozxhxgtfrmoagh.jpg,00816941205fa.jpg,sunahmhrncocyhsjpxk.jpg,00838940307fa.jpg,sunaiozxhxgtfrmoagh.jpg,,,>,Face,,,,,1,,,,,,,o
6,15,Presentation,0,01007960627fa_sunbxarcshsnqsefemx.jpg,00965960627fa_sunaydywdmvlfddbxbk.jpg,01007960627fa.jpg,sunbxarcshsnqsefemx.jpg,00965960627fa.jpg,sunaydywdmvlfddbxbk.jpg,,,>,Face,,,,,1,,,,,,,x
7,15,Presentation,0,00874940307fa_sunajtrfunvzdfticna.jpg,00719941201fa_sunadvithllcgmfxsrn.jpg,00874940307fa.jpg,sunajtrfunvzdfticna.jpg,00719941201fa.jpg,sunadvithllcgmfxsrn.jpg,,,>,Face,,,,,1,,,,,,,x
8,15,Presentation,0,00771941205fa_sunafowswglhxcsufpo.jpg,00894960620fa_sunalqmfgeadpqsyzpd.jpg,00771941205fa.jpg,sunafowswglhxcsufpo.jpg,00894960620fa.jpg,sunalqmfgeadpqsyzpd.jpg,,,>,Face,,,,,1,,,,,,,x
9,15,Presentation,0,00848940307fa_sunaivdylrawbmhryfp.jpg,00077931230fb_sunaafgqutfaishsxyu.jpg,00848940307fa.jpg,sunaivdylrawbmhryfp.jpg,00077931230fb.jpg,sunaafgqutfaishsxyu.jpg,,,>,Face,,,,,0,,,,,,,o
10,15,Memory,0,,,,,,,00260940128fa.jpg,,,,,,,,,,,,,,,
11,15,Memory,0,,,,,,,00838940307fa.jpg,,,,,,,,,,,,,,,
12,15,Memory,0,,,,,,,00719941201fa.jpg,,,,,,,,,,,,,,,
13,15,Memory,0,,,,,,,00996960627fa.jpg,,,,,,,,,,,,,,,
14,15,Memory,0,,,,,,,00070940307fa.jpg,,,,,,,,,,,,,,,
15,15,Memory,0,,,,,,,00543940519fa.jpg,,,,,,,,,,,,,,,
16,15,Memory,0,,,,,,,sunaofikylqtxphvdem.jpg,,,,,,,,,,,,,,,
17,15,Memory,0,,,,,,,00751960620fa.jpg,,,,,,,,,,,,,,,
18,15,Memory,0,,,,,,,sunabwjvmoaddlyxfjr.jpg,,,,,,,,,,,,,,,
19,15,Memory,0,,,,,,,sunabaergayifsgacxt.jpg,,,,,,,,,,,,,,,
20,15,Memory,0,,,,,,,sunaiwduelojtwaqeyh.jpg,,,,,,,,,,,,,,,
21,15,Memory,0,,,,,,,sunbbegcweqnetpdlrh.jpg,,,,,,,,,,,,,,,
22,15,Memory,0,,,,,,,00746941201fa.jpg,,,,,,,,,,,,,,,
23,15,Memory,0,,,,,,,sunbpvgllfdejxcpjqp.jpg,,,,,,,,,,,,,,,
24,15,Memory,0,,,,,,,00854940307fa.jpg,,,,,,,,,,,,,,,
25,15,Memory,0,,,,,,,00559940519fa.jpg,,,,,,,,,,,,,,,
26,15,Memory,0,,,,,,,00971960627fa.jpg,,,,,,,,,,,,,,,
27,15,Memory,0,,,,,,,00874940307fa.jpg,,,,,,,,,,,,,,,
28,15,Memory,0,,,,,,,sunaetydippjxikifsb.jpg,,,,,,,,,,,,,,,
29,15,Memory,0,,,,,,,00910960530fa.jpg,,,,,,,,,,,,,,,
30,15,Memory,0,,,,,,,sunajtrfunvzdfticna.jpg,,,,,,,,,,,,,,,
31,15,Memory,0,,,,,,,sunadvithllcgmfxsrn.jpg,,,,,,,,,,,,,,,
32,15,Memory,0,,,,,,,sunacuatpqpqhyjhjqk.jpg,,,,,,,,,,,,,,,
33,15,Memory,0,,,,,,,sunaezuszgtxnmsxdbk.jpg,,,,,,,,,,,,,,,
34,15,Memory,0,,,,,,,sunaaeplwsfslcbtojr.jpg,,,,,,,,,,,,,,,
35,15,Memory,0,,,,,,,sunabgfhvifeijihhjw.jpg,,,,,,,,,,,,,,,
36,15,Memory,0,,,,,,,00771941205fa.jpg,,,,,,,,,,,,,,,
37,15,Memory,0,,,,,,,sunainqelldeebvxtcz.jpg,,,,,,,,,,,,,,,
38,15,Memory,0,,,,,,,sunaivflshbyfrfzhqb.jpg,,,,,,,,,,,,,,,
39,15,Memory,0,,,,,,,00836940307fa.jpg,,,,,,,,,,,,,,,
40,15,Memory,0,,,,,,,00313940422fa.jpg,,,,,,,,,,,,,,,
41,15,Memory,0,,,,,,,sunafowswglhxcsufpo.jpg,,,,,,,,,,,,,,,
42,15,Memory,0,,,,,,,sunacepzfrmtkiqonpy.jpg,,,,,,,,,,,,,,,
43,15,Memory,0,,,,,,,sunacjkmnpawfzbyvae.jpg,,,,,,,,,,,,,,,
44,15,Memory,0,,,,,,,sunajbwkywmsqkldfml.jpg,,,,,,,,,,,,,,,
45,15,Memory,0,,,,,,,00571940928fa.jpg,,,,,,,,,,,,,,,
46,15,Memory,0,,,,,,,00866940307fa.jpg,,,,,,,,,,,,,,,
47,15,Memory,0,,,,,,,00209940128fb.jpg,,,,,,,,,,,,,,,
48,15,Memory,0,,,,,,,sunaiozxhxgtfrmoagh.jpg,,,,,,,,,,,,,,,
49,15,Memory,0,,,,,,,00851940307fa.jpg,,,,,,,,,,,,,,,
50,15,Presentation,1,00120931230fa_sunaakxgygjfqrzpyoz.jpg,00929960627fa_sunaprnrbmgkomdbchr.jpg,00120931230fa.jpg,sunaakxgygjfqrzpyoz.jpg,00929960627fa.jpg,sunaprnrbmgkomdbchr.jpg,,,<,Face,,,,,1,,,,,,,x
51,15,Presentation,1,00958960627fa_sunavspxmxubqaeidjt.jpg,00221940128fa_sunabcfpwlpolnutyju.jpg,00958960627fa.jpg,sunavspxmxubqaeidjt.jpg,00221940128fa.jpg,sunabcfpwlpolnutyju.jpg,,,<,Face,,,,,1,,,,,,,x
52,15,Presentation,1,00132931230fb_sunaanjcbzdvtvblsdy.jpg,00548940519fa_sunacerqowiaeoqkmsq.jpg,00132931230fb.jpg,sunaanjcbzdvtvblsdy.jpg,00548940519fa.jpg,sunacerqowiaeoqkmsq.jpg,,,<,Face,,,,,1,,,,,,,x
53,15,Presentation,1,01003960627fb_sunbwdrdvsweerwsdrj.jpg,00942960627fa_sunarfdklgdnjgeqfjg.jpg,01003960627fb.jpg,sunbwdrdvsweerwsdrj.jpg,00942960627fa.jpg,sunarfdklgdnjgeqfjg.jpg,,,<,Face,,,,,1,,,,,,,o
54,15,Presentation,1,00082931230fa_sunaafvitpexrpvumsa.jpg,00127931230fa_sunaampvucecsfbdafn.jpg,00082931230fa.jpg,sunaafvitpexrpvumsa.jpg,00127931230fa.jpg,sunaampvucecsfbdafn.jpg,,,<,Face,,,,,1,,,,,,,o
55,15,Presentation,1,00972960627fa_sunbbfqwjpdxniyhies.jpg,00270940422fb_sunabllobxadqcyttej.jpg,00972960627fa.jpg,sunbbfqwjpdxniyhies.jpg,00270940422fb.jpg,sunabllobxadqcyttej.jpg,,,<,Face,,,,,1,,,,,,,o
56,15,Presentation,1,00801941205fa_sunagvprlbprarvgdvj.jpg,00895960530fa_sunamczizlzavhzhpay.jpg,00801941205fa.jpg,sunagvprlbprarvgdvj.jpg,00895960530fa.jpg,sunamczizlzavhzhpay.jpg,,,<,Face,,,,,1,,,,,,,x
57,15,Presentation,1,00115931230fa_sunaakmxzhuceuiryah.jpg,00905960530fa_sunanmoqeyprjjjfxjt.jpg,00115931230fa.jpg,sunaakmxzhuceuiryah.jpg,00905960530fa.jpg,sunanmoqeyprjjjfxjt.jpg,,,<,Face,,,,,1,,,,,,,x
58,15,Presentation,1,00730960620fa_sunaekgzpfilgjxpeyq.jpg,01004960627fa_sunbwtlihsuptkrckid.jpg,00730960620fa.jpg,sunaekgzpfilgjxpeyq.jpg,01004960627fa.jpg,sunbwtlihsuptkrckid.jpg,,,<,Face,,,,,1,,,,,,,o
59,15,Presentation,1,00265940128fb_sunabkmdplkdbvxriff.jpg,00140931230fb_sunaapllqyqlykszopd.jpg,00265940128fb.jpg,sunabkmdplkdbvxriff.jpg,00140931230fb.jpg,sunaapllqyqlykszopd.jpg,,,<,Face,,,,,1,,,,,,,x
60,15,Memory,1,,,,,,,00119931230fb.jpg,,,,,,,,,,,,,,,
61,15,Memory,1,,,,,,,sunabzjxlmkwnwzimua.jpg,,,,,,,,,,,,,,,
62,15,Memory,1,,,,,,,00098931230fa.jpg,,,,,,,,,,,,,,,
63,15,Memory,1,,,,,,,sunaawsdjisukbbginm.jpg,,,,,,,,,,,,,,,
64,15,Memory,1,,,,,,,sunajjxttslobudoqbv.jpg,,,,,,,,,,,,,,,
65,15,Memory,1,,,,,,,sunagwswhkvnsmuszlz.jpg,,,,,,,,,,,,,,,
66,15,Memory,1,,,,,,,sunabkmdplkdbvxriff.jpg,,,,,,,,,,,,,,,
67,15,Memory,1,,,,,,,00772941201fa.jpg,,,,,,,,,,,,,,,
68,15,Memory,1,,,,,,,sunaajpqmulidejvjsr.jpg,,,,,,,,,,,,,,,
69,15,Memory,1,,,,,,,sunaqbmgkgqucajzrkp.jpg,,,,,,,,,,,,,,,
70,15,Memory,1,,,,,,,sunamczizlzavhzhpay.jpg,,,,,,,,,,,,,,,
71,15,Memory,1,,,,,,,00089931230fa.jpg,,,,,,,,,,,,,,,
72,15,Memory,1,,,,,,,00942960627fa.jpg,,,,,,,,,,,,,,,
73,15,Memory,1,,,,,,,00935960627fa.jpg,,,,,,,,,,,,,,,
74,15,Memory,1,,,,,,,sunaagcpoejbuzyvddd.jpg,,,,,,,,,,,,,,,
75,15,Memory,1,,,,,,,01003960627fb.jpg,,,,,,,,,,,,,,,
76,15,Memory,1,,,,,,,sunaakxgygjfqrzpyoz.jpg,,,,,,,,,,,,,,,
77,15,Memory,1,,,,,,,sunarfdklgdnjgeqfjg.jpg,,,,,,,,,,,,,,,
78,15,Memory,1,,,,,,,sunabcfpwlpolnutyju.jpg,,,,,,,,,,,,,,,
79,15,Memory,1,,,,,,,sunbwdrdvsweerwsdrj.jpg,,,,,,,,,,,,,,,
80,15,Memory,1,,,,,,,00905960530fa.jpg,,,,,,,,,,,,,,,
81,15,Memory,1,,,,,,,00191940128fb.jpg,,,,,,,,,,,,,,,
82,15,Memory,1,,,,,,,00804960530fa.jpg,,,,,,,,,,,,,,,
83,15,Memory,1,,,,,,,00801941205fa.jpg,,,,,,,,,,,,,,,
84,15,Memory,1,,,,,,,00221940128fa.jpg,,,,,,,,,,,,,,,
85,15,Memory,1,,,,,,,sunanmoqeyprjjjfxjt.jpg,,,,,,,,,,,,,,,
86,15,Memory,1,,,,,,,00730960620fa.jpg,,,,,,,,,,,,,,,
87,15,Memory,1,,,,,,,sunaaexpnawiehinlpy.jpg,,,,,,,,,,,,,,,
88,15,Memory,1,,,,,,,sunaakvmbftkrgqhjun.jpg,,,,,,,,,,,,,,,
89,15,Memory,1,,,,,,,sunagvprlbprarvgdvj.jpg,,,,,,,,,,,,,,,
90,15,Memory,1,,,,,,,01004960627fa.jpg,,,,,,,,,,,,,,,
91,15,Memory,1,,,,,,,00265940128fb.jpg,,,,,,,,,,,,,,,
92,15,Memory,1,,,,,,,sunaekgzpfilgjxpeyq.jpg,,,,,,,,,,,,,,,
93,15,Memory,1,,,,,,,sunafpfpiiujzoesnqg.jpg,,,,,,,,,,,,,,,
94,15,Memory,1,,,,,,,sunbwtlihsuptkrckid.jpg,,,,,,,,,,,,,,,
95,15,Memory,1,,,,,,,00498960627fa.jpg,,,,,,,,,,,,,,,
96,15,Memory,1,,,,,,,00868960307fa.jpg,,,,,,,,,,,,,,,
97,15,Memory,1,,,,,,,00071940128fa.jpg,,,,,,,,,,,,,,,
98,15,Memory,1,,,,,,,00895960530fa.jpg,,,,,,,,,,,,,,,
99,15,Memory,1,,,,,,,00120931230fa.jpg,,,,,,,,,,,,,,,
100,15,Presentation,2,00779941205fa_sunagdzlvkqtpnfxfcg.jpg,00993960627fa_sunbprywzqxjcezkbch.jpg,00779941205fa.jpg,sunagdzlvkqtpnfxfcg.jpg,00993960627fa.jpg,sunbprywzqxjcezkbch.jpg,,,<,Place,,,,,0,,,,,,,x
101,15,Presentation,2,00885960530fa_sunakwlvxjpddialozd.jpg,00308940422fb_sunabwfvcqqidycwypa.jpg,00885960530fa.jpg,sunakwlvxjpddialozd.jpg,00308940422fb.jpg,sunabwfvcqqidycwypa.jpg,,,<,Place,,,,,0,,,,,,,x
102,15,Presentation,2,00902960530fa_sunanaacmmosxrfwmvl.jpg,00936960627fa_sunaqgjuuwvdcyiccjt.jpg,00902960530fa.jpg,sunanaacmmosxrfwmvl.jpg,00936960627fa.jpg,sunaqgjuuwvdcyiccjt.jpg,,,<,Place,,,,,1,,,,,,,x
103,15,Presentation,2,00111931230fb_sunaakgekhjklxmvulj.jpg,00783941205fa_sunagjeesomrwjsfqie.jpg,00111931230fb.jpg,sunaakgekhjklxmvulj.jpg,00783941205fa.jpg,sunagjeesomrwjsfqie.jpg,,,<,Place,,,,,1,,,,,,,o
104,15,Presentation,2,00898960530fa_sunamkmeblgteyggink.jpg,00532960627fa_sunaccdtpgenvcbcbcf.jpg,00898960530fa.jpg,sunamkmeblgteyggink.jpg,00532960627fa.jpg,sunaccdtpgenvcbcbcf.jpg,,,<,Place,,,,,1,,,,,,,o
105,15,Presentation,2,00999960627fa_sunbvbrvgbpanfrawft.jpg,00778941205fa_sunagcthdfirrcawoic.jpg,00999960627fa.jpg,sunbvbrvgbpanfrawft.jpg,00778941205fa.jpg,sunagcthdfirrcawoic.jpg,,,<,Place,,,,,1,,,,,,,o
106,15,Presentation,2,00147931230fb_sunaatpkocdkocwxpkb.jpg,00775941205fa_sunafvwfsmqkjrutjta.jpg,00147931230fb.jpg,sunaatpkocdkocwxpkb.jpg,00775941205fa.jpg,sunafvwfsmqkjrutjta.jpg,,,<,Place,,,,,0,,,,,,,x
107,15,Presentation,2,00797960620fa_sunagufzbeteqdjxais.jpg,00581940928fa_sunacvzhvcksnwqcqbw.jpg,00797960620fa.jpg,sunagufzbeteqdjxais.jpg,00581940928fa.jpg,sunacvzhvcksnwqcqbw.jpg,,,<,Place,,,,,1,,,,,,,o
108,15,Presentation,2,00635941031fa_sunaddsaeicthrfbkhe.jpg,00227940128fa_sunabckqabszusgcykj.jpg,00635941031fa.jpg,sunaddsaeicthrfbkhe.jpg,00227940128fa.jpg,sunabckqabszusgcykj.jpg,,,<,Place,,,,,1,,,,,,,x
109,15,Presentation,2,00133931230fa_sunaanlwnpqndclffxt.jpg,00162931230fb_sunaavjinpnkappuonm.jpg,00133931230fa.jpg,sunaanlwnpqndclffxt.jpg,00162931230fb.jpg,sunaavjinpnkappuonm.jpg,,,<,Place,,,,,1,,,,,,,o
110,15,Memory,2,,,,,,,sunamkmeblgteyggink.jpg,,,,,,,,,,,,,,,
111,15,Memory,2,,,,,,,00124931230fa.jpg,,,,,,,,,,,,,,,
112,15,Memory,2,,,,,,,00880960530fa.jpg,,,,,,,,,,,,,,,
113,15,Memory,2,,,,,,,00990960627fa.jpg,,,,,,,,,,,,,,,
114,15,Memory,2,,,,,,,00898960530fa.jpg,,,,,,,,,,,,,,,
115,15,Memory,2,,,,,,,00961960627fa.jpg,,,,,,,,,,,,,,,
116,15,Memory,2,,,,,,,sunacvzhvcksnwqcqbw.jpg,,,,,,,,,,,,,,,
117,15,Memory,2,,,,,,,00825940307fa.jpg,,,,,,,,,,,,,,,
118,15,Memory,2,,,,,,,sunanwjjyqqwzqrqagd.jpg,,,,,,,,,,,,,,,
119,15,Memory,2,,,,,,,sunahrltmuwbiehihpe.jpg,,,,,,,,,,,,,,,
120,15,Memory,2,,,,,,,00635941031fa.jpg,,,,,,,,,,,,,,,
121,15,Memory,2,,,,,,,00532960627fa.jpg,,,,,,,,,,,,,,,
122,15,Memory,2,,,,,,,sunakwlvxjpddialozd.jpg,,,,,,,,,,,,,,,
123,15,Memory,2,,,,,,,00999960627fa.jpg,,,,,,,,,,,,,,,
124,15,Memory,2,,,,,,,sunaavjinpnkappuonm.jpg,,,,,,,,,,,,,,,
125,15,Memory,2,,,,,,,00908960530fa.jpg,,,,,,,,,,,,,,,
126,15,Memory,2,,,,,,,sunagcthdfirrcawoic.jpg,,,,,,,,,,,,,,,
127,15,Memory,2,,,,,,,sunapqkyghktgtosuuk.jpg,,,,,,,,,,,,,,,
128,15,Memory,2,,,,,,,sunawotxrevnqvamsfp.jpg,,,,,,,,,,,,,,,
129,15,Memory,2,,,,,,,sunaddsaeicthrfbkhe.jpg,,,,,,,,,,,,,,,
130,15,Memory,2,,,,,,,00877960530fa.jpg,,,,,,,,,,,,,,,
131,15,Memory,2,,,,,,,00581940928fa.jpg,,,,,,,,,,,,,,,
132,15,Memory,2,,,,,,,sunakmnfgklupjijsgf.jpg,,,,,,,,,,,,,,,
133,15,Memory,2,,,,,,,00922960627fa.jpg,,,,,,,,,,,,,,,
134,15,Memory,2,,,,,,,00149931230fa.jpg,,,,,,,,,,,,,,,
135,15,Memory,2,,,,,,,00133931230fa.jpg,,,,,,,,,,,,,,,
136,15,Memory,2,,,,,,,00885960530fa.jpg,,,,,,,,,,,,,,,
137,15,Memory,2,,,,,,,sunaauglwmctnkxyird.jpg,,,,,,,,,,,,,,,
138,15,Memory,2,,,,,,,sunbvbrvgbpanfrawft.jpg,,,,,,,,,,,,,,,
139,15,Memory,2,,,,,,,sunajxpkuhbizeveguy.jpg,,,,,,,,,,,,,,,
140,15,Memory,2,,,,,,,00308940422fb.jpg,,,,,,,,,,,,,,,
141,15,Memory,2,,,,,,,00162931230fb.jpg,,,,,,,,,,,,,,,
142,15,Memory,2,,,,,,,sunbpflsdaxnddnwcqi.jpg,,,,,,,,,,,,,,,
143,15,Memory,2,,,,,,,00778941205fa.jpg,,,,,,,,,,,,,,,
144,15,Memory,2,,,,,,,sunaalhlvzmjmitybdn.jpg,,,,,,,,,,,,,,,
145,15,Memory,2,,,,,,,sunaaelyvurpntclgau.jpg,,,,,,,,,,,,,,,
146,15,Memory,2,,,,,,,sunabwfvcqqidycwypa.jpg,,,,,,,,,,,,,,,
147,15,Memory,2,,,,,,,sunaanlwnpqndclffxt.jpg,,,,,,,,,,,,,,,
148,15,Memory,2,,,,,,,sunaccdtpgenvcbcbcf.jpg,,,,,,,,,,,,,,,
149,15,Memory,2,,,,,,,00063931230fa.jpg,,,,,,,,,,,,,,,
150,15,Presentation,3,00153931230fa_sunaauhozyxzeeqstxi.jpg,00636941031fa_sunaddtdkycxbqlpfqa.jpg,00153931230fa.jpg,sunaauhozyxzeeqstxi.jpg,00636941031fa.jpg,sunaddtdkycxbqlpfqa.jpg,,,<,Face,,,,,1,,,,,,,x
151,15,Presentation,3,00568940928fa_sunacsdhbbsybcyxnel.jpg,00650941031fa_sunadikxpvqeabxrvvc.jpg,00568940928fa.jpg,sunacsdhbbsybcyxnel.jpg,00650941031fa.jpg,sunadikxpvqeabxrvvc.jpg,,,<,Face,,,,,1,,,,,,,x
152,15,Presentation,3,00957960627fa_sunavhxgmgrqsaptynb.jpg,00960960627fa_sunawksfbacycuhbrsc.jpg,00957960627fa.jpg,sunavhxgmgrqsaptynb.jpg,00960960627fa.jpg,sunawksfbacycuhbrsc.jpg,,,<,Face,,,,,1,,,,,,,x
153,15,Presentation,3,00933960627fa_sunapwjkcxdaeqehfql.jpg,00959960627fa_sunavxokzybtomhbmvm.jpg,00933960627fa.jpg,sunapwjkcxdaeqehfql.jpg,00959960627fa.jpg,sunavxokzybtomhbmvm.jpg,,,<,Face,,,,,1,,,,,,,x
154,15,Presentation,3,00834940307fa_sunaibnpvhkdpdnzcnz.jpg,00620940928fa_sunacypmnujalygkunp.jpg,00834940307fa.jpg,sunaibnpvhkdpdnzcnz.jpg,00620940928fa.jpg,sunacypmnujalygkunp.jpg,,,<,Face,,,,,1,,,,,,,x
155,15,Presentation,3,00944960627fa_sunasbbntuiheekqyaq.jpg,00988960627fa_sunbmaiocftdtvnzgap.jpg,00944960627fa.jpg,sunasbbntuiheekqyaq.jpg,00988960627fa.jpg,sunbmaiocftdtvnzgap.jpg,,,<,Face,,,,,1,,,,,,,o
156,15,Presentation,3,00791941205fa_sunagrmyoovzukhxmlo.jpg,00984960627fa_sunbfzchmomnvzhbxdg.jpg,00791941205fa.jpg,sunagrmyoovzukhxmlo.jpg,00984960627fa.jpg,sunbfzchmomnvzhbxdg.jpg,,,<,Face,,,,,1,,,,,,,x
157,15,Presentation,3,00953960627fa_sunatstrpjxhvtbaczf.jpg,00925960627fa_sunapqwnqzxlsfvgsjm.jpg,00953960627fa.jpg,sunatstrpjxhvtbaczf.jpg,00925960627fa.jpg,sunapqwnqzxlsfvgsjm.jpg,,,<,Face,,,,,0,,,,,,,o
158,15,Presentation,3,00777941205fa_sunagcinxkccdtrjmlv.jpg,00060931230fa_sunaaehaikpckyjsety.jpg,00777941205fa.jpg,sunagcinxkccdtrjmlv.jpg,00060931230fa.jpg,sunaaehaikpckyjsety.jpg,,,<,Face,,,,,1,,,,,,,o
159,15,Presentation,3,00676941121fa_sunadpnqovzckyikrjo.jpg,00210940128fb_sunabanoxjtqxamkucc.jpg,00676941121fa.jpg,sunadpnqovzckyikrjo.jpg,00210940128fb.jpg,sunabanoxjtqxamkucc.jpg,,,<,Face,,,,,1,,,,,,,o
160,15,Memory,3,,,,,,,00790941205fa.jpg,,,,,,,,,,,,,,,
161,15,Memory,3,,,,,,,sunaefgzwiramypjvtd.jpg,,,,,,,,,,,,,,,
162,15,Memory,3,,,,,,,00589940928fa.jpg,,,,,,,,,,,,,,,
163,15,Memory,3,,,,,,,sunbxzweleltykebgan.jpg,,,,,,,,,,,,,,,
164,15,Memory,3,,,,,,,00564940928fa.jpg,,,,,,,,,,,,,,,
165,15,Memory,3,,,,,,,sunapwjkcxdaeqehfql.jpg,,,,,,,,,,,,,,,
166,15,Memory,3,,,,,,,sunapqwnqzxlsfvgsjm.jpg,,,,,,,,,,,,,,,
167,15,Memory,3,,,,,,,00725941201fa.jpg,,,,,,,,,,,,,,,
168,15,Memory,3,,,,,,,00791941205fa.jpg,,,,,,,,,,,,,,,
169,15,Memory,3,,,,,,,00925960627fa.jpg,,,,,,,,,,,,,,,
170,15,Memory,3,,,,,,,sunacwggadqsfpovdjv.jpg,,,,,,,,,,,,,,,
171,15,Memory,3,,,,,,,00933960627fa.jpg,,,,,,,,,,,,,,,
172,15,Memory,3,,,,,,,sunavhxgmgrqsaptynb.jpg,,,,,,,,,,,,,,,
173,15,Memory,3,,,,,,,sunammbnoambmhdxdwd.jpg,,,,,,,,,,,,,,,
174,15,Memory,3,,,,,,,sunabohxbskznglnrhv.jpg,,,,,,,,,,,,,,,
175,15,Memory,3,,,,,,,00957960627fa.jpg,,,,,,,,,,,,,,,
176,15,Memory,3,,,,,,,00676941121fa.jpg,,,,,,,,,,,,,,,
177,15,Memory,3,,,,,,,00060931230fa.jpg,,,,,,,,,,,,,,,
178,15,Memory,3,,,,,,,sunbfzchmomnvzhbxdg.jpg,,,,,,,,,,,,,,,
179,15,Memory,3,,,,,,,sunagrmyoovzukhxmlo.jpg,,,,,,,,,,,,,,,
180,15,Memory,3,,,,,,,00754941201fa.jpg,,,,,,,,,,,,,,,
181,15,Memory,3,,,,,,,00988960627fa.jpg,,,,,,,,,,,,,,,
182,15,Memory,3,,,,,,,sunabanoxjtqxamkucc.jpg,,,,,,,,,,,,,,,
183,15,Memory,3,,,,,,,00901960530fa.jpg,,,,,,,,,,,,,,,
184,15,Memory,3,,,,,,,00280940422fb.jpg,,,,,,,,,,,,,,,
185,15,Memory,3,,,,,,,sunadpnqovzckyikrjo.jpg,,,,,,,,,,,,,,,
186,15,Memory,3,,,,,,,sunaecpkgfewqqreqwe.jpg,,,,,,,,,,,,,,,
187,15,Memory,3,,,,,,,sunagpjzsbltchlwvou.jpg,,,,,,,,,,,,,,,
188,15,Memory,3,,,,,,,00720960620fa.jpg,,,,,,,,,,,,,,,
189,15,Memory,3,,,,,,,sunaauhozyxzeeqstxi.jpg,,,,,,,,,,,,,,,
190,15,Memory,3,,,,,,,sunbmaiocftdtvnzgap.jpg,,,,,,,,,,,,,,,
191,15,Memory,3,,,,,,,00984960627fa.jpg,,,,,,,,,,,,,,,
192,15,Memory,3,,,,,,,00210940128fb.jpg,,,,,,,,,,,,,,,
193,15,Memory,3,,,,,,,01009960627fa.jpg,,,,,,,,,,,,,,,
194,15,Memory,3,,,,,,,sunathzzbcwjykldrem.jpg,,,,,,,,,,,,,,,
195,15,Memory,3,,,,,,,sunacmpqqfbsvlzinzl.jpg,,,,,,,,,,,,,,,
196,15,Memory,3,,,,,,,00952960627fa.jpg,,,,,,,,,,,,,,,
197,15,Memory,3,,,,,,,00153931230fa.jpg,,,,,,,,,,,,,,,
198,15,Memory,3,,,,,,,sunaffgsyyvoqdlkmnk.jpg,,,,,,,,,,,,,,,
199,15,Memory,3,,,,,,,sunaaehaikpckyjsety.jpg,,,,,,,,,,,,,,,
200,15,Presentation,4,00742941201fa_sunaenwuebvlpdmntju.jpg,00314940422fa_sunabwmcbaxwioksdgw.jpg,00742941201fa.jpg,sunaenwuebvlpdmntju.jpg,00314940422fa.jpg,sunabwmcbaxwioksdgw.jpg,,,>,Face,,,,,1,,,,,,,o
201,15,Presentation,4,00116931230fa_sunaakqepfoeqomfgxf.jpg,00554940519fa_sunacfdkbsrughwqwtt.jpg,00116931230fa.jpg,sunaakqepfoeqomfgxf.jpg,00554940519fa.jpg,sunacfdkbsrughwqwtt.jpg,,,>,Face,,,,,1,,,,,,,x
202,15,Presentation,4,00095931230fa_sunaahzooisqkwlxwoz.jpg,00979960627fa_sunbdycacjfaujxitbw.jpg,00095931230fa.jpg,sunaahzooisqkwlxwoz.jpg,00979960627fa.jpg,sunbdycacjfaujxitbw.jpg,,,>,Face,,,,,1,,,,,,,o
203,15,Presentation,4,00800941205fb_sunagvjurcwdbixvnyi.jpg,00290940422fa_sunabqowuarvqqcnipn.jpg,00800941205fb.jpg,sunagvjurcwdbixvnyi.jpg,00290940422fa.jpg,sunabqowuarvqqcnipn.jpg,,,>,Face,,,,,1,,,,,,,o
204,15,Presentation,4,00774941201fa_sunafvtpfczkzopbgue.jpg,00819940307fa_sunahqldjibofgsfdgb.jpg,00774941201fa.jpg,sunafvtpfczkzopbgue.jpg,00819940307fa.jpg,sunahqldjibofgsfdgb.jpg,,,>,Face,,,,,1,,,,,,,x
205,15,Presentation,4,00807941205fa_sunahawfngukizslzsd.jpg,00505960627fa_sunabzuqsrgcsonqlkz.jpg,00807941205fa.jpg,sunahawfngukizslzsd.jpg,00505960627fa.jpg,sunabzuqsrgcsonqlkz.jpg,,,>,Face,,,,,1,,,,,,,x
206,15,Presentation,4,00634940928fa_sunadcphrizvfpljiqt.jpg,00794960620fa_sunagtqhhwxjeuxdebe.jpg,00634940928fa.jpg,sunadcphrizvfpljiqt.jpg,00794960620fa.jpg,sunagtqhhwxjeuxdebe.jpg,,,>,Face,,,,,1,,,,,,,o
207,15,Presentation,4,00955960627fb_sunauburywlkjszngcq.jpg,00102931230fa_sunaajspcoepticvplv.jpg,00955960627fb.jpg,sunauburywlkjszngcq.jpg,00102931230fa.jpg,sunaajspcoepticvplv.jpg,,,>,Face,,,,,1,,,,,,,x
208,15,Presentation,4,00562941031fa_sunacjnahdmqfnjfwqx.jpg,00700941121fa_sunadsgmtznewzyasnk.jpg,00562941031fa.jpg,sunacjnahdmqfnjfwqx.jpg,00700941121fa.jpg,sunadsgmtznewzyasnk.jpg,,,>,Face,,,,,1,,,,,,,o
209,15,Presentation,4,00218940128fa_sunabbwggenhfbftyvi.jpg,00792941205fa_sunagsiwrmuixqgdimb.jpg,00218940128fa.jpg,sunabbwggenhfbftyvi.jpg,00792941205fa.jpg,sunagsiwrmuixqgdimb.jpg,,,>,Face,,,,,1,,,,,,,o
210,15,Memory,4,,,,,,,sunadsgmtznewzyasnk.jpg,,,,,,,,,,,,,,,
211,15,Memory,4,,,,,,,00700941121fa.jpg,,,,,,,,,,,,,,,
212,15,Memory,4,,,,,,,00812941205fa.jpg,,,,,,,,,,,,,,,
213,15,Memory,4,,,,,,,sunahqldjibofgsfdgb.jpg,,,,,,,,,,,,,,,
214,15,Memory,4,,,,,,,01005960627fa.jpg,,,,,,,,,,,,,,,
215,15,Memory,4,,,,,,,00955960627fb.jpg,,,,,,,,,,,,,,,
216,15,Memory,4,,,,,,,sunaeoghzrjarigmwua.jpg,,,,,,,,,,,,,,,
217,15,Memory,4,,,,,,,sunalntxqqadigcletd.jpg,,,,,,,,,,,,,,,
218,15,Memory,4,,,,,,,00892960530fa.jpg,,,,,,,,,,,,,,,
219,15,Memory,4,,,,,,,00101931230fb.jpg,,,,,,,,,,,,,,,
220,15,Memory,4,,,,,,,sunaooffzffbhcpirmm.jpg,,,,,,,,,,,,,,,
221,15,Memory,4,,,,,,,00562941031fa.jpg,,,,,,,,,,,,,,,
222,15,Memory,4,,,,,,,00290940422fa.jpg,,,,,,,,,,,,,,,
223,15,Memory,4,,,,,,,sunagvjurcwdbixvnyi.jpg,,,,,,,,,,,,,,,
224,15,Memory,4,,,,,,,00800941205fb.jpg,,,,,,,,,,,,,,,
225,15,Memory,4,,,,,,,sunabqowuarvqqcnipn.jpg,,,,,,,,,,,,,,,
226,15,Memory,4,,,,,,,sunbwyuesflwdpqtgoy.jpg,,,,,,,,,,,,,,,
227,15,Memory,4,,,,,,,00819940307fa.jpg,,,,,,,,,,,,,,,
228,15,Memory,4,,,,,,,sunagsiwrmuixqgdimb.jpg,,,,,,,,,,,,,,,
229,15,Memory,4,,,,,,,00792941205fa.jpg,,,,,,,,,,,,,,,
230,15,Memory,4,,,,,,,sunabbafjowbzcvbucc.jpg,,,,,,,,,,,,,,,
231,15,Memory,4,,,,,,,00218940128fa.jpg,,,,,,,,,,,,,,,
232,15,Memory,4,,,,,,,sunaakqepfoeqomfgxf.jpg,,,,,,,,,,,,,,,
233,15,Memory,4,,,,,,,sunabwmcbaxwioksdgw.jpg,,,,,,,,,,,,,,,
234,15,Memory,4,,,,,,,sunacjnahdmqfnjfwqx.jpg,,,,,,,,,,,,,,,
235,15,Memory,4,,,,,,,sunaafewhewbxmjiurz.jpg,,,,,,,,,,,,,,,
236,15,Memory,4,,,,,,,00314940422fa.jpg,,,,,,,,,,,,,,,
237,15,Memory,4,,,,,,,00913960530fa.jpg,,,,,,,,,,,,,,,
238,15,Memory,4,,,,,,,sunahgtbwgsmtqeodwh.jpg,,,,,,,,,,,,,,,
239,15,Memory,4,,,,,,,sunaajqmsaavkmgbsth.jpg,,,,,,,,,,,,,,,
240,15,Memory,4,,,,,,,00214940128fa.jpg,,,,,,,,,,,,,,,
241,15,Memory,4,,,,,,,00784941205fb.jpg,,,,,,,,,,,,,,,
242,15,Memory,4,,,,,,,00076931230fa.jpg,,,,,,,,,,,,,,,
243,15,Memory,4,,,,,,,00728941205fa.jpg,,,,,,,,,,,,,,,
244,15,Memory,4,,,,,,,sunauburywlkjszngcq.jpg,,,,,,,,,,,,,,,
245,15,Memory,4,,,,,,,sunaejnvnpltdmhbcsi.jpg,,,,,,,,,,,,,,,
246,15,Memory,4,,,,,,,00116931230fa.jpg,,,,,,,,,,,,,,,
247,15,Memory,4,,,,,,,sunabbwggenhfbftyvi.jpg,,,,,,,,,,,,,,,
248,15,Memory,4,,,,,,,sunagjzcrjvmxzqzljx.jpg,,,,,,,,,,,,,,,
249,15,Memory,4,,,,,,,00743941201fa.jpg,,,,,,,,,,,,,,,
250,15,Presentation,5,00262940128fa_sunabizydfotqddlnjp.jpg,00805941205fa_sunagwzdbtlixdhgolm.jpg,00262940128fa.jpg,sunabizydfotqddlnjp.jpg,00805941205fa.jpg,sunagwzdbtlixdhgolm.jpg,,,<,Place,,,,,1,,,,,,,o
251,15,Presentation,5,00125931230fa_sunaalltyvjhbzhkmvg.jpg,00973960627fa_sunbbgtoeuzierkkajt.jpg,00125931230fa.jpg,sunaalltyvjhbzhkmvg.jpg,00973960627fa.jpg,sunbbgtoeuzierkkajt.jpg,,,<,Place,,,,,1,,,,,,,o
252,15,Presentation,5,00768941205fa_sunafkmnlytenlsywia.jpg,00785941205fa_sunaglqunwuycxydmyu.jpg,00768941205fa.jpg,sunafkmnlytenlsywia.jpg,00785941205fa.jpg,sunaglqunwuycxydmyu.jpg,,,<,Place,,,,,0,,,,,,,o
253,15,Presentation,5,00752960620fa_sunafbwnojpqeyzssoe.jpg,00976960627fa_sunbbhqyyzmsxhsbjmp.jpg,00752960620fa.jpg,sunafbwnojpqeyzssoe.jpg,00976960627fa.jpg,sunbbhqyyzmsxhsbjmp.jpg,,,<,Place,,,,,1,,,,,,,o
254,15,Presentation,5,00109931230fa_sunaajuzribjrizdshh.jpg,00859940307fa_sunaiycurtqsfkvcaso.jpg,00109931230fa.jpg,sunaajuzribjrizdshh.jpg,00859940307fa.jpg,sunaiycurtqsfkvcaso.jpg,,,<,Place,,,,,1,,,,,,,x
255,15,Presentation,5,00130931230fa_sunaamvxnvouicstkjb.jpg,00271940422fa_sunabmbnddafmywtjjj.jpg,00130931230fa.jpg,sunaamvxnvouicstkjb.jpg,00271940422fa.jpg,sunabmbnddafmywtjjj.jpg,,,<,Place,,,,,1,,,,,,,x
256,15,Presentation,5,00786941205fa_sunagmhildamktmqjss.jpg,00129931230fb_sunaamsdyakblkfoydx.jpg,00786941205fa.jpg,sunagmhildamktmqjss.jpg,00129931230fb.jpg,sunaamsdyakblkfoydx.jpg,,,<,Place,,,,,1,,,,,,,o
257,15,Presentation,5,00788941205fa_sunagountlxpzkytsmp.jpg,00950960627fa_sunasrjlmglmjzbmqxb.jpg,00788941205fa.jpg,sunagountlxpzkytsmp.jpg,00950960627fa.jpg,sunasrjlmglmjzbmqxb.jpg,,,<,Place,,,,,1,,,,,,,o
258,15,Presentation,5,00481940519fa_sunabxsuqbleluwczoy.jpg,00598940928fa_sunacxeheuiigkcgquf.jpg,00481940519fa.jpg,sunabxsuqbleluwczoy.jpg,00598940928fa.jpg,sunacxeheuiigkcgquf.jpg,,,<,Place,,,,,1,,,,,,,x
259,15,Presentation,5,00705960530fa_sunaduslxfzlbxlllnz.jpg,00744941201fa_sunaeomlfaabhpswasy.jpg,00705960530fa.jpg,sunaduslxfzlbxlllnz.jpg,00744941201fa.jpg,sunaeomlfaabhpswasy.jpg,,,<,Place,,,,,1,,,,,,,o
260,15,Memory,5,,,,,,,00937960627fa.jpg,,,,,,,,,,,,,,,
261,15,Memory,5,,,,,,,sunaivdjruhkrfywfed.jpg,,,,,,,,,,,,,,,
262,15,Memory,5,,,,,,,00976960627fa.jpg,,,,,,,,,,,,,,,
263,15,Memory,5,,,,,,,sunbbhqyyzmsxhsbjmp.jpg,,,,,,,,,,,,,,,
264,15,Memory,5,,,,,,,00065931230fb.jpg,,,,,,,,,,,,,,,
265,15,Memory,5,,,,,,,00271940422fa.jpg,,,,,,,,,,,,,,,
266,15,Memory,5,,,,,,,sunaamvxnvouicstkjb.jpg,,,,,,,,,,,,,,,
267,15,Memory,5,,,,,,,sunafhmnhsdurlvddpw.jpg,,,,,,,,,,,,,,,
268,15,Memory,5,,,,,,,sunaatjesvdupctftmn.jpg,,,,,,,,,,,,,,,
269,15,Memory,5,,,,,,,sunaaftlyfudyzuhqzf.jpg,,,,,,,,,,,,,,,
270,15,Memory,5,,,,,,,sunafbwnojpqeyzssoe.jpg,,,,,,,,,,,,,,,
271,15,Memory,5,,,,,,,sunaaemixhfquhnxxlm.jpg,,,,,,,,,,,,,,,
272,15,Memory,5,,,,,,,00481940519fa.jpg,,,,,,,,,,,,,,,
273,15,Memory,5,,,,,,,sunagountlxpzkytsmp.jpg,,,,,,,,,,,,,,,
274,15,Memory,5,,,,,,,00805941205fa.jpg,,,,,,,,,,,,,,,
275,15,Memory,5,,,,,,,00081941031fa.jpg,,,,,,,,,,,,,,,
276,15,Memory,5,,,,,,,00847940307fa.jpg,,,,,,,,,,,,,,,
277,15,Memory,5,,,,,,,00130931230fa.jpg,,,,,,,,,,,,,,,
278,15,Memory,5,,,,,,,sunaemcowdozyphwknd.jpg,,,,,,,,,,,,,,,
279,15,Memory,5,,,,,,,00811960530fa.jpg,,,,,,,,,,,,,,,
280,15,Memory,5,,,,,,,sunabmbnddafmywtjjj.jpg,,,,,,,,,,,,,,,
281,15,Memory,5,,,,,,,00741941201fa.jpg,,,,,,,,,,,,,,,
282,15,Memory,5,,,,,,,sunabxsuqbleluwczoy.jpg,,,,,,,,,,,,,,,
283,15,Memory,5,,,,,,,sunagwzdbtlixdhgolm.jpg,,,,,,,,,,,,,,,
284,15,Memory,5,,,,,,,01011960627fa.jpg,,,,,,,,,,,,,,,
285,15,Memory,5,,,,,,,00973960627fa.jpg,,,,,,,,,,,,,,,
286,15,Memory,5,,,,,,,00145931230fb.jpg,,,,,,,,,,,,,,,
287,15,Memory,5,,,,,,,00482940519fa.jpg,,,,,,,,,,,,,,,
288,15,Memory,5,,,,,,,00950960627fa.jpg,,,,,,,,,,,,,,,
289,15,Memory,5,,,,,,,00752960620fa.jpg,,,,,,,,,,,,,,,
290,15,Memory,5,,,,,,,sunasrjlmglmjzbmqxb.jpg,,,,,,,,,,,,,,,
291,15,Memory,5,,,,,,,sunabizydfotqddlnjp.jpg,,,,,,,,,,,,,,,
292,15,Memory,5,,,,,,,00788941205fa.jpg,,,,,,,,,,,,,,,
293,15,Memory,5,,,,,,,sunabyfxcxhdebvdyfd.jpg,,,,,,,,,,,,,,,
294,15,Memory,5,,,,,,,00763941205fa.jpg,,,,,,,,,,,,,,,
295,15,Memory,5,,,,,,,sunaqsolmfydodnakub.jpg,,,,,,,,,,,,,,,
296,15,Memory,5,,,,,,,sunahedfrhtcwpneund.jpg,,,,,,,,,,,,,,,
297,15,Memory,5,,,,,,,sundahdxwmcdluscvot.jpg,,,,,,,,,,,,,,,
298,15,Memory,5,,,,,,,sunbbgtoeuzierkkajt.jpg,,,,,,,,,,,,,,,
299,15,Memory,5,,,,,,,00262940128fa.jpg,,,,,,,,,,,,,,,
300,15,Presentation,6,01010960627fa_suncnkvbhypnivcohyx.jpg,00288940422fa_sunabppokiyglaxpcha.jpg,01010960627fa.jpg,suncnkvbhypnivcohyx.jpg,00288940422fa.jpg,sunabppokiyglaxpcha.jpg,,,>,Place,,,,,0,,,,,,,o
301,15,Presentation,6,00829940307fa_sunahwgbqkqcrwprgvh.jpg,00926960627Fa_sunapqwoeotxshkukbh.jpg,00829940307fa.jpg,sunahwgbqkqcrwprgvh.jpg,00926960627Fa.jpg,sunapqwoeotxshkukbh.jpg,,,>,Place,,,,,1,,,,,,,o
302,15,Presentation,6,00938960627fa_sunaqyylsngywqzwfmx.jpg,00638941031fa_sunadfktsqjthoglcsm.jpg,00938960627fa.jpg,sunaqyylsngywqzwfmx.jpg,00638941031fa.jpg,sunadfktsqjthoglcsm.jpg,,,>,Place,,,,,1,,,,,,,x
303,15,Presentation,6,00947960627fa_sunasmmcxdddtmtazwx.jpg,00773941201fa_sunafvcflzhlqloapyo.jpg,00947960627fa.jpg,sunasmmcxdddtmtazwx.jpg,00773941201fa.jpg,sunafvcflzhlqloapyo.jpg,,,>,Place,,,,,1,,,,,,,o
304,15,Presentation,6,00987960627fa_sunbloeoiozwjjsiamp.jpg,00793941205fa_sunagtjwilqjvxohypn.jpg,00987960627fa.jpg,sunbloeoiozwjjsiamp.jpg,00793941205fa.jpg,sunagtjwilqjvxohypn.jpg,,,>,Place,,,,,1,,,,,,,o
305,15,Presentation,6,00787941205fa_sunagmwxxwymwojbvgi.jpg,00967960627fa_sunbaejotfklekvpxcz.jpg,00787941205fa.jpg,sunagmwxxwymwojbvgi.jpg,00967960627fa.jpg,sunbaejotfklekvpxcz.jpg,,,>,Place,,,,,1,,,,,,,o
306,15,Presentation,6,00235940128fb_sunabclssnoeuigtawp.jpg,00267940128fb_sunablfqiwfqomjarht.jpg,00235940128fb.jpg,sunabclssnoeuigtawp.jpg,00267940128fb.jpg,sunablfqiwfqomjarht.jpg,,,>,Place,,,,,1,,,,,,,x
307,15,Presentation,6,00782941205fa_sunagfvluwixdsozaql.jpg,00071941031fa_sunaaexqbtdswxrqjvz.jpg,00782941205fa.jpg,sunagfvluwixdsozaql.jpg,00071941031fa.jpg,sunaaexqbtdswxrqjvz.jpg,,,>,Place,,,,,1,,,,,,,x
308,15,Presentation,6,00931960627fa_sunaptrqvaooxfvktvw.jpg,00858940307fa_sunaixpqndlwhwjtjek.jpg,00931960627fa.jpg,sunaptrqvaooxfvktvw.jpg,00858940307fa.jpg,sunaixpqndlwhwjtjek.jpg,,,>,Place,,,,,1,,,,,,,x
309,15,Presentation,6,00882960530fa_sunaknlirqjqiwbbeeg.jpg,00943960627fa_sunarpsxqkduedrrzyi.jpg,00882960530fa.jpg,sunaknlirqjqiwbbeeg.jpg,00943960627fa.jpg,sunarpsxqkduedrrzyi.jpg,,,>,Place,,,,,1,,,,,,,x
310,15,Memory,6,,,,,,,00638941031fa.jpg,,,,,,,,,,,,,,,
311,15,Memory,6,,,,,,,00829940307fa.jpg,,,,,,,,,,,,,,,
312,15,Memory,6,,,,,,,sunabrjdpmoedcdjbpo.jpg,,,,,,,,,,,,,,,
313,15,Memory,6,,,,,,,sunaakjaacuzulqckgl.jpg,,,,,,,,,,,,,,,
314,15,Memory,6,,,,,,,00747941201fa.jpg,,,,,,,,,,,,,,,
315,15,Memory,6,,,,,,,sunajrujcsdxmfbssmc.jpg,,,,,,,,,,,,,,,
316,15,Memory,6,,,,,,,sunadfktsqjthoglcsm.jpg,,,,,,,,,,,,,,,
317,15,Memory,6,,,,,,,sunabppokiyglaxpcha.jpg,,,,,,,,,,,,,,,
318,15,Memory,6,,,,,,,00267940128fb.jpg,,,,,,,,,,,,,,,
319,15,Memory,6,,,,,,,sunaajtnvzzpsjdzres.jpg,,,,,,,,,,,,,,,
320,15,Memory,6,,,,,,,sunahwgbqkqcrwprgvh.jpg,,,,,,,,,,,,,,,
321,15,Memory,6,,,,,,,00197940128fa.jpg,,,,,,,,,,,,,,,
322,15,Memory,6,,,,,,,00947960627fa.jpg,,,,,,,,,,,,,,,
323,15,Memory,6,,,,,,,sunaaylzyqlqrsmfwif.jpg,,,,,,,,,,,,,,,
324,15,Memory,6,,,,,,,sunaeutbrtswvsozxyk.jpg,,,,,,,,,,,,,,,
325,15,Memory,6,,,,,,,00292940422fb.jpg,,,,,,,,,,,,,,,
326,15,Memory,6,,,,,,,sunagmwxxwymwojbvgi.jpg,,,,,,,,,,,,,,,
327,15,Memory,6,,,,,,,00108960530fa.jpg,,,,,,,,,,,,,,,
328,15,Memory,6,,,,,,,sunarpsxqkduedrrzyi.jpg,,,,,,,,,,,,,,,
329,15,Memory,6,,,,,,,00112931230fa.jpg,,,,,,,,,,,,,,,
330,15,Memory,6,,,,,,,sunagfvluwixdsozaql.jpg,,,,,,,,,,,,,,,
331,15,Memory,6,,,,,,,00316940422fa.jpg,,,,,,,,,,,,,,,
332,15,Memory,6,,,,,,,00235940128fb.jpg,,,,,,,,,,,,,,,
333,15,Memory,6,,,,,,,sunasmmcxdddtmtazwx.jpg,,,,,,,,,,,,,,,
334,15,Memory,6,,,,,,,00288940422fa.jpg,,,,,,,,,,,,,,,
335,15,Memory,6,,,,,,,sunablfqiwfqomjarht.jpg,,,,,,,,,,,,,,,
336,15,Memory,6,,,,,,,sunacvjlsylseoghjup.jpg,,,,,,,,,,,,,,,
337,15,Memory,6,,,,,,,sunabxmguapjekttvwm.jpg,,,,,,,,,,,,,,,
338,15,Memory,6,,,,,,,sunabclssnoeuigtawp.jpg,,,,,,,,,,,,,,,
339,15,Memory,6,,,,,,,sunachtuarilwyqnvjx.jpg,,,,,,,,,,,,,,,
340,15,Memory,6,,,,,,,00787941205fa.jpg,,,,,,,,,,,,,,,
341,15,Memory,6,,,,,,,00782941205fa.jpg,,,,,,,,,,,,,,,
342,15,Memory,6,,,,,,,00871940307.jpg,,,,,,,,,,,,,,,
343,15,Memory,6,,,,,,,00793941205fa.jpg,,,,,,,,,,,,,,,
344,15,Memory,6,,,,,,,00576941031fa.jpg,,,,,,,,,,,,,,,
345,15,Memory,6,,,,,,,00997960627fa.jpg,,,,,,,,,,,,,,,
346,15,Memory,6,,,,,,,sunagtjwilqjvxohypn.jpg,,,,,,,,,,,,,,,
347,15,Memory,6,,,,,,,00943960627fa.jpg,,,,,,,,,,,,,,,
348,15,Memory,6,,,,,,,00557940519fa.jpg,,,,,,,,,,,,,,,
349,15,Memory,6,,,,,,,sunbtpilbhhbmhmeuzq.jpg,,,,,,,,,,,,,,,
350,15,Presentation,7,00062931230fb_sunaaelotvjgibjtjhs.jpg,00864940307fa_sunajawzbrlrwafowen.jpg,00062931230fb.jpg,sunaaelotvjgibjtjhs.jpg,00864940307fa.jpg,sunajawzbrlrwafowen.jpg,,,>,Place,,,,,1,,,,,,,x
351,15,Presentation,7,00126931230fb_sunaamdjwemxpmmtypi.jpg,00263940128fb_sunabjuovqvyfuzvqwt.jpg,00126931230fb.jpg,sunaamdjwemxpmmtypi.jpg,00263940128fb.jpg,sunabjuovqvyfuzvqwt.jpg,,,>,Place,,,,,1,,,,,,,o
352,15,Presentation,7,00968960627fa_sunbagfpovqwbuexqdn.jpg,00795941205fa_sunagtumacdlmciqamz.jpg,00968960627fa.jpg,sunbagfpovqwbuexqdn.jpg,00795941205fa.jpg,sunagtumacdlmciqamz.jpg,,,>,Place,,,,,1,,,,,,,o
353,15,Presentation,7,00766960620fa_sunafijbgncijwykrnl.jpg,00966960627fa_sunaygrtwrwfezqjizr.jpg,00766960620fa.jpg,sunafijbgncijwykrnl.jpg,00966960627fa.jpg,sunaygrtwrwfezqjizr.jpg,,,>,Place,,,,,1,,,,,,,o
354,15,Presentation,7,00869940307fa_sunajoveqhiprwqgoco.jpg,00144931230fb_sunaathajvxrgptwhoj.jpg,00869940307fa.jpg,sunajoveqhiprwqgoco.jpg,00144931230fb.jpg,sunaathajvxrgptwhoj.jpg,,,>,Place,,,,,0,,,,,,,x
355,15,Presentation,7,00809960620fa_sunahbvlpavurqoxdeq.jpg,00909960530_sunaobtizabegtwfwul.jpg,00809960620fa.jpg,sunahbvlpavurqoxdeq.jpg,00909960530.jpg,sunaobtizabegtwfwul.jpg,,,>,Place,,,,,1,,,,,,,x
356,15,Presentation,7,00483940519fa_sunabyvpwkgsjtijdwj.jpg,00796941205fa_sunaguchqqnrtodtezq.jpg,00483940519fa.jpg,sunabyvpwkgsjtijdwj.jpg,00796941205fa.jpg,sunaguchqqnrtodtezq.jpg,,,>,Place,,,,,1,,,,,,,o
357,15,Presentation,7,00631940928fa_sunadbdqzigzwipuipr.jpg,00810941205fa_sunahctntqrunhdxhtb.jpg,00631940928fa.jpg,sunadbdqzigzwipuipr.jpg,00810941205fa.jpg,sunahctntqrunhdxhtb.jpg,,,>,Place,,,,,1,,,,,,,o
358,15,Presentation,7,01207940128fa_sundbixjudsgeuuehrn.jpg,00598941031fa_sunacxtcahkymosigud.jpg,01207940128fa.jpg,sundbixjudsgeuuehrn.jpg,00598941031fa.jpg,sunacxtcahkymosigud.jpg,,,>,Place,,,,,1,,,,,,,x
359,15,Presentation,7,00787960620fa_sunagoufulkpsxrmklt.jpg,00745941205fa_sunaeouogqolxvggaoq.jpg,00787960620fa.jpg,sunagoufulkpsxrmklt.jpg,00745941205fa.jpg,sunaeouogqolxvggaoq.jpg,,,>,Place,,,,,1,,,,,,,o
360,15,Memory,7,,,,,,,sunaaelotvjgibjtjhs.jpg,,,,,,,,,,,,,,,
361,15,Memory,7,,,,,,,00631940928fa.jpg,,,,,,,,,,,,,,,
362,15,Memory,7,,,,,,,sunakodkcslgqhqlgwl.jpg,,,,,,,,,,,,,,,
363,15,Memory,7,,,,,,,00662941121fa.jpg,,,,,,,,,,,,,,,
364,15,Memory,7,,,,,,,sunaooaqzputrowwbsw.jpg,,,,,,,,,,,,,,,
365,15,Memory,7,,,,,,,sunacxtcahkymosigud.jpg,,,,,,,,,,,,,,,
366,15,Memory,7,,,,,,,00809960620fa.jpg,,,,,,,,,,,,,,,
367,15,Memory,7,,,,,,,00263940128fb.jpg,,,,,,,,,,,,,,,
368,15,Memory,7,,,,,,,00126931230fb.jpg,,,,,,,,,,,,,,,
369,15,Memory,7,,,,,,,00841940307fa.jpg,,,,,,,,,,,,,,,
370,15,Memory,7,,,,,,,sunadbdqzigzwipuipr.jpg,,,,,,,,,,,,,,,
371,15,Memory,7,,,,,,,sundbixjudsgeuuehrn.jpg,,,,,,,,,,,,,,,
372,15,Memory,7,,,,,,,sunadkazmlajmohnwfl.jpg,,,,,,,,,,,,,,,
373,15,Memory,7,,,,,,,sunbvzmgrdvaakxusbu.jpg,,,,,,,,,,,,,,,
374,15,Memory,7,,,,,,,00810941205fa.jpg,,,,,,,,,,,,,,,
375,15,Memory,7,,,,,,,sunahctntqrunhdxhtb.jpg,,,,,,,,,,,,,,,
376,15,Memory,7,,,,,,,sunbwaafjdebjzttuvq.jpg,,,,,,,,,,,,,,,
377,15,Memory,7,,,,,,,sunaavodbcpygkggnfp.jpg,,,,,,,,,,,,,,,
378,15,Memory,7,,,,,,,01000960627fa.jpg,,,,,,,,,,,,,,,
379,15,Memory,7,,,,,,,sunaeuzwggvibufclwf.jpg,,,,,,,,,,,,,,,
380,15,Memory,7,,,,,,,00911960530fa.jpg,,,,,,,,,,,,,,,
381,15,Memory,7,,,,,,,sunaisiwfgppimtnmxl.jpg,,,,,,,,,,,,,,,
382,15,Memory,7,,,,,,,sunaamdjwemxpmmtypi.jpg,,,,,,,,,,,,,,,
383,15,Memory,7,,,,,,,01207940128fa.jpg,,,,,,,,,,,,,,,
384,15,Memory,7,,,,,,,00884960530fa.jpg,,,,,,,,,,,,,,,
385,15,Memory,7,,,,,,,00749941201fa.jpg,,,,,,,,,,,,,,,
386,15,Memory,7,,,,,,,00860940307fa.jpg,,,,,,,,,,,,,,,
387,15,Memory,7,,,,,,,00750941201fa.jpg,,,,,,,,,,,,,,,
388,15,Memory,7,,,,,,,00909960530.jpg,,,,,,,,,,,,,,,
389,15,Memory,7,,,,,,,00598941031fa.jpg,,,,,,,,,,,,,,,
390,15,Memory,7,,,,,,,sunajawzbrlrwafowen.jpg,,,,,,,,,,,,,,,
391,15,Memory,7,,,,,,,00163931230fb.jpg,,,,,,,,,,,,,,,
392,15,Memory,7,,,,,,,sunahbvlpavurqoxdeq.jpg,,,,,,,,,,,,,,,
393,15,Memory,7,,,,,,,00062931230fb.jpg,,,,,,,,,,,,,,,
394,15,Memory,7,,,,,,,sunabjuovqvyfuzvqwt.jpg,,,,,,,,,,,,,,,
395,15,Memory,7,,,,,,,00864940307fa.jpg,,,,,,,,,,,,,,,
396,15,Memory,7,,,,,,,sunaeuvjbmdpknaqqaj.jpg,,,,,,,,,,,,,,,
397,15,Memory,7,,,,,,,01002960627fb.jpg,,,,,,,,,,,,,,,
398,15,Memory,7,,,,,,,sunaizeyhvjzknwjudw.jpg,,,,,,,,,,,,,,,
399,15,Memory,7,,,,,,,sunaobtizabegtwfwul.jpg,,,,,,,,,,,,,,,
