,Subject,Trial Type,Run,Cued Composite,Uncued Composite,Cued Face,Cued Place,Uncued Face,Uncued Place,Memory Image,Category,Cued Side,Cued Category,Attention Reaction Time (s),Familiarity Reaction Time (s),Familiarity Rating,Attention Level,Cue Validity,Post Invalid Cue,Pre Invalid Cue,Attention Button,Rating History,Stimulus Onset,Stimulus End,Attention Probe
0,26,Presentation,0,01004960627fa_sunbwtlihsuptkrckid.jpg,00860940307fa_sunaizeyhvjzknwjudw.jpg,01004960627fa.jpg,sunbwtlihsuptkrckid.jpg,00860940307fa.jpg,sunaizeyhvjzknwjudw.jpg,,,<,Place,,,,,1,,,,,,,o
1,26,Presentation,0,00095931230fa_sunaahzooisqkwlxwoz.jpg,00913960530fa_sunaooffzffbhcpirmm.jpg,00095931230fa.jpg,sunaahzooisqkwlxwoz.jpg,00913960530fa.jpg,sunaooffzffbhcpirmm.jpg,,,<,Place,,,,,1,,,,,,,x
2,26,Presentation,0,00882960530fa_sunaknlirqjqiwbbeeg.jpg,00292940422fb_sunabrjdpmoedcdjbpo.jpg,00882960530fa.jpg,sunaknlirqjqiwbbeeg.jpg,00292940422fb.jpg,sunabrjdpmoedcdjbpo.jpg,,,<,Place,,,,,1,,,,,,,o
3,26,Presentation,0,00576941031fa_sunacvjlsylseoghjup.jpg,00071940128fa_sunaaexpnawiehinlpy.jpg,00576941031fa.jpg,sunacvjlsylseoghjup.jpg,00071940128fa.jpg,sunaaexpnawiehinlpy.jpg,,,<,Place,,,,,1,,,,,,,x
4,26,Presentation,0,00963960627fa_sunayaepykrqvenaqqy.jpg,00783941205fa_sunagjeesomrwjsfqie.jpg,00963960627fa.jpg,sunayaepykrqvenaqqy.jpg,00783941205fa.jpg,sunagjeesomrwjsfqie.jpg,,,<,Place,,,,,1,,,,,,,x
5,26,Presentation,0,00681941121fa_sunadqmjrhfjyuzyvdd.jpg,00296940422fa_sunabrwnslxalcohfre.jpg,00681941121fa.jpg,sunadqmjrhfjyuzyvdd.jpg,00296940422fa.jpg,sunabrwnslxalcohfre.jpg,,,<,Place,,,,,1,,,,,,,o
6,26,Presentation,0,00529940519fa_sunacbeefkxpymwevpk.jpg,00218940128fa_sunabbwggenhfbftyvi.jpg,00529940519fa.jpg,sunacbeefkxpymwevpk.jpg,00218940128fa.jpg,sunabbwggenhfbftyvi.jpg,,,<,Place,,,,,0,,,,,,,x
7,26,Presentation,0,00967960627fa_sunbaejotfklekvpxcz.jpg,00922960627fa_sunapqkyghktgtosuuk.jpg,00967960627fa.jpg,sunbaejotfklekvpxcz.jpg,00922960627fa.jpg,sunapqkyghktgtosuuk.jpg,,,<,Place,,,,,1,,,,,,,x
8,26,Presentation,0,00773960620fa_sunafvsxtzaizojicxx.jpg,00966960627fa_sunaygrtwrwfezqjizr.jpg,00773960620fa.jpg,sunafvsxtzaizojicxx.jpg,00966960627fa.jpg,sunaygrtwrwfezqjizr.jpg,,,<,Place,,,,,1,,,,,,,x
9,26,Presentation,0,00984960627fa_sunbfzchmomnvzhbxdg.jpg,01009960627fa_sunbxzweleltykebgan.jpg,00984960627fa.jpg,sunbfzchmomnvzhbxdg.jpg,01009960627fa.jpg,sunbxzweleltykebgan.jpg,,,<,Place,,,,,1,,,,,,,o
10,26,Memory,0,,,,,,,sunbaoizrfijvhpnnjn.jpg,,,,,,,,,,,,,,,
11,26,Memory,0,,,,,,,sunbxzweleltykebgan.jpg,,,,,,,,,,,,,,,
12,26,Memory,0,,,,,,,sunbaejotfklekvpxcz.jpg,,,,,,,,,,,,,,,
13,26,Memory,0,,,,,,,00276940422fa.jpg,,,,,,,,,,,,,,,
14,26,Memory,0,,,,,,,01009960627fa.jpg,,,,,,,,,,,,,,,
15,26,Memory,0,,,,,,,sunbwtlihsuptkrckid.jpg,,,,,,,,,,,,,,,
16,26,Memory,0,,,,,,,00095931230fa.jpg,,,,,,,,,,,,,,,
17,26,Memory,0,,,,,,,sunaletopenvvozhpxc.jpg,,,,,,,,,,,,,,,
18,26,Memory,0,,,,,,,sunbfzchmomnvzhbxdg.jpg,,,,,,,,,,,,,,,
19,26,Memory,0,,,,,,,sunaddtdkycxbqlpfqa.jpg,,,,,,,,,,,,,,,
20,26,Memory,0,,,,,,,00218940128fa.jpg,,,,,,,,,,,,,,,
21,26,Memory,0,,,,,,,sunacvjlsylseoghjup.jpg,,,,,,,,,,,,,,,
22,26,Memory,0,,,,,,,00967960627fa.jpg,,,,,,,,,,,,,,,
23,26,Memory,0,,,,,,,00969960627fa.jpg,,,,,,,,,,,,,,,
24,26,Memory,0,,,,,,,sunacuatpqpqhyjhjqk.jpg,,,,,,,,,,,,,,,
25,26,Memory,0,,,,,,,sunabbwggenhfbftyvi.jpg,,,,,,,,,,,,,,,
26,26,Memory,0,,,,,,,sunaahzooisqkwlxwoz.jpg,,,,,,,,,,,,,,,
27,26,Memory,0,,,,,,,00783941205fa.jpg,,,,,,,,,,,,,,,
28,26,Memory,0,,,,,,,sunaaexpnawiehinlpy.jpg,,,,,,,,,,,,,,,
29,26,Memory,0,,,,,,,01010960627fa.jpg,,,,,,,,,,,,,,,
30,26,Memory,0,,,,,,,00984960627fa.jpg,,,,,,,,,,,,,,,
31,26,Memory,0,,,,,,,00663941121fa.jpg,,,,,,,,,,,,,,,
32,26,Memory,0,,,,,,,00889960530fa.jpg,,,,,,,,,,,,,,,
33,26,Memory,0,,,,,,,00065931230fb.jpg,,,,,,,,,,,,,,,
34,26,Memory,0,,,,,,,00922960627fa.jpg,,,,,,,,,,,,,,,
35,26,Memory,0,,,,,,,sunacerqowiaeoqkmsq.jpg,,,,,,,,,,,,,,,
36,26,Memory,0,,,,,,,sunadnjjzohjhbohlwq.jpg,,,,,,,,,,,,,,,
37,26,Memory,0,,,,,,,00631940928fa.jpg,,,,,,,,,,,,,,,
38,26,Memory,0,,,,,,,sunadbdqzigzwipuipr.jpg,,,,,,,,,,,,,,,
39,26,Memory,0,,,,,,,sunaaemixhfquhnxxlm.jpg,,,,,,,,,,,,,,,
40,26,Memory,0,,,,,,,00576941031fa.jpg,,,,,,,,,,,,,,,
41,26,Memory,0,,,,,,,01004960627fa.jpg,,,,,,,,,,,,,,,
42,26,Memory,0,,,,,,,sunapqkyghktgtosuuk.jpg,,,,,,,,,,,,,,,
43,26,Memory,0,,,,,,,00571940928fa.jpg,,,,,,,,,,,,,,,
44,26,Memory,0,,,,,,,suncnkvbhypnivcohyx.jpg,,,,,,,,,,,,,,,
45,26,Memory,0,,,,,,,sunagjeesomrwjsfqie.jpg,,,,,,,,,,,,,,,
46,26,Memory,0,,,,,,,00636941031fa.jpg,,,,,,,,,,,,,,,
47,26,Memory,0,,,,,,,00548940519fa.jpg,,,,,,,,,,,,,,,
48,26,Memory,0,,,,,,,sunabmytpyhsgigllxu.jpg,,,,,,,,,,,,,,,
49,26,Memory,0,,,,,,,00071940128fa.jpg,,,,,,,,,,,,,,,
50,26,Presentation,1,00835940307fa_sunaijsqpvodplbwxkf.jpg,00753941201fa_sunafcofuuzebuadceo.jpg,00835940307fa.jpg,sunaijsqpvodplbwxkf.jpg,00753941201fa.jpg,sunafcofuuzebuadceo.jpg,,,>,Face,,,,,1,,,,,,,x
51,26,Presentation,1,00959960627fa_sunavxokzybtomhbmvm.jpg,00306940422fa_sunabueyoajufbkraki.jpg,00959960627fa.jpg,sunavxokzybtomhbmvm.jpg,00306940422fa.jpg,sunabueyoajufbkraki.jpg,,,>,Face,,,,,1,,,,,,,x
52,26,Presentation,1,00797960620fa_sunagufzbeteqdjxais.jpg,00125931230fa_sunaalltyvjhbzhkmvg.jpg,00797960620fa.jpg,sunagufzbeteqdjxais.jpg,00125931230fa.jpg,sunaalltyvjhbzhkmvg.jpg,,,>,Face,,,,,1,,,,,,,o
53,26,Presentation,1,00574940928fa_sunacvbrcejzwmcgnoq.jpg,00752960620fa_sunafbwnojpqeyzssoe.jpg,00574940928fa.jpg,sunacvbrcejzwmcgnoq.jpg,00752960620fa.jpg,sunafbwnojpqeyzssoe.jpg,,,>,Face,,,,,1,,,,,,,x
54,26,Presentation,1,00115931230fa_sunaakmxzhuceuiryah.jpg,00839940307fa_sunaipyohrqlwngaqif.jpg,00115931230fa.jpg,sunaakmxzhuceuiryah.jpg,00839940307fa.jpg,sunaipyohrqlwngaqif.jpg,,,>,Face,,,,,1,,,,,,,x
55,26,Presentation,1,00313940422fa_sunabwjvmoaddlyxfjr.jpg,00754941201fa_sunaffgsyyvoqdlkmnk.jpg,00313940422fa.jpg,sunabwjvmoaddlyxfjr.jpg,00754941201fa.jpg,sunaffgsyyvoqdlkmnk.jpg,,,>,Face,,,,,1,,,,,,,x
56,26,Presentation,1,00857940307fa_sunaiwfobocrruqznsv.jpg,00772941201fa_sunafpfpiiujzoesnqg.jpg,00857940307fa.jpg,sunaiwfobocrruqznsv.jpg,00772941201fa.jpg,sunafpfpiiujzoesnqg.jpg,,,>,Face,,,,,1,,,,,,,x
57,26,Presentation,1,00971960627fa_sunbbegcweqnetpdlrh.jpg,00694941121fa_sunadrmfzmstgdjdcod.jpg,00971960627fa.jpg,sunbbegcweqnetpdlrh.jpg,00694941121fa.jpg,sunadrmfzmstgdjdcod.jpg,,,>,Face,,,,,1,,,,,,,x
58,26,Presentation,1,00073931230fa_sunaafbmtoniaasysgu.jpg,00154931230fa_sunaauueuhhvklldjik.jpg,00073931230fa.jpg,sunaafbmtoniaasysgu.jpg,00154931230fa.jpg,sunaauueuhhvklldjik.jpg,,,>,Face,,,,,1,,,,,,,o
59,26,Presentation,1,00910960530fa_sunaofikylqtxphvdem.jpg,00793941205fa_sunagtjwilqjvxohypn.jpg,00910960530fa.jpg,sunaofikylqtxphvdem.jpg,00793941205fa.jpg,sunagtjwilqjvxohypn.jpg,,,>,Face,,,,,1,,,,,,,o
60,26,Memory,1,,,,,,,sunafpfpiiujzoesnqg.jpg,,,,,,,,,,,,,,,
61,26,Memory,1,,,,,,,00841940307fa.jpg,,,,,,,,,,,,,,,
62,26,Memory,1,,,,,,,00835940307fa.jpg,,,,,,,,,,,,,,,
63,26,Memory,1,,,,,,,sunaalltyvjhbzhkmvg.jpg,,,,,,,,,,,,,,,
64,26,Memory,1,,,,,,,sunafbwnojpqeyzssoe.jpg,,,,,,,,,,,,,,,
65,26,Memory,1,,,,,,,sunaisiwfgppimtnmxl.jpg,,,,,,,,,,,,,,,
66,26,Memory,1,,,,,,,sunaafjszryxyavjzln.jpg,,,,,,,,,,,,,,,
67,26,Memory,1,,,,,,,sunaakjaacuzulqckgl.jpg,,,,,,,,,,,,,,,
68,26,Memory,1,,,,,,,00080931230fb.jpg,,,,,,,,,,,,,,,
69,26,Memory,1,,,,,,,00081941031fa.jpg,,,,,,,,,,,,,,,
70,26,Memory,1,,,,,,,00743941201fa.jpg,,,,,,,,,,,,,,,
71,26,Memory,1,,,,,,,00772941201fa.jpg,,,,,,,,,,,,,,,
72,26,Memory,1,,,,,,,00804960530fa.jpg,,,,,,,,,,,,,,,
73,26,Memory,1,,,,,,,sunaaftlyfudyzuhqzf.jpg,,,,,,,,,,,,,,,
74,26,Memory,1,,,,,,,sunaauueuhhvklldjik.jpg,,,,,,,,,,,,,,,
75,26,Memory,1,,,,,,,sunbbegcweqnetpdlrh.jpg,,,,,,,,,,,,,,,
76,26,Memory,1,,,,,,,00211940128fa.jpg,,,,,,,,,,,,,,,
77,26,Memory,1,,,,,,,00154931230fa.jpg,,,,,,,,,,,,,,,
78,26,Memory,1,,,,,,,00753941201fa.jpg,,,,,,,,,,,,,,,
79,26,Memory,1,,,,,,,00777941205fa.jpg,,,,,,,,,,,,,,,
80,26,Memory,1,,,,,,,sunaijsqpvodplbwxkf.jpg,,,,,,,,,,,,,,,
81,26,Memory,1,,,,,,,00125931230fa.jpg,,,,,,,,,,,,,,,
82,26,Memory,1,,,,,,,sunaiwfobocrruqznsv.jpg,,,,,,,,,,,,,,,
83,26,Memory,1,,,,,,,sunabasphceswhwwqvv.jpg,,,,,,,,,,,,,,,
84,26,Memory,1,,,,,,,sunaguchqqnrtodtezq.jpg,,,,,,,,,,,,,,,
85,26,Memory,1,,,,,,,00752960620fa.jpg,,,,,,,,,,,,,,,
86,26,Memory,1,,,,,,,00112931230fa.jpg,,,,,,,,,,,,,,,
87,26,Memory,1,,,,,,,sunagwswhkvnsmuszlz.jpg,,,,,,,,,,,,,,,
88,26,Memory,1,,,,,,,sunaakmxzhuceuiryah.jpg,,,,,,,,,,,,,,,
89,26,Memory,1,,,,,,,sunaauglwmctnkxyird.jpg,,,,,,,,,,,,,,,
90,26,Memory,1,,,,,,,sunafcofuuzebuadceo.jpg,,,,,,,,,,,,,,,
91,26,Memory,1,,,,,,,00857940307fa.jpg,,,,,,,,,,,,,,,
92,26,Memory,1,,,,,,,sunaofikylqtxphvdem.jpg,,,,,,,,,,,,,,,
93,26,Memory,1,,,,,,,00910960530fa.jpg,,,,,,,,,,,,,,,
94,26,Memory,1,,,,,,,00115931230fa.jpg,,,,,,,,,,,,,,,
95,26,Memory,1,,,,,,,sunaeoghzrjarigmwua.jpg,,,,,,,,,,,,,,,
96,26,Memory,1,,,,,,,00971960627fa.jpg,,,,,,,,,,,,,,,
97,26,Memory,1,,,,,,,00149931230fa.jpg,,,,,,,,,,,,,,,
98,26,Memory,1,,,,,,,sunagcinxkccdtrjmlv.jpg,,,,,,,,,,,,,,,
99,26,Memory,1,,,,,,,00796941205fa.jpg,,,,,,,,,,,,,,,
100,26,Presentation,2,00851940307fa_sunaivflshbyfrfzhqb.jpg,00098931230fa_sunaajpqmulidejvjsr.jpg,00851940307fa.jpg,sunaivflshbyfrfzhqb.jpg,00098931230fa.jpg,sunaajpqmulidejvjsr.jpg,,,>,Place,,,,,0,,,,,,,x
101,26,Presentation,2,00294940422fb_sunabrlndkruqokhury.jpg,00911960530fa_sunaooaqzputrowwbsw.jpg,00294940422fb.jpg,sunabrlndkruqokhury.jpg,00911960530fa.jpg,sunaooaqzputrowwbsw.jpg,,,>,Place,,,,,1,,,,,,,o
102,26,Presentation,2,00989960627fa_sunbondbduabvijnmch.jpg,00132931230fb_sunaanjcbzdvtvblsdy.jpg,00989960627fa.jpg,sunbondbduabvijnmch.jpg,00132931230fb.jpg,sunaanjcbzdvtvblsdy.jpg,,,>,Place,,,,,1,,,,,,,x
103,26,Presentation,2,00675941121fa_sunadoxcchtmsxewsau.jpg,00609940928fa_sunacycdoztxoluxjyk.jpg,00675941121fa.jpg,sunadoxcchtmsxewsau.jpg,00609940928fa.jpg,sunacycdoztxoluxjyk.jpg,,,>,Place,,,,,1,,,,,,,o
104,26,Presentation,2,00780960530fa_sunagetqixeypsysbpn.jpg,00221940128fa_sunabcfpwlpolnutyju.jpg,00780960530fa.jpg,sunagetqixeypsysbpn.jpg,00221940128fa.jpg,sunabcfpwlpolnutyju.jpg,,,>,Place,,,,,1,,,,,,,o
105,26,Presentation,2,00505960627fa_sunabzuqsrgcsonqlkz.jpg,00776941205fa_sunafxokyavhgptyfye.jpg,00505960627fa.jpg,sunabzuqsrgcsonqlkz.jpg,00776941205fa.jpg,sunafxokyavhgptyfye.jpg,,,>,Place,,,,,1,,,,,,,o
106,26,Presentation,2,00076931230fa_sunaafewhewbxmjiurz.jpg,00774941201fa_sunafvtpfczkzopbgue.jpg,00076931230fa.jpg,sunaafewhewbxmjiurz.jpg,00774941201fa.jpg,sunafvtpfczkzopbgue.jpg,,,>,Place,,,,,1,,,,,,,o
107,26,Presentation,2,00147931230fb_sunaatpkocdkocwxpkb.jpg,00914960620fa_sunaozisvwfbmlkfhzv.jpg,00147931230fb.jpg,sunaatpkocdkocwxpkb.jpg,00914960620fa.jpg,sunaozisvwfbmlkfhzv.jpg,,,>,Place,,,,,1,,,,,,,o
108,26,Presentation,2,00635941031fa_sunaddsaeicthrfbkhe.jpg,00543940519fa_sunacepzfrmtkiqonpy.jpg,00635941031fa.jpg,sunaddsaeicthrfbkhe.jpg,00543940519fa.jpg,sunacepzfrmtkiqonpy.jpg,,,>,Place,,,,,1,,,,,,,x
109,26,Presentation,2,00825940307fa_sunahrltmuwbiehihpe.jpg,00936960627fa_sunaqgjuuwvdcyiccjt.jpg,00825940307fa.jpg,sunahrltmuwbiehihpe.jpg,00936960627fa.jpg,sunaqgjuuwvdcyiccjt.jpg,,,>,Place,,,,,1,,,,,,,x
110,26,Memory,2,,,,,,,00076931230fa.jpg,,,,,,,,,,,,,,,
111,26,Memory,2,,,,,,,sunabcfpwlpolnutyju.jpg,,,,,,,,,,,,,,,
112,26,Memory,2,,,,,,,00208940128fa.jpg,,,,,,,,,,,,,,,
113,26,Memory,2,,,,,,,sunagcthdfirrcawoic.jpg,,,,,,,,,,,,,,,
114,26,Memory,2,,,,,,,00911960530fa.jpg,,,,,,,,,,,,,,,
115,26,Memory,2,,,,,,,sunahedfrhtcwpneund.jpg,,,,,,,,,,,,,,,
116,26,Memory,2,,,,,,,00132931230fb.jpg,,,,,,,,,,,,,,,
117,26,Memory,2,,,,,,,sunaapfaivxqoynnwwp.jpg,,,,,,,,,,,,,,,
118,26,Memory,2,,,,,,,sunaooaqzputrowwbsw.jpg,,,,,,,,,,,,,,,
119,26,Memory,2,,,,,,,sunaanjcbzdvtvblsdy.jpg,,,,,,,,,,,,,,,
120,26,Memory,2,,,,,,,00221940128fa.jpg,,,,,,,,,,,,,,,
121,26,Memory,2,,,,,,,sunaozisvwfbmlkfhzv.jpg,,,,,,,,,,,,,,,
122,26,Memory,2,,,,,,,00902960530fa.jpg,,,,,,,,,,,,,,,
123,26,Memory,2,,,,,,,00609940928fa.jpg,,,,,,,,,,,,,,,
124,26,Memory,2,,,,,,,00780960530fa.jpg,,,,,,,,,,,,,,,
125,26,Memory,2,,,,,,,sunagetqixeypsysbpn.jpg,,,,,,,,,,,,,,,
126,26,Memory,2,,,,,,,sunaeuzwggvibufclwf.jpg,,,,,,,,,,,,,,,
127,26,Memory,2,,,,,,,00505960627fa.jpg,,,,,,,,,,,,,,,
128,26,Memory,2,,,,,,,sunabzuqsrgcsonqlkz.jpg,,,,,,,,,,,,,,,
129,26,Memory,2,,,,,,,00778941205fa.jpg,,,,,,,,,,,,,,,
130,26,Memory,2,,,,,,,sunacycdoztxoluxjyk.jpg,,,,,,,,,,,,,,,
131,26,Memory,2,,,,,,,sunaafewhewbxmjiurz.jpg,,,,,,,,,,,,,,,
132,26,Memory,2,,,,,,,sunabrlndkruqokhury.jpg,,,,,,,,,,,,,,,
133,26,Memory,2,,,,,,,00825940307fa.jpg,,,,,,,,,,,,,,,
134,26,Memory,2,,,,,,,00811960530fa.jpg,,,,,,,,,,,,,,,
135,26,Memory,2,,,,,,,00294940422fb.jpg,,,,,,,,,,,,,,,
136,26,Memory,2,,,,,,,sunabxsbfwjccqxxzxq.jpg,,,,,,,,,,,,,,,
137,26,Memory,2,,,,,,,sunaizgnnplsvajzhkc.jpg,,,,,,,,,,,,,,,
138,26,Memory,2,,,,,,,00197940128fa.jpg,,,,,,,,,,,,,,,
139,26,Memory,2,,,,,,,00138931230fa.jpg,,,,,,,,,,,,,,,
140,26,Memory,2,,,,,,,00862940307fa.jpg,,,,,,,,,,,,,,,
141,26,Memory,2,,,,,,,00479940519fa.jpg,,,,,,,,,,,,,,,
142,26,Memory,2,,,,,,,sunaaylzyqlqrsmfwif.jpg,,,,,,,,,,,,,,,
143,26,Memory,2,,,,,,,sunahrltmuwbiehihpe.jpg,,,,,,,,,,,,,,,
144,26,Memory,2,,,,,,,sunaazzyhbvqjpmazjq.jpg,,,,,,,,,,,,,,,
145,26,Memory,2,,,,,,,sunagrmyoovzukhxmlo.jpg,,,,,,,,,,,,,,,
146,26,Memory,2,,,,,,,00791941205fa.jpg,,,,,,,,,,,,,,,
147,26,Memory,2,,,,,,,00914960620fa.jpg,,,,,,,,,,,,,,,
148,26,Memory,2,,,,,,,sunanaacmmosxrfwmvl.jpg,,,,,,,,,,,,,,,
149,26,Memory,2,,,,,,,00750941201fa.jpg,,,,,,,,,,,,,,,
150,26,Presentation,3,00227940128fa_sunabckqabszusgcykj.jpg,00773941201fa_sunafvcflzhlqloapyo.jpg,00227940128fa.jpg,sunabckqabszusgcykj.jpg,00773941201fa.jpg,sunafvcflzhlqloapyo.jpg,,,<,Face,,,,,0,,,,,,,o
151,26,Presentation,3,00999960627fa_sunbvbrvgbpanfrawft.jpg,00648941031fa_sunadfndyrtqqiasoig.jpg,00999960627fa.jpg,sunbvbrvgbpanfrawft.jpg,00648941031fa.jpg,sunadfndyrtqqiasoig.jpg,,,<,Face,,,,,1,,,,,,,x
152,26,Presentation,3,00762941201fa_sunafgzgbisbopcyslr.jpg,00949960627fb_sunasnqkkyhilqkxiqm.jpg,00762941201fa.jpg,sunafgzgbisbopcyslr.jpg,00949960627fb.jpg,sunasnqkkyhilqkxiqm.jpg,,,<,Face,,,,,1,,,,,,,o
153,26,Presentation,3,00993960627fa_sunbprywzqxjcezkbch.jpg,00761960627fa_sunafgdqbclkwfocdhg.jpg,00993960627fa.jpg,sunbprywzqxjcezkbch.jpg,00761960627fa.jpg,sunafgdqbclkwfocdhg.jpg,,,<,Face,,,,,1,,,,,,,o
154,26,Presentation,3,00784941205fb_sunagjzcrjvmxzqzljx.jpg,00705941205fa_sunadtlxenqqxsyjvix.jpg,00784941205fb.jpg,sunagjzcrjvmxzqzljx.jpg,00705941205fa.jpg,sunadtlxenqqxsyjvix.jpg,,,<,Face,,,,,1,,,,,,,x
155,26,Presentation,3,00271940422fa_sunabmbnddafmywtjjj.jpg,00921960627fa_sunapqkpqdfvxlbqwyo.jpg,00271940422fa.jpg,sunabmbnddafmywtjjj.jpg,00921960627fa.jpg,sunapqkpqdfvxlbqwyo.jpg,,,<,Face,,,,,1,,,,,,,o
156,26,Presentation,3,00127931230fa_sunaampvucecsfbdafn.jpg,00719941201fa_sunadvithllcgmfxsrn.jpg,00127931230fa.jpg,sunaampvucecsfbdafn.jpg,00719941201fa.jpg,sunadvithllcgmfxsrn.jpg,,,<,Face,,,,,1,,,,,,,x
157,26,Presentation,3,00564941031fa_sunacsaovnjezqwbykf.jpg,00162931230fb_sunaavjinpnkappuonm.jpg,00564941031fa.jpg,sunacsaovnjezqwbykf.jpg,00162931230fb.jpg,sunaavjinpnkappuonm.jpg,,,<,Face,,,,,1,,,,,,,o
158,26,Presentation,3,00988960627fa_sunbmaiocftdtvnzgap.jpg,00242940128fa_sunabcuurugvxwparpk.jpg,00988960627fa.jpg,sunbmaiocftdtvnzgap.jpg,00242940128fa.jpg,sunabcuurugvxwparpk.jpg,,,<,Face,,,,,1,,,,,,,o
159,26,Presentation,3,00977960627fa_sunbbxkanhzjgbwyxqs.jpg,00900960530fa_sunamlotskmmsjeogby.jpg,00977960627fa.jpg,sunbbxkanhzjgbwyxqs.jpg,00900960530fa.jpg,sunamlotskmmsjeogby.jpg,,,<,Face,,,,,1,,,,,,,o
160,26,Memory,3,,,,,,,sunadvithllcgmfxsrn.jpg,,,,,,,,,,,,,,,
161,26,Memory,3,,,,,,,00977960627fa.jpg,,,,,,,,,,,,,,,
162,26,Memory,3,,,,,,,sunafgdqbclkwfocdhg.jpg,,,,,,,,,,,,,,,
163,26,Memory,3,,,,,,,sunbbxkanhzjgbwyxqs.jpg,,,,,,,,,,,,,,,
164,26,Memory,3,,,,,,,sunapqkpqdfvxlbqwyo.jpg,,,,,,,,,,,,,,,
165,26,Memory,3,,,,,,,sunakodkcslgqhqlgwl.jpg,,,,,,,,,,,,,,,
166,26,Memory,3,,,,,,,00761960627fa.jpg,,,,,,,,,,,,,,,
167,26,Memory,3,,,,,,,sunbmaiocftdtvnzgap.jpg,,,,,,,,,,,,,,,
168,26,Memory,3,,,,,,,sunauburywlkjszngcq.jpg,,,,,,,,,,,,,,,
169,26,Memory,3,,,,,,,00955960627fb.jpg,,,,,,,,,,,,,,,
170,26,Memory,3,,,,,,,00921960627fa.jpg,,,,,,,,,,,,,,,
171,26,Memory,3,,,,,,,00719941201fa.jpg,,,,,,,,,,,,,,,
172,26,Memory,3,,,,,,,sunabckqabszusgcykj.jpg,,,,,,,,,,,,,,,
173,26,Memory,3,,,,,,,00828940307fa.jpg,,,,,,,,,,,,,,,
174,26,Memory,3,,,,,,,00768941205fa.jpg,,,,,,,,,,,,,,,
175,26,Memory,3,,,,,,,sunafkmnlytenlsywia.jpg,,,,,,,,,,,,,,,
176,26,Memory,3,,,,,,,sunbvbrvgbpanfrawft.jpg,,,,,,,,,,,,,,,
177,26,Memory,3,,,,,,,sunablfqiwfqomjarht.jpg,,,,,,,,,,,,,,,
178,26,Memory,3,,,,,,,00935960627fa.jpg,,,,,,,,,,,,,,,
179,26,Memory,3,,,,,,,00988960627fa.jpg,,,,,,,,,,,,,,,
180,26,Memory,3,,,,,,,sunaqbmgkgqucajzrkp.jpg,,,,,,,,,,,,,,,
181,26,Memory,3,,,,,,,sunagjzcrjvmxzqzljx.jpg,,,,,,,,,,,,,,,
182,26,Memory,3,,,,,,,00938960627fa.jpg,,,,,,,,,,,,,,,
183,26,Memory,3,,,,,,,sunapmfmzadmosuogaz.jpg,,,,,,,,,,,,,,,
184,26,Memory,3,,,,,,,00884960530fa.jpg,,,,,,,,,,,,,,,
185,26,Memory,3,,,,,,,00925960627fa.jpg,,,,,,,,,,,,,,,
186,26,Memory,3,,,,,,,00267940128fb.jpg,,,,,,,,,,,,,,,
187,26,Memory,3,,,,,,,sunaedtgwjvvziytspa.jpg,,,,,,,,,,,,,,,
188,26,Memory,3,,,,,,,00705941205fa.jpg,,,,,,,,,,,,,,,
189,26,Memory,3,,,,,,,00723941201fa.jpg,,,,,,,,,,,,,,,
190,26,Memory,3,,,,,,,sunamlotskmmsjeogby.jpg,,,,,,,,,,,,,,,
191,26,Memory,3,,,,,,,sunahuynahneraqftyz.jpg,,,,,,,,,,,,,,,
192,26,Memory,3,,,,,,,00919960620fa.jpg,,,,,,,,,,,,,,,
193,26,Memory,3,,,,,,,sunaqyylsngywqzwfmx.jpg,,,,,,,,,,,,,,,
194,26,Memory,3,,,,,,,00999960627fa.jpg,,,,,,,,,,,,,,,
195,26,Memory,3,,,,,,,sunapqwnqzxlsfvgsjm.jpg,,,,,,,,,,,,,,,
196,26,Memory,3,,,,,,,00784941205fb.jpg,,,,,,,,,,,,,,,
197,26,Memory,3,,,,,,,00227940128fa.jpg,,,,,,,,,,,,,,,
198,26,Memory,3,,,,,,,sunadtlxenqqxsyjvix.jpg,,,,,,,,,,,,,,,
199,26,Memory,3,,,,,,,00900960530fa.jpg,,,,,,,,,,,,,,,
200,26,Presentation,4,00097931230fa_sunaajayojuslbbnneg.jpg,00122931230fa_sunaakxjfbrrequcjmx.jpg,00097931230fa.jpg,sunaajayojuslbbnneg.jpg,00122931230fa.jpg,sunaakxjfbrrequcjmx.jpg,,,>,Place,,,,,1,,,,,,,x
201,26,Presentation,4,00123931230fb_sunaalcrrdbjgdztbiz.jpg,00965960627fa_sunaydywdmvlfddbxbk.jpg,00123931230fb.jpg,sunaalcrrdbjgdztbiz.jpg,00965960627fa.jpg,sunaydywdmvlfddbxbk.jpg,,,>,Place,,,,,1,,,,,,,o
202,26,Presentation,4,00062931230fb_sunaaelotvjgibjtjhs.jpg,00775941205fa_sunafvwfsmqkjrutjta.jpg,00062931230fb.jpg,sunaaelotvjgibjtjhs.jpg,00775941205fa.jpg,sunafvwfsmqkjrutjta.jpg,,,>,Place,,,,,1,,,,,,,x
203,26,Presentation,4,00847940307fa_sunaivdjruhkrfywfed.jpg,00089931230fa_sunaagcpoejbuzyvddd.jpg,00847940307fa.jpg,sunaivdjruhkrfywfed.jpg,00089931230fa.jpg,sunaagcpoejbuzyvddd.jpg,,,>,Place,,,,,1,,,,,,,x
204,26,Presentation,4,00598940928fa_sunacxeheuiigkcgquf.jpg,00968960627fa_sunbagfpovqwbuexqdn.jpg,00598940928fa.jpg,sunacxeheuiigkcgquf.jpg,00968960627fa.jpg,sunbagfpovqwbuexqdn.jpg,,,>,Place,,,,,1,,,,,,,o
205,26,Presentation,4,00270940422fb_sunabllobxadqcyttej.jpg,00316940422fa_sunabxmguapjekttvwm.jpg,00270940422fb.jpg,sunabllobxadqcyttej.jpg,00316940422fa.jpg,sunabxmguapjekttvwm.jpg,,,>,Place,,,,,1,,,,,,,x
206,26,Presentation,4,00498960627fa_sunabzjxlmkwnwzimua.jpg,00766960620fa_sunafijbgncijwykrnl.jpg,00498960627fa.jpg,sunabzjxlmkwnwzimua.jpg,00766960620fa.jpg,sunafijbgncijwykrnl.jpg,,,>,Place,,,,,1,,,,,,,x
207,26,Presentation,4,00749941201fa_sunaeuvjbmdpknaqqaj.jpg,00996960627fa_sunbpvgllfdejxcpjqp.jpg,00749941201fa.jpg,sunaeuvjbmdpknaqqaj.jpg,00996960627fa.jpg,sunbpvgllfdejxcpjqp.jpg,,,>,Place,,,,,1,,,,,,,x
208,26,Presentation,4,00864940307fa_sunajawzbrlrwafowen.jpg,00931960627fa_sunaptrqvaooxfvktvw.jpg,00864940307fa.jpg,sunajawzbrlrwafowen.jpg,00931960627fa.jpg,sunaptrqvaooxfvktvw.jpg,,,>,Place,,,,,1,,,,,,,o
209,26,Presentation,4,00662941121fa_sunadkazmlajmohnwfl.jpg,00090931230fa_sunaahedjlmtqekgyvj.jpg,00662941121fa.jpg,sunadkazmlajmohnwfl.jpg,00090931230fa.jpg,sunaahedjlmtqekgyvj.jpg,,,>,Place,,,,,0,,,,,,,o
210,26,Memory,4,,,,,,,00498960627fa.jpg,,,,,,,,,,,,,,,
211,26,Memory,4,,,,,,,00968960627fa.jpg,,,,,,,,,,,,,,,
212,26,Memory,4,,,,,,,sunaeisnjeetzmkbuad.jpg,,,,,,,,,,,,,,,
213,26,Memory,4,,,,,,,00554940519fa.jpg,,,,,,,,,,,,,,,
214,26,Memory,4,,,,,,,00741941201fa.jpg,,,,,,,,,,,,,,,
215,26,Memory,4,,,,,,,00598940928fa.jpg,,,,,,,,,,,,,,,
216,26,Memory,4,,,,,,,00727941205fa.jpg,,,,,,,,,,,,,,,
217,26,Memory,4,,,,,,,sunaemcowdozyphwknd.jpg,,,,,,,,,,,,,,,
218,26,Memory,4,,,,,,,sunajawzbrlrwafowen.jpg,,,,,,,,,,,,,,,
219,26,Memory,4,,,,,,,00965960627fa.jpg,,,,,,,,,,,,,,,
220,26,Memory,4,,,,,,,sunadochqcucscehsgk.jpg,,,,,,,,,,,,,,,
221,26,Memory,4,,,,,,,sunacxeheuiigkcgquf.jpg,,,,,,,,,,,,,,,
222,26,Memory,4,,,,,,,00670941121fa.jpg,,,,,,,,,,,,,,,
223,26,Memory,4,,,,,,,00719960620fa.jpg,,,,,,,,,,,,,,,
224,26,Memory,4,,,,,,,sunbwdrdvsweerwsdrj.jpg,,,,,,,,,,,,,,,
225,26,Memory,4,,,,,,,sunadzuvtmtmgupotmf.jpg,,,,,,,,,,,,,,,
226,26,Memory,4,,,,,,,sunbagfpovqwbuexqdn.jpg,,,,,,,,,,,,,,,
227,26,Memory,4,,,,,,,sunafvwfsmqkjrutjta.jpg,,,,,,,,,,,,,,,
228,26,Memory,4,,,,,,,sunaavtbadenwnzeutj.jpg,,,,,,,,,,,,,,,
229,26,Memory,4,,,,,,,sunaivdjruhkrfywfed.jpg,,,,,,,,,,,,,,,
230,26,Memory,4,,,,,,,sunabzjxlmkwnwzimua.jpg,,,,,,,,,,,,,,,
231,26,Memory,4,,,,,,,sunaahedjlmtqekgyvj.jpg,,,,,,,,,,,,,,,
232,26,Memory,4,,,,,,,sunagvprlbprarvgdvj.jpg,,,,,,,,,,,,,,,
233,26,Memory,4,,,,,,,sunaagcpoejbuzyvddd.jpg,,,,,,,,,,,,,,,
234,26,Memory,4,,,,,,,00775941205fa.jpg,,,,,,,,,,,,,,,
235,26,Memory,4,,,,,,,sunaajayojuslbbnneg.jpg,,,,,,,,,,,,,,,
236,26,Memory,4,,,,,,,sunaydywdmvlfddbxbk.jpg,,,,,,,,,,,,,,,
237,26,Memory,4,,,,,,,01003960627fb.jpg,,,,,,,,,,,,,,,
238,26,Memory,4,,,,,,,00089931230fa.jpg,,,,,,,,,,,,,,,
239,26,Memory,4,,,,,,,sunagountlxpzkytsmp.jpg,,,,,,,,,,,,,,,
240,26,Memory,4,,,,,,,00184940128fa.jpg,,,,,,,,,,,,,,,
241,26,Memory,4,,,,,,,00847940307fa.jpg,,,,,,,,,,,,,,,
242,26,Memory,4,,,,,,,00097931230fa.jpg,,,,,,,,,,,,,,,
243,26,Memory,4,,,,,,,sunahctntqrunhdxhtb.jpg,,,,,,,,,,,,,,,
244,26,Memory,4,,,,,,,sunacfdkbsrughwqwtt.jpg,,,,,,,,,,,,,,,
245,26,Memory,4,,,,,,,00090931230fa.jpg,,,,,,,,,,,,,,,
246,26,Memory,4,,,,,,,00788941205fa.jpg,,,,,,,,,,,,,,,
247,26,Memory,4,,,,,,,00810941205fa.jpg,,,,,,,,,,,,,,,
248,26,Memory,4,,,,,,,00864940307fa.jpg,,,,,,,,,,,,,,,
249,26,Memory,4,,,,,,,00801941205fa.jpg,,,,,,,,,,,,,,,
250,26,Presentation,5,00581940928fa_sunacvzhvcksnwqcqbw.jpg,00786941205fa_sunagmhildamktmqjss.jpg,00581940928fa.jpg,sunacvzhvcksnwqcqbw.jpg,00786941205fa.jpg,sunagmhildamktmqjss.jpg,,,<,Place,,,,,0,,,,,,,o
251,26,Presentation,5,00760960620fa_sunaffstbkappprzxnv.jpg,00302940422fa_sunabtlfmiwtljmoues.jpg,00760960620fa.jpg,sunaffstbkappprzxnv.jpg,00302940422fa.jpg,sunabtlfmiwtljmoues.jpg,,,<,Place,,,,,1,,,,,,,x
252,26,Presentation,5,00953960627fa_sunatstrpjxhvtbaczf.jpg,00101931230fb_sunaajqmsaavkmgbsth.jpg,00953960627fa.jpg,sunatstrpjxhvtbaczf.jpg,00101931230fb.jpg,sunaajqmsaavkmgbsth.jpg,,,<,Place,,,,,1,,,,,,,o
253,26,Presentation,5,00210940128fb_sunabanoxjtqxamkucc.jpg,00878960530fa_sunakgbnzxmfohgehnu.jpg,00210940128fb.jpg,sunabanoxjtqxamkucc.jpg,00878960530fa.jpg,sunakgbnzxmfohgehnu.jpg,,,<,Place,,,,,1,,,,,,,o
254,26,Presentation,5,01005960627fa_sunbwyuesflwdpqtgoy.jpg,00800941205fb_sunagvjurcwdbixvnyi.jpg,01005960627fa.jpg,sunbwyuesflwdpqtgoy.jpg,00800941205fb.jpg,sunagvjurcwdbixvnyi.jpg,,,<,Place,,,,,1,,,,,,,o
255,26,Presentation,5,00939960627fa_sunarceibpcyacbmfga.jpg,00638941031fa_sunadfktsqjthoglcsm.jpg,00939960627fa.jpg,sunarceibpcyacbmfga.jpg,00638941031fa.jpg,sunadfktsqjthoglcsm.jpg,,,<,Place,,,,,1,,,,,,,x
256,26,Presentation,5,00961960627fa_sunawotxrevnqvamsfp.jpg,00730960620fa_sunaekgzpfilgjxpeyq.jpg,00961960627fa.jpg,sunawotxrevnqvamsfp.jpg,00730960620fa.jpg,sunaekgzpfilgjxpeyq.jpg,,,<,Place,,,,,1,,,,,,,o
257,26,Presentation,5,00185940422fb_sunaawqdbpihmlbwyyn.jpg,00096931230fa_sunaaiqiqcggrskoqgy.jpg,00185940422fb.jpg,sunaawqdbpihmlbwyyn.jpg,00096931230fa.jpg,sunaaiqiqcggrskoqgy.jpg,,,<,Place,,,,,1,,,,,,,o
258,26,Presentation,5,00633940928fa_sunadbhmrgrrpyzglxs.jpg,00746941201fa_sunaetydippjxikifsb.jpg,00633940928fa.jpg,sunadbhmrgrrpyzglxs.jpg,00746941201fa.jpg,sunaetydippjxikifsb.jpg,,,<,Place,,,,,1,,,,,,,o
259,26,Presentation,5,00109931230fa_sunaajuzribjrizdshh.jpg,00634940928fa_sunadcphrizvfpljiqt.jpg,00109931230fa.jpg,sunaajuzribjrizdshh.jpg,00634940928fa.jpg,sunadcphrizvfpljiqt.jpg,,,<,Place,,,,,1,,,,,,,x
260,26,Memory,5,,,,,,,sunacsdhbbsybcyxnel.jpg,,,,,,,,,,,,,,,
261,26,Memory,5,,,,,,,00568940928fa.jpg,,,,,,,,,,,,,,,
262,26,Memory,5,,,,,,,00770941201fa.jpg,,,,,,,,,,,,,,,
263,26,Memory,5,,,,,,,sunaahwnmtqsrhocysw.jpg,,,,,,,,,,,,,,,
264,26,Memory,5,,,,,,,00939960627fa.jpg,,,,,,,,,,,,,,,
265,26,Memory,5,,,,,,,00101931230fb.jpg,,,,,,,,,,,,,,,
266,26,Memory,5,,,,,,,sunaffstbkappprzxnv.jpg,,,,,,,,,,,,,,,
267,26,Memory,5,,,,,,,00093931230fa.jpg,,,,,,,,,,,,,,,
268,26,Memory,5,,,,,,,00836940307fa.jpg,,,,,,,,,,,,,,,
269,26,Memory,5,,,,,,,00878960530fa.jpg,,,,,,,,,,,,,,,
270,26,Memory,5,,,,,,,sunawotxrevnqvamsfp.jpg,,,,,,,,,,,,,,,
271,26,Memory,5,,,,,,,sunabtlfmiwtljmoues.jpg,,,,,,,,,,,,,,,
272,26,Memory,5,,,,,,,00109931230fa.jpg,,,,,,,,,,,,,,,
273,26,Memory,5,,,,,,,sunagmhildamktmqjss.jpg,,,,,,,,,,,,,,,
274,26,Memory,5,,,,,,,sunaafvitpexrpvumsa.jpg,,,,,,,,,,,,,,,
275,26,Memory,5,,,,,,,sunakgbnzxmfohgehnu.jpg,,,,,,,,,,,,,,,
276,26,Memory,5,,,,,,,sunarceibpcyacbmfga.jpg,,,,,,,,,,,,,,,
277,26,Memory,5,,,,,,,sunaajqmsaavkmgbsth.jpg,,,,,,,,,,,,,,,
278,26,Memory,5,,,,,,,00302940422fa.jpg,,,,,,,,,,,,,,,
279,26,Memory,5,,,,,,,00082931230fa.jpg,,,,,,,,,,,,,,,
280,26,Memory,5,,,,,,,00564940928fa.jpg,,,,,,,,,,,,,,,
281,26,Memory,5,,,,,,,00786941205fa.jpg,,,,,,,,,,,,,,,
282,26,Memory,5,,,,,,,00633940928fa.jpg,,,,,,,,,,,,,,,
283,26,Memory,5,,,,,,,00869940307fa.jpg,,,,,,,,,,,,,,,
284,26,Memory,5,,,,,,,00760960620fa.jpg,,,,,,,,,,,,,,,
285,26,Memory,5,,,,,,,sunaekgzpfilgjxpeyq.jpg,,,,,,,,,,,,,,,
286,26,Memory,5,,,,,,,00314940422fa.jpg,,,,,,,,,,,,,,,
287,26,Memory,5,,,,,,,sunaapllqyqlykszopd.jpg,,,,,,,,,,,,,,,
288,26,Memory,5,,,,,,,sunajoveqhiprwqgoco.jpg,,,,,,,,,,,,,,,
289,26,Memory,5,,,,,,,00140931230fb.jpg,,,,,,,,,,,,,,,
290,26,Memory,5,,,,,,,00903960620fa.jpg,,,,,,,,,,,,,,,
291,26,Memory,5,,,,,,,sunadbhmrgrrpyzglxs.jpg,,,,,,,,,,,,,,,
292,26,Memory,5,,,,,,,sunanainkqdvktzoxyl.jpg,,,,,,,,,,,,,,,
293,26,Memory,5,,,,,,,sunabwmcbaxwioksdgw.jpg,,,,,,,,,,,,,,,
294,26,Memory,5,,,,,,,00730960620fa.jpg,,,,,,,,,,,,,,,
295,26,Memory,5,,,,,,,sunainqelldeebvxtcz.jpg,,,,,,,,,,,,,,,
296,26,Memory,5,,,,,,,sunaajuzribjrizdshh.jpg,,,,,,,,,,,,,,,
297,26,Memory,5,,,,,,,sunacmpqqfbsvlzinzl.jpg,,,,,,,,,,,,,,,
298,26,Memory,5,,,,,,,sunaflojskatpeqyzqp.jpg,,,,,,,,,,,,,,,
299,26,Memory,5,,,,,,,00961960627fa.jpg,,,,,,,,,,,,,,,
300,26,Presentation,6,00887960530_sunalcrtwiycqobgelp.jpg,00086931230fa_sunaafynehyrzpsoaml.jpg,00887960530.jpg,sunalcrtwiycqobgelp.jpg,00086931230fa.jpg,sunaafynehyrzpsoaml.jpg,,,<,Face,,,,,1,,,,,,,o
301,26,Presentation,6,00819940307fa_sunahqldjibofgsfdgb.jpg,00973960627fa_sunbbgtoeuzierkkajt.jpg,00819940307fa.jpg,sunahqldjibofgsfdgb.jpg,00973960627fa.jpg,sunbbgtoeuzierkkajt.jpg,,,<,Face,,,,,1,,,,,,,o
302,26,Presentation,6,00263940128fb_sunabjuovqvyfuzvqwt.jpg,00895960530fa_sunamczizlzavhzhpay.jpg,00263940128fb.jpg,sunabjuovqvyfuzvqwt.jpg,00895960530fa.jpg,sunamczizlzavhzhpay.jpg,,,<,Face,,,,,1,,,,,,,x
303,26,Presentation,6,00146960620fb_sunaatpeezlljqaxlhj.jpg,00795941205fa_sunagtumacdlmciqamz.jpg,00146960620fb.jpg,sunaatpeezlljqaxlhj.jpg,00795941205fa.jpg,sunagtumacdlmciqamz.jpg,,,<,Face,,,,,1,,,,,,,o
304,26,Presentation,6,00111931230fb_sunaakgekhjklxmvulj.jpg,00194940128fb_sunaayehfdqcyxggsej.jpg,00111931230fb.jpg,sunaakgekhjklxmvulj.jpg,00194940128fb.jpg,sunaayehfdqcyxggsej.jpg,,,<,Face,,,,,1,,,,,,,o
305,26,Presentation,6,00848940307fa_sunaivdylrawbmhryfp.jpg,00060931230fa_sunaaehaikpckyjsety.jpg,00848940307fa.jpg,sunaivdylrawbmhryfp.jpg,00060931230fa.jpg,sunaaehaikpckyjsety.jpg,,,<,Face,,,,,1,,,,,,,x
306,26,Presentation,6,00133931230fa_sunaanlwnpqndclffxt.jpg,00482940519fa_sunabyfxcxhdebvdyfd.jpg,00133931230fa.jpg,sunaanlwnpqndclffxt.jpg,00482940519fa.jpg,sunabyfxcxhdebvdyfd.jpg,,,<,Face,,,,,0,,,,,,,x
307,26,Presentation,6,00598941031fa_sunacxtcahkymosigud.jpg,00266940128fb_sunabkngeblodihjvbk.jpg,00598941031fa.jpg,sunacxtcahkymosigud.jpg,00266940128fb.jpg,sunabkngeblodihjvbk.jpg,,,<,Face,,,,,1,,,,,,,x
308,26,Presentation,6,00745941205fa_sunaeouogqolxvggaoq.jpg,00288940422fa_sunabppokiyglaxpcha.jpg,00745941205fa.jpg,sunaeouogqolxvggaoq.jpg,00288940422fa.jpg,sunabppokiyglaxpcha.jpg,,,<,Face,,,,,0,,,,,,,o
309,26,Presentation,6,00070940307fa_sunaaeplwsfslcbtojr.jpg,00976960627fa_sunbbhqyyzmsxhsbjmp.jpg,00070940307fa.jpg,sunaaeplwsfslcbtojr.jpg,00976960627fa.jpg,sunbbhqyyzmsxhsbjmp.jpg,,,<,Face,,,,,1,,,,,,,x
310,26,Memory,6,,,,,,,00070940307fa.jpg,,,,,,,,,,,,,,,
311,26,Memory,6,,,,,,,sunaaeplwsfslcbtojr.jpg,,,,,,,,,,,,,,,
312,26,Memory,6,,,,,,,sunaiwduelojtwaqeyh.jpg,,,,,,,,,,,,,,,
313,26,Memory,6,,,,,,,sunaduslxfzlbxlllnz.jpg,,,,,,,,,,,,,,,
314,26,Memory,6,,,,,,,sunaixpqndlwhwjtjek.jpg,,,,,,,,,,,,,,,
315,26,Memory,6,,,,,,,sunbbgtoeuzierkkajt.jpg,,,,,,,,,,,,,,,
316,26,Memory,6,,,,,,,00976960627fa.jpg,,,,,,,,,,,,,,,
317,26,Memory,6,,,,,,,00266940128fb.jpg,,,,,,,,,,,,,,,
318,26,Memory,6,,,,,,,00915960620fa.jpg,,,,,,,,,,,,,,,
319,26,Memory,6,,,,,,,sunalkiibhqpxfamlll.jpg,,,,,,,,,,,,,,,
320,26,Memory,6,,,,,,,sunahqldjibofgsfdgb.jpg,,,,,,,,,,,,,,,
321,26,Memory,6,,,,,,,00060931230fa.jpg,,,,,,,,,,,,,,,
322,26,Memory,6,,,,,,,sunaazezcsunmhttzxz.jpg,,,,,,,,,,,,,,,
323,26,Memory,6,,,,,,,sunacypmnujalygkunp.jpg,,,,,,,,,,,,,,,
324,26,Memory,6,,,,,,,sunavhxgmgrqsaptynb.jpg,,,,,,,,,,,,,,,
325,26,Memory,6,,,,,,,00507940519fa.jpg,,,,,,,,,,,,,,,
326,26,Memory,6,,,,,,,00854940307fa.jpg,,,,,,,,,,,,,,,
327,26,Memory,6,,,,,,,00562941031fa.jpg,,,,,,,,,,,,,,,
328,26,Memory,6,,,,,,,00858940307fa.jpg,,,,,,,,,,,,,,,
329,26,Memory,6,,,,,,,00086931230fa.jpg,,,,,,,,,,,,,,,
330,26,Memory,6,,,,,,,sunacacflqoyxhsqzhe.jpg,,,,,,,,,,,,,,,
331,26,Memory,6,,,,,,,sunabjuovqvyfuzvqwt.jpg,,,,,,,,,,,,,,,
332,26,Memory,6,,,,,,,00263940128fb.jpg,,,,,,,,,,,,,,,
333,26,Memory,6,,,,,,,sunaaehaikpckyjsety.jpg,,,,,,,,,,,,,,,
334,26,Memory,6,,,,,,,00891960530fa.jpg,,,,,,,,,,,,,,,
335,26,Memory,6,,,,,,,00819940307fa.jpg,,,,,,,,,,,,,,,
336,26,Memory,6,,,,,,,00745941205fa.jpg,,,,,,,,,,,,,,,
337,26,Memory,6,,,,,,,sunapileznnbbmrwoei.jpg,,,,,,,,,,,,,,,
338,26,Memory,6,,,,,,,sunaeouogqolxvggaoq.jpg,,,,,,,,,,,,,,,
339,26,Memory,6,,,,,,,sunaafynehyrzpsoaml.jpg,,,,,,,,,,,,,,,
340,26,Memory,6,,,,,,,sunacjnahdmqfnjfwqx.jpg,,,,,,,,,,,,,,,
341,26,Memory,6,,,,,,,00957960627fa.jpg,,,,,,,,,,,,,,,
342,26,Memory,6,,,,,,,00620940928fa.jpg,,,,,,,,,,,,,,,
343,26,Memory,6,,,,,,,sunabkngeblodihjvbk.jpg,,,,,,,,,,,,,,,
344,26,Memory,6,,,,,,,sunbbhqyyzmsxhsbjmp.jpg,,,,,,,,,,,,,,,
345,26,Memory,6,,,,,,,00705960530fa.jpg,,,,,,,,,,,,,,,
346,26,Memory,6,,,,,,,sunaakgekhjklxmvulj.jpg,,,,,,,,,,,,,,,
347,26,Memory,6,,,,,,,00973960627fa.jpg,,,,,,,,,,,,,,,
348,26,Memory,6,,,,,,,00111931230fb.jpg,,,,,,,,,,,,,,,
349,26,Memory,6,,,,,,,00198940128fb.jpg,,,,,,,,,,,,,,,
350,26,Presentation,7,00245940128fa_sunabeyhmxodahoieyk.jpg,00650941031fa_sunadikxpvqeabxrvvc.jpg,00245940128fa.jpg,sunabeyhmxodahoieyk.jpg,00650941031fa.jpg,sunadikxpvqeabxrvvc.jpg,,,>,Face,,,,,1,,,,,,,x
351,26,Presentation,7,00979960627fa_sunbdycacjfaujxitbw.jpg,00827940307fa_sunahtfxgsrmkiulnwk.jpg,00979960627fa.jpg,sunbdycacjfaujxitbw.jpg,00827940307fa.jpg,sunahtfxgsrmkiulnwk.jpg,,,>,Face,,,,,1,,,,,,,x
352,26,Presentation,7,00929960627fa_sunaprnrbmgkomdbchr.jpg,00193940928fa_sunaaxjpzcnxligjtjq.jpg,00929960627fa.jpg,sunaprnrbmgkomdbchr.jpg,00193940928fa.jpg,sunaaxjpzcnxligjtjq.jpg,,,>,Face,,,,,1,,,,,,,x
353,26,Presentation,7,00866940307fa_sunajbwkywmsqkldfml.jpg,00124931230fa_sunaalhlvzmjmitybdn.jpg,00866940307fa.jpg,sunajbwkywmsqkldfml.jpg,00124931230fa.jpg,sunaalhlvzmjmitybdn.jpg,,,>,Face,,,,,1,,,,,,,x
354,26,Presentation,7,00829940307fa_sunahwgbqkqcrwprgvh.jpg,00909960530_sunaobtizabegtwfwul.jpg,00829940307fa.jpg,sunahwgbqkqcrwprgvh.jpg,00909960530.jpg,sunaobtizabegtwfwul.jpg,,,>,Face,,,,,1,,,,,,,o
355,26,Presentation,7,01007960627fa_sunbxarcshsnqsefemx.jpg,00990960627fa_sunbpflsdaxnddnwcqi.jpg,01007960627fa.jpg,sunbxarcshsnqsefemx.jpg,00990960627fa.jpg,sunbpflsdaxnddnwcqi.jpg,,,>,Face,,,,,1,,,,,,,x
356,26,Presentation,7,00290940422fa_sunabqowuarvqqcnipn.jpg,00812941205fa_sunahgtbwgsmtqeodwh.jpg,00290940422fa.jpg,sunabqowuarvqqcnipn.jpg,00812941205fa.jpg,sunahgtbwgsmtqeodwh.jpg,,,>,Face,,,,,0,,,,,,,x
357,26,Presentation,7,00809960620fa_sunahbvlpavurqoxdeq.jpg,00983960627fa_sunbfyvfqiimvdaxlqn.jpg,00809960620fa.jpg,sunahbvlpavurqoxdeq.jpg,00983960627fa.jpg,sunbfyvfqiimvdaxlqn.jpg,,,>,Face,,,,,1,,,,,,,o
358,26,Presentation,7,00901960530fa_sunammbnoambmhdxdwd.jpg,00894960620fa_sunalqmfgeadpqsyzpd.jpg,00901960530fa.jpg,sunammbnoambmhdxdwd.jpg,00894960620fa.jpg,sunalqmfgeadpqsyzpd.jpg,,,>,Face,,,,,1,,,,,,,o
359,26,Presentation,7,00985960627fa_sunbgklxeqjhdbyfhhy.jpg,00937960627fa_sunaqsolmfydodnakub.jpg,00985960627fa.jpg,sunbgklxeqjhdbyfhhy.jpg,00937960627fa.jpg,sunaqsolmfydodnakub.jpg,,,>,Face,,,,,1,,,,,,,o
360,26,Memory,7,,,,,,,00540940519fa.jpg,,,,,,,,,,,,,,,
361,26,Memory,7,,,,,,,sunbesrwkdsffeogeqq.jpg,,,,,,,,,,,,,,,
362,26,Memory,7,,,,,,,00163931230fb.jpg,,,,,,,,,,,,,,,
363,26,Memory,7,,,,,,,sunabeyhmxodahoieyk.jpg,,,,,,,,,,,,,,,
364,26,Memory,7,,,,,,,sunabkmdplkdbvxriff.jpg,,,,,,,,,,,,,,,
365,26,Memory,7,,,,,,,sunaavodbcpygkggnfp.jpg,,,,,,,,,,,,,,,
366,26,Memory,7,,,,,,,sunaqsolmfydodnakub.jpg,,,,,,,,,,,,,,,
367,26,Memory,7,,,,,,,sunahtfxgsrmkiulnwk.jpg,,,,,,,,,,,,,,,
368,26,Memory,7,,,,,,,sunaafgqutfaishsxyu.jpg,,,,,,,,,,,,,,,
369,26,Memory,7,,,,,,,sunaaexqbtdswxrqjvz.jpg,,,,,,,,,,,,,,,
370,26,Memory,7,,,,,,,00077931230fb.jpg,,,,,,,,,,,,,,,
371,26,Memory,7,,,,,,,00838940307fa.jpg,,,,,,,,,,,,,,,
372,26,Memory,7,,,,,,,00827940307fa.jpg,,,,,,,,,,,,,,,
373,26,Memory,7,,,,,,,00937960627fa.jpg,,,,,,,,,,,,,,,
374,26,Memory,7,,,,,,,sunadikxpvqeabxrvvc.jpg,,,,,,,,,,,,,,,
375,26,Memory,7,,,,,,,00650941031fa.jpg,,,,,,,,,,,,,,,
376,26,Memory,7,,,,,,,00866940307fa.jpg,,,,,,,,,,,,,,,
377,26,Memory,7,,,,,,,00124931230fa.jpg,,,,,,,,,,,,,,,
378,26,Memory,7,,,,,,,00790941205fa.jpg,,,,,,,,,,,,,,,
379,26,Memory,7,,,,,,,00559940519fa.jpg,,,,,,,,,,,,,,,
380,26,Memory,7,,,,,,,00982960627fa.jpg,,,,,,,,,,,,,,,
381,26,Memory,7,,,,,,,00245940128fa.jpg,,,,,,,,,,,,,,,
382,26,Memory,7,,,,,,,sunaalhlvzmjmitybdn.jpg,,,,,,,,,,,,,,,
383,26,Memory,7,,,,,,,sunagpjzsbltchlwvou.jpg,,,,,,,,,,,,,,,
384,26,Memory,7,,,,,,,00071941031fa.jpg,,,,,,,,,,,,,,,
385,26,Memory,7,,,,,,,sunahwgbqkqcrwprgvh.jpg,,,,,,,,,,,,,,,
386,26,Memory,7,,,,,,,sunammbnoambmhdxdwd.jpg,,,,,,,,,,,,,,,
387,26,Memory,7,,,,,,,00193940928fa.jpg,,,,,,,,,,,,,,,
388,26,Memory,7,,,,,,,sunbdycacjfaujxitbw.jpg,,,,,,,,,,,,,,,
389,26,Memory,7,,,,,,,sunacdnquypmsshhsbk.jpg,,,,,,,,,,,,,,,
390,26,Memory,7,,,,,,,sunaenwuebvlpdmntju.jpg,,,,,,,,,,,,,,,
391,26,Memory,7,,,,,,,sunajbwkywmsqkldfml.jpg,,,,,,,,,,,,,,,
392,26,Memory,7,,,,,,,sunaaxjpzcnxligjtjq.jpg,,,,,,,,,,,,,,,
393,26,Memory,7,,,,,,,00742941201fa.jpg,,,,,,,,,,,,,,,
394,26,Memory,7,,,,,,,00979960627fa.jpg,,,,,,,,,,,,,,,
395,26,Memory,7,,,,,,,00265940128fb.jpg,,,,,,,,,,,,,,,
396,26,Memory,7,,,,,,,sunacjkmnpawfzbyvae.jpg,,,,,,,,,,,,,,,
397,26,Memory,7,,,,,,,00829940307fa.jpg,,,,,,,,,,,,,,,
398,26,Memory,7,,,,,,,00901960530fa.jpg,,,,,,,,,,,,,,,
399,26,Memory,7,,,,,,,sunaiozxhxgtfrmoagh.jpg,,,,,,,,,,,,,,,
