,Subject,Trial Type,Run,Cued Composite,Uncued Composite,Cued Face,Cued Place,Uncued Face,Uncued Place,Memory Image,Category,Cued Side,Cued Category,Attention Reaction Time (s),Familiarity Reaction Time (s),Familiarity Rating,Attention Level,Cue Validity,Post Invalid Cue,Pre Invalid Cue,Attention Button,Rating History,Stimulus Onset,Stimulus End,Attention Probe
260,26,Memory,5,,,,,,,sunacsdhbbsybcyxnel.jpg,,,,,1.269,2.0,,,,,,,1539792116.519615,1539792119.020997,
261,26,Memory,5,,,,,,,00568940928fa.jpg,,,,,1.203,2.0,,,,,,,1539792120.404169,1539792122.922083,
262,26,Memory,5,,,,,,,00770941201fa.jpg,,,,,0.701,3.0,,,,,,,1539792124.289043,1539792126.806219,
263,26,Memory,5,,,,,,,sunaahwnmtqsrhocysw.jpg,,,,,0.968,3.0,,,,,,,1539792128.190463,1539792130.640667,
264,26,Memory,5,,,,,,,00939960627fa.jpg,,,,,0.904,2.0,,,,,,,1539792132.056837,1539792134.425438,
265,26,Memory,5,,,,,,,00101931230fb.jpg,,,,,0.786,3.0,,,,,,,1539792135.892233,1539792138.259647,
266,26,Memory,5,,,,,,,sunaffstbkappprzxnv.jpg,,,,,0.97,2.0,,,,,,,1539792139.710747,1539792142.026495,
267,26,Memory,5,,,,,,,00093931230fa.jpg,,,,,1.07,3.0,,,,,,,1539792143.478918,1539792145.846012,
268,26,Memory,5,,,,,,,00836940307fa.jpg,,,,,0.77,2.0,,,,,,,1539792147.246288,1539792149.562756,
269,26,Memory,5,,,,,,,00878960530fa.jpg,,,,,0.953,3.0,,,,,,,1539792150.930337,1539792153.348889,
270,26,Memory,5,,,,,,,sunawotxrevnqvamsfp.jpg,,,,,0.786,3.0,,,,,,,1539792154.731411,1539792157.148708,
271,26,Memory,5,,,,,,,sunabtlfmiwtljmoues.jpg,,,,,1.45,2.0,,,,,,,1539792158.551239,1539792161.100408,
272,26,Memory,5,,,,,,,00109931230fa.jpg,,,,,0.72,3.0,,,,,,,1539792162.450382,1539792164.919428,
273,26,Memory,5,,,,,,,sunagmhildamktmqjss.jpg,,,,,1.52,2.0,,,,,,,1539792166.285301,1539792168.570153,
274,26,Memory,5,,,,,,,sunaafvitpexrpvumsa.jpg,,,,,0.702,3.0,,,,,,,1539792170.00359,1539792172.337734,
275,26,Memory,5,,,,,,,sunakgbnzxmfohgehnu.jpg,,,,,1.587,2.0,,,,,,,1539792173.838632,1539792176.171816,
276,26,Memory,5,,,,,,,sunarceibpcyacbmfga.jpg,,,,,0.921,3.0,,,,,,,1539792177.572246,1539792180.040885,
277,26,Memory,5,,,,,,,sunaajqmsaavkmgbsth.jpg,,,,,0.771,2.0,,,,,,,1539792181.557178,1539792184.008219,
278,26,Memory,5,,,,,,,00302940422fa.jpg,,,,,0.834,3.0,,,,,,,1539792185.39163,1539792187.859669,
279,26,Memory,5,,,,,,,00082931230fa.jpg,,,,,1.121,2.0,,,,,,,1539792189.209538,1539792191.759867,
280,26,Memory,5,,,,,,,00564940928fa.jpg,,,,,1.104,3.0,,,,,,,1539792193.160996,1539792195.745377,
281,26,Memory,5,,,,,,,00786941205fa.jpg,,,,,1.188,3.0,,,,,,,1539792197.128162,1539792199.430014,
282,26,Memory,5,,,,,,,00633940928fa.jpg,,,,,1.37,3.0,,,,,,,1539792200.830364,1539792203.115536,
283,26,Memory,5,,,,,,,00869940307fa.jpg,,,,,0.984,3.0,,,,,,,1539792204.531578,1539792206.931744,
284,26,Memory,5,,,,,,,00760960620fa.jpg,,,,,0.838,2.0,,,,,,,1539792208.233398,1539792210.68258,
285,26,Memory,5,,,,,,,sunaekgzpfilgjxpeyq.jpg,,,,,1.271,4.0,,,,,,,1539792212.067553,1539792214.517691,
286,26,Memory,5,,,,,,,00314940422fa.jpg,,,,,0.686,3.0,,,,,,,1539792215.901924,1539792218.25269,
287,26,Memory,5,,,,,,,sunaapllqyqlykszopd.jpg,,,,,1.154,2.0,,,,,,,1539792219.653125,1539792222.154344,
288,26,Memory,5,,,,,,,sunajoveqhiprwqgoco.jpg,,,,,1.183,2.0,,,,,,,1539792223.537453,1539792226.038487,
289,26,Memory,5,,,,,,,00140931230fb.jpg,,,,,0.704,2.0,,,,,,,1539792227.53779,1539792229.956373,
290,26,Memory,5,,,,,,,00903960620fa.jpg,,,,,1.303,3.0,,,,,,,1539792231.389933,1539792233.774079,
291,26,Memory,5,,,,,,,sunadbhmrgrrpyzglxs.jpg,,,,,1.086,3.0,,,,,,,1539792235.124734,1539792237.591121,
292,26,Memory,5,,,,,,,sunanainkqdvktzoxyl.jpg,,,,,1.115,2.0,,,,,,,1539792239.026226,1539792241.441898,
293,26,Memory,5,,,,,,,sunabwmcbaxwioksdgw.jpg,,,,,1.037,3.0,,,,,,,1539792242.842731,1539792245.21165,
294,26,Memory,5,,,,,,,00730960620fa.jpg,,,,,0.886,2.0,,,,,,,1539792246.629051,1539792249.063767,
295,26,Memory,5,,,,,,,sunainqelldeebvxtcz.jpg,,,,,1.07,3.0,,,,,,,1539792250.445955,1539792252.930544,
296,26,Memory,5,,,,,,,sunaajuzribjrizdshh.jpg,,,,,1.553,3.0,,,,,,,1539792254.347166,1539792256.664212,
297,26,Memory,5,,,,,,,sunacmpqqfbsvlzinzl.jpg,,,,,2.17,2.0,,,,,,,1539792258.016116,1539792260.36576,
298,26,Memory,5,,,,,,,sunaflojskatpeqyzqp.jpg,,,,,1.835,2.0,,,,,,,1539792261.765752,1539792264.166597,
299,26,Memory,5,,,,,,,00961960627fa.jpg,,,,,0.784,3.0,,,,,,,1539792265.58474,1539792268.03561,
