,Subject,Trial Type,Run,Cued Composite,Uncued Composite,Cued Face,Cued Place,Uncued Face,Uncued Place,Memory Image,Category,Cued Side,Cued Category,Attention Reaction Time (s),Familiarity Reaction Time (s),Familiarity Rating,Attention Level,Cue Validity,Post Invalid Cue,Pre Invalid Cue,Attention Button,Rating History,Stimulus Onset,Stimulus End,Attention Probe
0,31,Presentation,0,00548940519fa_sunacerqowiaeoqkmsq.jpg,00483940519fa_sunabyvpwkgsjtijdwj.jpg,00548940519fa.jpg,sunacerqowiaeoqkmsq.jpg,00483940519fa.jpg,sunabyvpwkgsjtijdwj.jpg,,,<,Face,,,,,1,,,,,,,x
1,31,Presentation,0,00936960627fa_sunaqgjuuwvdcyiccjt.jpg,00598941031fa_sunacxtcahkymosigud.jpg,00936960627fa.jpg,sunaqgjuuwvdcyiccjt.jpg,00598941031fa.jpg,sunacxtcahkymosigud.jpg,,,<,Face,,,,,1,,,,,,,x
2,31,Presentation,0,00127931230fa_sunaampvucecsfbdafn.jpg,00780960530fa_sunagetqixeypsysbpn.jpg,00127931230fa.jpg,sunaampvucecsfbdafn.jpg,00780960530fa.jpg,sunagetqixeypsysbpn.jpg,,,<,Face,,,,,1,,,,,,,o
3,31,Presentation,0,00908960530fa_sunanwjjyqqwzqrqagd.jpg,00972960627fa_sunbbfqwjpdxniyhies.jpg,00908960530fa.jpg,sunanwjjyqqwzqrqagd.jpg,00972960627fa.jpg,sunbbfqwjpdxniyhies.jpg,,,<,Face,,,,,1,,,,,,,o
4,31,Presentation,0,00869940307fa_sunajoveqhiprwqgoco.jpg,00145931230fb_sunaatjesvdupctftmn.jpg,00869940307fa.jpg,sunajoveqhiprwqgoco.jpg,00145931230fb.jpg,sunaatjesvdupctftmn.jpg,,,<,Face,,,,,0,,,,,,,o
5,31,Presentation,0,00620940928fa_sunacypmnujalygkunp.jpg,00854940307fa_sunaiwduelojtwaqeyh.jpg,00620940928fa.jpg,sunacypmnujalygkunp.jpg,00854940307fa.jpg,sunaiwduelojtwaqeyh.jpg,,,<,Face,,,,,1,,,,,,,x
6,31,Presentation,0,00761960627fa_sunafgdqbclkwfocdhg.jpg,00751960620fa_sunaezuszgtxnmsxdbk.jpg,00761960627fa.jpg,sunafgdqbclkwfocdhg.jpg,00751960620fa.jpg,sunaezuszgtxnmsxdbk.jpg,,,<,Face,,,,,1,,,,,,,x
7,31,Presentation,0,00498960627fa_sunabzjxlmkwnwzimua.jpg,00943960627fa_sunarpsxqkduedrrzyi.jpg,00498960627fa.jpg,sunabzjxlmkwnwzimua.jpg,00943960627fa.jpg,sunarpsxqkduedrrzyi.jpg,,,<,Face,,,,,0,,,,,,,x
8,31,Presentation,0,00942960627fa_sunarfdklgdnjgeqfjg.jpg,00790941205fa_sunagpjzsbltchlwvou.jpg,00942960627fa.jpg,sunarfdklgdnjgeqfjg.jpg,00790941205fa.jpg,sunagpjzsbltchlwvou.jpg,,,<,Face,,,,,1,,,,,,,x
9,31,Presentation,0,00271940422fa_sunabmbnddafmywtjjj.jpg,00062931230fb_sunaaelotvjgibjtjhs.jpg,00271940422fa.jpg,sunabmbnddafmywtjjj.jpg,00062931230fb.jpg,sunaaelotvjgibjtjhs.jpg,,,<,Face,,,,,1,,,,,,,x
10,31,Memory,0,,,,,,,sunagetqixeypsysbpn.jpg,,,,,,,,,,,,,,,
11,31,Memory,0,,,,,,,sunasbbntuiheekqyaq.jpg,,,,,,,,,,,,,,,
12,31,Memory,0,,,,,,,sunajawzbrlrwafowen.jpg,,,,,,,,,,,,,,,
13,31,Memory,0,,,,,,,00950960627fa.jpg,,,,,,,,,,,,,,,
14,31,Memory,0,,,,,,,00870940307fa.jpg,,,,,,,,,,,,,,,
15,31,Memory,0,,,,,,,00854940307fa.jpg,,,,,,,,,,,,,,,
16,31,Memory,0,,,,,,,sunacerqowiaeoqkmsq.jpg,,,,,,,,,,,,,,,
17,31,Memory,0,,,,,,,00211940128fa.jpg,,,,,,,,,,,,,,,
18,31,Memory,0,,,,,,,sunarfdklgdnjgeqfjg.jpg,,,,,,,,,,,,,,,
19,31,Memory,0,,,,,,,sunaiozxhxgtfrmoagh.jpg,,,,,,,,,,,,,,,
20,31,Memory,0,,,,,,,00780960530fa.jpg,,,,,,,,,,,,,,,
21,31,Memory,0,,,,,,,sunaajspcoepticvplv.jpg,,,,,,,,,,,,,,,
22,31,Memory,0,,,,,,,00620940928fa.jpg,,,,,,,,,,,,,,,
23,31,Memory,0,,,,,,,00972960627fa.jpg,,,,,,,,,,,,,,,
24,31,Memory,0,,,,,,,00792941205fa.jpg,,,,,,,,,,,,,,,
25,31,Memory,0,,,,,,,00102931230fa.jpg,,,,,,,,,,,,,,,
26,31,Memory,0,,,,,,,sunagsiwrmuixqgdimb.jpg,,,,,,,,,,,,,,,
27,31,Memory,0,,,,,,,00838940307fa.jpg,,,,,,,,,,,,,,,
28,31,Memory,0,,,,,,,sunaaeplwsfslcbtojr.jpg,,,,,,,,,,,,,,,
29,31,Memory,0,,,,,,,sunaiwduelojtwaqeyh.jpg,,,,,,,,,,,,,,,
30,31,Memory,0,,,,,,,00805941205fa.jpg,,,,,,,,,,,,,,,
31,31,Memory,0,,,,,,,sunabzjxlmkwnwzimua.jpg,,,,,,,,,,,,,,,
32,31,Memory,0,,,,,,,00908960530fa.jpg,,,,,,,,,,,,,,,
33,31,Memory,0,,,,,,,sunajrgtewnualfcerj.jpg,,,,,,,,,,,,,,,
34,31,Memory,0,,,,,,,sunabasphceswhwwqvv.jpg,,,,,,,,,,,,,,,
35,31,Memory,0,,,,,,,00498960627fa.jpg,,,,,,,,,,,,,,,
36,31,Memory,0,,,,,,,sunacxtcahkymosigud.jpg,,,,,,,,,,,,,,,
37,31,Memory,0,,,,,,,00864940307fa.jpg,,,,,,,,,,,,,,,
38,31,Memory,0,,,,,,,00548940519fa.jpg,,,,,,,,,,,,,,,
39,31,Memory,0,,,,,,,00070940307fa.jpg,,,,,,,,,,,,,,,
40,31,Memory,0,,,,,,,sunaezuszgtxnmsxdbk.jpg,,,,,,,,,,,,,,,
41,31,Memory,0,,,,,,,sunbbfqwjpdxniyhies.jpg,,,,,,,,,,,,,,,
42,31,Memory,0,,,,,,,00598941031fa.jpg,,,,,,,,,,,,,,,
43,31,Memory,0,,,,,,,00751960620fa.jpg,,,,,,,,,,,,,,,
44,31,Memory,0,,,,,,,00942960627fa.jpg,,,,,,,,,,,,,,,
45,31,Memory,0,,,,,,,00944960627fa.jpg,,,,,,,,,,,,,,,
46,31,Memory,0,,,,,,,sunacypmnujalygkunp.jpg,,,,,,,,,,,,,,,
47,31,Memory,0,,,,,,,sunanwjjyqqwzqrqagd.jpg,,,,,,,,,,,,,,,
48,31,Memory,0,,,,,,,sunagwzdbtlixdhgolm.jpg,,,,,,,,,,,,,,,
49,31,Memory,0,,,,,,,sunasrjlmglmjzbmqxb.jpg,,,,,,,,,,,,,,,
50,31,Presentation,1,00892960530fa_sunalntxqqadigcletd.jpg,00262940128fa_sunabizydfotqddlnjp.jpg,00892960530fa.jpg,sunalntxqqadigcletd.jpg,00262940128fa.jpg,sunabizydfotqddlnjp.jpg,,,>,Place,,,,,1,,,,,,,o
51,31,Presentation,1,00973960627fa_sunbbgtoeuzierkkajt.jpg,00921960627fa_sunapqkpqdfvxlbqwyo.jpg,00973960627fa.jpg,sunbbgtoeuzierkkajt.jpg,00921960627fa.jpg,sunapqkpqdfvxlbqwyo.jpg,,,>,Place,,,,,1,,,,,,,o
52,31,Presentation,1,00903960620fa_sunanainkqdvktzoxyl.jpg,00142931230fb_sunaapxkpvrhpjplsok.jpg,00903960620fa.jpg,sunanainkqdvktzoxyl.jpg,00142931230fb.jpg,sunaapxkpvrhpjplsok.jpg,,,>,Place,,,,,1,,,,,,,o
53,31,Presentation,1,00101931230fb_sunaajqmsaavkmgbsth.jpg,00482940519fa_sunabyfxcxhdebvdyfd.jpg,00101931230fb.jpg,sunaajqmsaavkmgbsth.jpg,00482940519fa.jpg,sunabyfxcxhdebvdyfd.jpg,,,>,Place,,,,,1,,,,,,,x
54,31,Presentation,1,01010960627fa_suncnkvbhypnivcohyx.jpg,00505960627fa_sunabzuqsrgcsonqlkz.jpg,01010960627fa.jpg,suncnkvbhypnivcohyx.jpg,00505960627fa.jpg,sunabzuqsrgcsonqlkz.jpg,,,>,Place,,,,,1,,,,,,,x
55,31,Presentation,1,00784941205fb_sunagjzcrjvmxzqzljx.jpg,00967960627fa_sunbaejotfklekvpxcz.jpg,00784941205fb.jpg,sunagjzcrjvmxzqzljx.jpg,00967960627fa.jpg,sunbaejotfklekvpxcz.jpg,,,>,Place,,,,,1,,,,,,,o
56,31,Presentation,1,00063931230fa_sunaaelyvurpntclgau.jpg,00154931230fa_sunaauueuhhvklldjik.jpg,00063931230fa.jpg,sunaaelyvurpntclgau.jpg,00154931230fa.jpg,sunaauueuhhvklldjik.jpg,,,>,Place,,,,,1,,,,,,,o
57,31,Presentation,1,00889960530fa_sunaletopenvvozhpxc.jpg,00694941121fa_sunadrmfzmstgdjdcod.jpg,00889960530fa.jpg,sunaletopenvvozhpxc.jpg,00694941121fa.jpg,sunadrmfzmstgdjdcod.jpg,,,>,Place,,,,,1,,,,,,,x
58,31,Presentation,1,00810941205fa_sunahctntqrunhdxhtb.jpg,00901960530fa_sunammbnoambmhdxdwd.jpg,00810941205fa.jpg,sunahctntqrunhdxhtb.jpg,00901960530fa.jpg,sunammbnoambmhdxdwd.jpg,,,>,Place,,,,,1,,,,,,,o
59,31,Presentation,1,00986960627fa_sunbgzjryivyczuvkvm.jpg,01009960627fa_sunbxzweleltykebgan.jpg,00986960627fa.jpg,sunbgzjryivyczuvkvm.jpg,01009960627fa.jpg,sunbxzweleltykebgan.jpg,,,>,Place,,,,,1,,,,,,,x
60,31,Memory,1,,,,,,,sunagjzcrjvmxzqzljx.jpg,,,,,,,,,,,,,,,
61,31,Memory,1,,,,,,,sunaaelyvurpntclgau.jpg,,,,,,,,,,,,,,,
62,31,Memory,1,,,,,,,00783941205fa.jpg,,,,,,,,,,,,,,,
63,31,Memory,1,,,,,,,sunadrmfzmstgdjdcod.jpg,,,,,,,,,,,,,,,
64,31,Memory,1,,,,,,,sunadsgmtznewzyasnk.jpg,,,,,,,,,,,,,,,
65,31,Memory,1,,,,,,,00124931230fa.jpg,,,,,,,,,,,,,,,
66,31,Memory,1,,,,,,,sunbbhqyyzmsxhsbjmp.jpg,,,,,,,,,,,,,,,
67,31,Memory,1,,,,,,,sunaalhlvzmjmitybdn.jpg,,,,,,,,,,,,,,,
68,31,Memory,1,,,,,,,sunapqkpqdfvxlbqwyo.jpg,,,,,,,,,,,,,,,
69,31,Memory,1,,,,,,,00988960627fa.jpg,,,,,,,,,,,,,,,
70,31,Memory,1,,,,,,,00235940128fb.jpg,,,,,,,,,,,,,,,
71,31,Memory,1,,,,,,,sunanainkqdvktzoxyl.jpg,,,,,,,,,,,,,,,
72,31,Memory,1,,,,,,,00063931230fa.jpg,,,,,,,,,,,,,,,
73,31,Memory,1,,,,,,,00892960530fa.jpg,,,,,,,,,,,,,,,
74,31,Memory,1,,,,,,,sunaamsdyakblkfoydx.jpg,,,,,,,,,,,,,,,
75,31,Memory,1,,,,,,,sunadnjjzohjhbohlwq.jpg,,,,,,,,,,,,,,,
76,31,Memory,1,,,,,,,00129931230fb.jpg,,,,,,,,,,,,,,,
77,31,Memory,1,,,,,,,00784941205fb.jpg,,,,,,,,,,,,,,,
78,31,Memory,1,,,,,,,sunagvprlbprarvgdvj.jpg,,,,,,,,,,,,,,,
79,31,Memory,1,,,,,,,00663941121fa.jpg,,,,,,,,,,,,,,,
80,31,Memory,1,,,,,,,sunahctntqrunhdxhtb.jpg,,,,,,,,,,,,,,,
81,31,Memory,1,,,,,,,00633940928fa.jpg,,,,,,,,,,,,,,,
82,31,Memory,1,,,,,,,00976960627fa.jpg,,,,,,,,,,,,,,,
83,31,Memory,1,,,,,,,sunaapxkpvrhpjplsok.jpg,,,,,,,,,,,,,,,
84,31,Memory,1,,,,,,,sunabclssnoeuigtawp.jpg,,,,,,,,,,,,,,,
85,31,Memory,1,,,,,,,sunabyfxcxhdebvdyfd.jpg,,,,,,,,,,,,,,,
86,31,Memory,1,,,,,,,00700941121fa.jpg,,,,,,,,,,,,,,,
87,31,Memory,1,,,,,,,sunbaejotfklekvpxcz.jpg,,,,,,,,,,,,,,,
88,31,Memory,1,,,,,,,00903960620fa.jpg,,,,,,,,,,,,,,,
89,31,Memory,1,,,,,,,sunagjeesomrwjsfqie.jpg,,,,,,,,,,,,,,,
90,31,Memory,1,,,,,,,00694941121fa.jpg,,,,,,,,,,,,,,,
91,31,Memory,1,,,,,,,00482940519fa.jpg,,,,,,,,,,,,,,,
92,31,Memory,1,,,,,,,sunadbhmrgrrpyzglxs.jpg,,,,,,,,,,,,,,,
93,31,Memory,1,,,,,,,sunbmaiocftdtvnzgap.jpg,,,,,,,,,,,,,,,
94,31,Memory,1,,,,,,,00967960627fa.jpg,,,,,,,,,,,,,,,
95,31,Memory,1,,,,,,,sunalntxqqadigcletd.jpg,,,,,,,,,,,,,,,
96,31,Memory,1,,,,,,,00921960627fa.jpg,,,,,,,,,,,,,,,
97,31,Memory,1,,,,,,,00142931230fb.jpg,,,,,,,,,,,,,,,
98,31,Memory,1,,,,,,,00810941205fa.jpg,,,,,,,,,,,,,,,
99,31,Memory,1,,,,,,,00801941205fa.jpg,,,,,,,,,,,,,,,
100,31,Presentation,2,00989960627fa_sunbondbduabvijnmch.jpg,00860940307fa_sunaizeyhvjzknwjudw.jpg,00989960627fa.jpg,sunbondbduabvijnmch.jpg,00860940307fa.jpg,sunaizeyhvjzknwjudw.jpg,,,<,Place,,,,,1,,,,,,,o
101,31,Presentation,2,00803941205fa_sunagvxkjokqimstxpe.jpg,00777941205fa_sunagcinxkccdtrjmlv.jpg,00803941205fa.jpg,sunagvxkjokqimstxpe.jpg,00777941205fa.jpg,sunagcinxkccdtrjmlv.jpg,,,<,Place,,,,,1,,,,,,,x
102,31,Presentation,2,00076931230fa_sunaafewhewbxmjiurz.jpg,00749941201fa_sunaeuvjbmdpknaqqaj.jpg,00076931230fa.jpg,sunaafewhewbxmjiurz.jpg,00749941201fa.jpg,sunaeuvjbmdpknaqqaj.jpg,,,<,Place,,,,,1,,,,,,,x
103,31,Presentation,2,00965960627fa_sunaydywdmvlfddbxbk.jpg,01005960627fa_sunbwyuesflwdpqtgoy.jpg,00965960627fa.jpg,sunaydywdmvlfddbxbk.jpg,01005960627fa.jpg,sunbwyuesflwdpqtgoy.jpg,,,<,Place,,,,,1,,,,,,,x
104,31,Presentation,2,00795941205fa_sunagtumacdlmciqamz.jpg,00096931230fa_sunaaiqiqcggrskoqgy.jpg,00795941205fa.jpg,sunagtumacdlmciqamz.jpg,00096931230fa.jpg,sunaaiqiqcggrskoqgy.jpg,,,<,Place,,,,,1,,,,,,,x
105,31,Presentation,2,00771941205fa_sunafowswglhxcsufpo.jpg,00210940128fb_sunabanoxjtqxamkucc.jpg,00771941205fa.jpg,sunafowswglhxcsufpo.jpg,00210940128fb.jpg,sunabanoxjtqxamkucc.jpg,,,<,Place,,,,,1,,,,,,,o
106,31,Presentation,2,00952960627fa_sunathzzbcwjykldrem.jpg,00093931230fa_sunaahwnmtqsrhocysw.jpg,00952960627fa.jpg,sunathzzbcwjykldrem.jpg,00093931230fa.jpg,sunaahwnmtqsrhocysw.jpg,,,<,Place,,,,,1,,,,,,,o
107,31,Presentation,2,00140931230fb_sunaapllqyqlykszopd.jpg,00851940307fa_sunaivflshbyfrfzhqb.jpg,00140931230fb.jpg,sunaapllqyqlykszopd.jpg,00851940307fa.jpg,sunaivflshbyfrfzhqb.jpg,,,<,Place,,,,,1,,,,,,,o
108,31,Presentation,2,00812941205fa_sunahgtbwgsmtqeodwh.jpg,00825940307fa_sunahrltmuwbiehihpe.jpg,00812941205fa.jpg,sunahgtbwgsmtqeodwh.jpg,00825940307fa.jpg,sunahrltmuwbiehihpe.jpg,,,<,Place,,,,,1,,,,,,,o
109,31,Presentation,2,00859940307fa_sunaiycurtqsfkvcaso.jpg,00911960530fa_sunaooaqzputrowwbsw.jpg,00859940307fa.jpg,sunaiycurtqsfkvcaso.jpg,00911960530fa.jpg,sunaooaqzputrowwbsw.jpg,,,<,Place,,,,,1,,,,,,,x
110,31,Memory,2,,,,,,,sunabkmdplkdbvxriff.jpg,,,,,,,,,,,,,,,
111,31,Memory,2,,,,,,,sunagcinxkccdtrjmlv.jpg,,,,,,,,,,,,,,,
112,31,Memory,2,,,,,,,00071941031fa.jpg,,,,,,,,,,,,,,,
113,31,Memory,2,,,,,,,sunaafewhewbxmjiurz.jpg,,,,,,,,,,,,,,,
114,31,Memory,2,,,,,,,00096931230fa.jpg,,,,,,,,,,,,,,,
115,31,Memory,2,,,,,,,00093931230fa.jpg,,,,,,,,,,,,,,,
116,31,Memory,2,,,,,,,sunaahwnmtqsrhocysw.jpg,,,,,,,,,,,,,,,
117,31,Memory,2,,,,,,,00807941205fa.jpg,,,,,,,,,,,,,,,
118,31,Memory,2,,,,,,,00140931230fb.jpg,,,,,,,,,,,,,,,
119,31,Memory,2,,,,,,,00860940307fa.jpg,,,,,,,,,,,,,,,
120,31,Memory,2,,,,,,,sunafowswglhxcsufpo.jpg,,,,,,,,,,,,,,,
121,31,Memory,2,,,,,,,sunaooaqzputrowwbsw.jpg,,,,,,,,,,,,,,,
122,31,Memory,2,,,,,,,00133931230fa.jpg,,,,,,,,,,,,,,,
123,31,Memory,2,,,,,,,00265940128fb.jpg,,,,,,,,,,,,,,,
124,31,Memory,2,,,,,,,00911960530fa.jpg,,,,,,,,,,,,,,,
125,31,Memory,2,,,,,,,sunbgklxeqjhdbyfhhy.jpg,,,,,,,,,,,,,,,
126,31,Memory,2,,,,,,,sunaaiqiqcggrskoqgy.jpg,,,,,,,,,,,,,,,
127,31,Memory,2,,,,,,,00795941205fa.jpg,,,,,,,,,,,,,,,
128,31,Memory,2,,,,,,,sunagtumacdlmciqamz.jpg,,,,,,,,,,,,,,,
129,31,Memory,2,,,,,,,00728941205fa.jpg,,,,,,,,,,,,,,,
130,31,Memory,2,,,,,,,00076931230fa.jpg,,,,,,,,,,,,,,,
131,31,Memory,2,,,,,,,sunaaexqbtdswxrqjvz.jpg,,,,,,,,,,,,,,,
132,31,Memory,2,,,,,,,sunahawfngukizslzsd.jpg,,,,,,,,,,,,,,,
133,31,Memory,2,,,,,,,00819940307fa.jpg,,,,,,,,,,,,,,,
134,31,Memory,2,,,,,,,sunaiycurtqsfkvcaso.jpg,,,,,,,,,,,,,,,
135,31,Memory,2,,,,,,,00264940128fb.jpg,,,,,,,,,,,,,,,
136,31,Memory,2,,,,,,,00859940307fa.jpg,,,,,,,,,,,,,,,
137,31,Memory,2,,,,,,,00771941205fa.jpg,,,,,,,,,,,,,,,
138,31,Memory,2,,,,,,,00108960530fa.jpg,,,,,,,,,,,,,,,
139,31,Memory,2,,,,,,,sunaanlwnpqndclffxt.jpg,,,,,,,,,,,,,,,
140,31,Memory,2,,,,,,,sunaajtnvzzpsjdzres.jpg,,,,,,,,,,,,,,,
141,31,Memory,2,,,,,,,sunaapllqyqlykszopd.jpg,,,,,,,,,,,,,,,
142,31,Memory,2,,,,,,,sunaejnvnpltdmhbcsi.jpg,,,,,,,,,,,,,,,
143,31,Memory,2,,,,,,,sunaqsolmfydodnakub.jpg,,,,,,,,,,,,,,,
144,31,Memory,2,,,,,,,00985960627fa.jpg,,,,,,,,,,,,,,,
145,31,Memory,2,,,,,,,00937960627fa.jpg,,,,,,,,,,,,,,,
146,31,Memory,2,,,,,,,sunabjzyxcjnmztdonj.jpg,,,,,,,,,,,,,,,
147,31,Memory,2,,,,,,,sunaizeyhvjzknwjudw.jpg,,,,,,,,,,,,,,,
148,31,Memory,2,,,,,,,00777941205fa.jpg,,,,,,,,,,,,,,,
149,31,Memory,2,,,,,,,sunahqldjibofgsfdgb.jpg,,,,,,,,,,,,,,,
150,31,Presentation,3,00914960620fa_sunaozisvwfbmlkfhzv.jpg,00529940519fa_sunacbeefkxpymwevpk.jpg,00914960620fa.jpg,sunaozisvwfbmlkfhzv.jpg,00529940519fa.jpg,sunacbeefkxpymwevpk.jpg,,,>,Place,,,,,1,,,,,,,o
151,31,Presentation,3,00782941205fa_sunagfvluwixdsozaql.jpg,00559940519fa_sunacjkmnpawfzbyvae.jpg,00782941205fa.jpg,sunagfvluwixdsozaql.jpg,00559940519fa.jpg,sunacjkmnpawfzbyvae.jpg,,,>,Place,,,,,1,,,,,,,x
152,31,Presentation,3,00543940519fa_sunacepzfrmtkiqonpy.jpg,00898960530fa_sunamkmeblgteyggink.jpg,00543940519fa.jpg,sunacepzfrmtkiqonpy.jpg,00898960530fa.jpg,sunamkmeblgteyggink.jpg,,,>,Place,,,,,1,,,,,,,o
153,31,Presentation,3,00905960530fa_sunanmoqeyprjjjfxjt.jpg,00958960627fa_sunavspxmxubqaeidjt.jpg,00905960530fa.jpg,sunanmoqeyprjjjfxjt.jpg,00958960627fa.jpg,sunavspxmxubqaeidjt.jpg,,,>,Place,,,,,1,,,,,,,o
154,31,Presentation,3,00938960627fa_sunaqyylsngywqzwfmx.jpg,00788941205fa_sunagountlxpzkytsmp.jpg,00938960627fa.jpg,sunaqyylsngywqzwfmx.jpg,00788941205fa.jpg,sunagountlxpzkytsmp.jpg,,,>,Place,,,,,1,,,,,,,x
155,31,Presentation,3,00260940128fa_sunabgfhvifeijihhjw.jpg,01003960627fb_sunbwdrdvsweerwsdrj.jpg,00260940128fa.jpg,sunabgfhvifeijihhjw.jpg,01003960627fb.jpg,sunbwdrdvsweerwsdrj.jpg,,,>,Place,,,,,1,,,,,,,x
156,31,Presentation,3,00987960627fa_sunbloeoiozwjjsiamp.jpg,00507940519fa_sunacacflqoyxhsqzhe.jpg,00987960627fa.jpg,sunbloeoiozwjjsiamp.jpg,00507940519fa.jpg,sunacacflqoyxhsqzhe.jpg,,,>,Place,,,,,1,,,,,,,x
157,31,Presentation,3,00081941031fa_sunaaftlyfudyzuhqzf.jpg,00730960620fa_sunaekgzpfilgjxpeyq.jpg,00081941031fa.jpg,sunaaftlyfudyzuhqzf.jpg,00730960620fa.jpg,sunaekgzpfilgjxpeyq.jpg,,,>,Place,,,,,1,,,,,,,x
158,31,Presentation,3,00242940128fa_sunabcuurugvxwparpk.jpg,00069931230fb_sunaaeowapdkwzqpgqr.jpg,00242940128fa.jpg,sunabcuurugvxwparpk.jpg,00069931230fb.jpg,sunaaeowapdkwzqpgqr.jpg,,,>,Place,,,,,1,,,,,,,o
159,31,Presentation,3,00786941205fa_sunagmhildamktmqjss.jpg,00086931230fa_sunaafynehyrzpsoaml.jpg,00786941205fa.jpg,sunagmhildamktmqjss.jpg,00086931230fa.jpg,sunaafynehyrzpsoaml.jpg,,,>,Place,,,,,1,,,,,,,x
160,31,Memory,3,,,,,,,00529940519fa.jpg,,,,,,,,,,,,,,,
161,31,Memory,3,,,,,,,00086931230fa.jpg,,,,,,,,,,,,,,,
162,31,Memory,3,,,,,,,00747941201fa.jpg,,,,,,,,,,,,,,,
163,31,Memory,3,,,,,,,00540940519fa.jpg,,,,,,,,,,,,,,,
164,31,Memory,3,,,,,,,00060931230fa.jpg,,,,,,,,,,,,,,,
165,31,Memory,3,,,,,,,sunacepzfrmtkiqonpy.jpg,,,,,,,,,,,,,,,
166,31,Memory,3,,,,,,,sunaaftlyfudyzuhqzf.jpg,,,,,,,,,,,,,,,
167,31,Memory,3,,,,,,,00847940307fa.jpg,,,,,,,,,,,,,,,
168,31,Memory,3,,,,,,,00069931230fb.jpg,,,,,,,,,,,,,,,
169,31,Memory,3,,,,,,,sunaaeowapdkwzqpgqr.jpg,,,,,,,,,,,,,,,
170,31,Memory,3,,,,,,,00138931230fa.jpg,,,,,,,,,,,,,,,
171,31,Memory,3,,,,,,,00727941205fa.jpg,,,,,,,,,,,,,,,
172,31,Memory,3,,,,,,,sunaanjcbzdvtvblsdy.jpg,,,,,,,,,,,,,,,
173,31,Memory,3,,,,,,,sunaakxgygjfqrzpyoz.jpg,,,,,,,,,,,,,,,
174,31,Memory,3,,,,,,,sunaivdjruhkrfywfed.jpg,,,,,,,,,,,,,,,
175,31,Memory,3,,,,,,,sunaemcowdozyphwknd.jpg,,,,,,,,,,,,,,,
176,31,Memory,3,,,,,,,sunaqyylsngywqzwfmx.jpg,,,,,,,,,,,,,,,
177,31,Memory,3,,,,,,,00132931230fb.jpg,,,,,,,,,,,,,,,
178,31,Memory,3,,,,,,,sunaapfaivxqoynnwwp.jpg,,,,,,,,,,,,,,,
179,31,Memory,3,,,,,,,00741941201fa.jpg,,,,,,,,,,,,,,,
180,31,Memory,3,,,,,,,sunaozisvwfbmlkfhzv.jpg,,,,,,,,,,,,,,,
181,31,Memory,3,,,,,,,sunaeisnjeetzmkbuad.jpg,,,,,,,,,,,,,,,
182,31,Memory,3,,,,,,,00938960627fa.jpg,,,,,,,,,,,,,,,
183,31,Memory,3,,,,,,,00559940519fa.jpg,,,,,,,,,,,,,,,
184,31,Memory,3,,,,,,,sunacdnquypmsshhsbk.jpg,,,,,,,,,,,,,,,
185,31,Memory,3,,,,,,,sunaaehaikpckyjsety.jpg,,,,,,,,,,,,,,,
186,31,Memory,3,,,,,,,sunaafynehyrzpsoaml.jpg,,,,,,,,,,,,,,,
187,31,Memory,3,,,,,,,00987960627fa.jpg,,,,,,,,,,,,,,,
188,31,Memory,3,,,,,,,sunaeutbrtswvsozxyk.jpg,,,,,,,,,,,,,,,
189,31,Memory,3,,,,,,,00081941031fa.jpg,,,,,,,,,,,,,,,
190,31,Memory,3,,,,,,,sunagutjvdvnhxejerz.jpg,,,,,,,,,,,,,,,
191,31,Memory,3,,,,,,,00788941205fa.jpg,,,,,,,,,,,,,,,
192,31,Memory,3,,,,,,,sunagountlxpzkytsmp.jpg,,,,,,,,,,,,,,,
193,31,Memory,3,,,,,,,00543940519fa.jpg,,,,,,,,,,,,,,,
194,31,Memory,3,,,,,,,00799941205fa.jpg,,,,,,,,,,,,,,,
195,31,Memory,3,,,,,,,00914960620fa.jpg,,,,,,,,,,,,,,,
196,31,Memory,3,,,,,,,sunacjkmnpawfzbyvae.jpg,,,,,,,,,,,,,,,
197,31,Memory,3,,,,,,,sunbloeoiozwjjsiamp.jpg,,,,,,,,,,,,,,,
198,31,Memory,3,,,,,,,00120931230fa.jpg,,,,,,,,,,,,,,,
199,31,Memory,3,,,,,,,sunacbeefkxpymwevpk.jpg,,,,,,,,,,,,,,,
200,31,Presentation,4,00266940128fb_sunabkngeblodihjvbk.jpg,00296940422fa_sunabrwnslxalcohfre.jpg,00266940128fb.jpg,sunabkngeblodihjvbk.jpg,00296940422fa.jpg,sunabrwnslxalcohfre.jpg,,,<,Place,,,,,1,,,,,,,o
201,31,Presentation,4,00809960620fa_sunahbvlpavurqoxdeq.jpg,00774941201fa_sunafvtpfczkzopbgue.jpg,00809960620fa.jpg,sunahbvlpavurqoxdeq.jpg,00774941201fa.jpg,sunafvtpfczkzopbgue.jpg,,,<,Place,,,,,1,,,,,,,x
202,31,Presentation,4,00752960620fa_sunafbwnojpqeyzssoe.jpg,00227940128fa_sunabckqabszusgcykj.jpg,00752960620fa.jpg,sunafbwnojpqeyzssoe.jpg,00227940128fa.jpg,sunabckqabszusgcykj.jpg,,,<,Place,,,,,1,,,,,,,x
203,31,Presentation,4,00893960530Fa_sunaloffvbvysigxent.jpg,00675941121fa_sunadoxcchtmsxewsau.jpg,00893960530Fa.jpg,sunaloffvbvysigxent.jpg,00675941121fa.jpg,sunadoxcchtmsxewsau.jpg,,,<,Place,,,,,1,,,,,,,x
204,31,Presentation,4,00797960620fa_sunagufzbeteqdjxais.jpg,00891960530fa_sunalkiibhqpxfamlll.jpg,00797960620fa.jpg,sunagufzbeteqdjxais.jpg,00891960530fa.jpg,sunalkiibhqpxfamlll.jpg,,,<,Place,,,,,1,,,,,,,x
205,31,Presentation,4,00877960530fa_sunajxpkuhbizeveguy.jpg,00885960530fa_sunakwlvxjpddialozd.jpg,00877960530fa.jpg,sunajxpkuhbizeveguy.jpg,00885960530fa.jpg,sunakwlvxjpddialozd.jpg,,,<,Place,,,,,1,,,,,,,x
206,31,Presentation,4,00136931230fb_sunaanptmsknhirrzed.jpg,00163931230fb_sunaavodbcpygkggnfp.jpg,00136931230fb.jpg,sunaanptmsknhirrzed.jpg,00163931230fb.jpg,sunaavodbcpygkggnfp.jpg,,,<,Place,,,,,1,,,,,,,o
207,31,Presentation,4,00316940422fa_sunabxmguapjekttvwm.jpg,00095931230fa_sunaahzooisqkwlxwoz.jpg,00316940422fa.jpg,sunabxmguapjekttvwm.jpg,00095931230fa.jpg,sunaahzooisqkwlxwoz.jpg,,,<,Place,,,,,1,,,,,,,x
208,31,Presentation,4,00481940519fa_sunabxsuqbleluwczoy.jpg,00270940422fb_sunabllobxadqcyttej.jpg,00481940519fa.jpg,sunabxsuqbleluwczoy.jpg,00270940422fb.jpg,sunabllobxadqcyttej.jpg,,,<,Place,,,,,1,,,,,,,o
209,31,Presentation,4,00080931230fb_sunaafjszryxyavjzln.jpg,00800941205fb_sunagvjurcwdbixvnyi.jpg,00080931230fb.jpg,sunaafjszryxyavjzln.jpg,00800941205fb.jpg,sunagvjurcwdbixvnyi.jpg,,,<,Place,,,,,1,,,,,,,x
210,31,Memory,4,,,,,,,sunaafjszryxyavjzln.jpg,,,,,,,,,,,,,,,
211,31,Memory,4,,,,,,,00902960530fa.jpg,,,,,,,,,,,,,,,
212,31,Memory,4,,,,,,,00773941201fa.jpg,,,,,,,,,,,,,,,
213,31,Memory,4,,,,,,,00080931230fb.jpg,,,,,,,,,,,,,,,
214,31,Memory,4,,,,,,,00266940128fb.jpg,,,,,,,,,,,,,,,
215,31,Memory,4,,,,,,,00635941031fa.jpg,,,,,,,,,,,,,,,
216,31,Memory,4,,,,,,,00891960530fa.jpg,,,,,,,,,,,,,,,
217,31,Memory,4,,,,,,,sunabxsuqbleluwczoy.jpg,,,,,,,,,,,,,,,
218,31,Memory,4,,,,,,,00296940422fa.jpg,,,,,,,,,,,,,,,
219,31,Memory,4,,,,,,,sunabrwnslxalcohfre.jpg,,,,,,,,,,,,,,,
220,31,Memory,4,,,,,,,sunalkiibhqpxfamlll.jpg,,,,,,,,,,,,,,,
221,31,Memory,4,,,,,,,sunahiphsekjihkafsl.jpg,,,,,,,,,,,,,,,
222,31,Memory,4,,,,,,,sunabkngeblodihjvbk.jpg,,,,,,,,,,,,,,,
223,31,Memory,4,,,,,,,00983960627fa.jpg,,,,,,,,,,,,,,,
224,31,Memory,4,,,,,,,sunagoufulkpsxrmklt.jpg,,,,,,,,,,,,,,,
225,31,Memory,4,,,,,,,sunaavodbcpygkggnfp.jpg,,,,,,,,,,,,,,,
226,31,Memory,4,,,,,,,sunaddsaeicthrfbkhe.jpg,,,,,,,,,,,,,,,
227,31,Memory,4,,,,,,,00797960620fa.jpg,,,,,,,,,,,,,,,
228,31,Memory,4,,,,,,,00481940519fa.jpg,,,,,,,,,,,,,,,
229,31,Memory,4,,,,,,,sunbfyvfqiimvdaxlqn.jpg,,,,,,,,,,,,,,,
230,31,Memory,4,,,,,,,sunaetydippjxikifsb.jpg,,,,,,,,,,,,,,,
231,31,Memory,4,,,,,,,00197940128fa.jpg,,,,,,,,,,,,,,,
232,31,Memory,4,,,,,,,sunabeyhmxodahoieyk.jpg,,,,,,,,,,,,,,,
233,31,Memory,4,,,,,,,sunafvtpfczkzopbgue.jpg,,,,,,,,,,,,,,,
234,31,Memory,4,,,,,,,sunabxmguapjekttvwm.jpg,,,,,,,,,,,,,,,
235,31,Memory,4,,,,,,,sunaakgekhjklxmvulj.jpg,,,,,,,,,,,,,,,
236,31,Memory,4,,,,,,,00245940128fa.jpg,,,,,,,,,,,,,,,
237,31,Memory,4,,,,,,,00163931230fb.jpg,,,,,,,,,,,,,,,
238,31,Memory,4,,,,,,,00746941201fa.jpg,,,,,,,,,,,,,,,
239,31,Memory,4,,,,,,,sunafvcflzhlqloapyo.jpg,,,,,,,,,,,,,,,
240,31,Memory,4,,,,,,,sunabllobxadqcyttej.jpg,,,,,,,,,,,,,,,
241,31,Memory,4,,,,,,,00270940422fb.jpg,,,,,,,,,,,,,,,
242,31,Memory,4,,,,,,,00316940422fa.jpg,,,,,,,,,,,,,,,
243,31,Memory,4,,,,,,,00774941201fa.jpg,,,,,,,,,,,,,,,
244,31,Memory,4,,,,,,,00815941205fa.jpg,,,,,,,,,,,,,,,
245,31,Memory,4,,,,,,,sunagufzbeteqdjxais.jpg,,,,,,,,,,,,,,,
246,31,Memory,4,,,,,,,00111931230fb.jpg,,,,,,,,,,,,,,,
247,31,Memory,4,,,,,,,sunaaylzyqlqrsmfwif.jpg,,,,,,,,,,,,,,,
248,31,Memory,4,,,,,,,00787960620fa.jpg,,,,,,,,,,,,,,,
249,31,Memory,4,,,,,,,sunanaacmmosxrfwmvl.jpg,,,,,,,,,,,,,,,
250,31,Presentation,5,00868960307fa_sunajjxttslobudoqbv.jpg,00288940422fa_sunabppokiyglaxpcha.jpg,00868960307fa.jpg,sunajjxttslobudoqbv.jpg,00288940422fa.jpg,sunabppokiyglaxpcha.jpg,,,>,Face,,,,,1,,,,,,,x
251,31,Presentation,5,00314940422fa_sunabwmcbaxwioksdgw.jpg,00841940307fa_sunaisiwfgppimtnmxl.jpg,00314940422fa.jpg,sunabwmcbaxwioksdgw.jpg,00841940307fa.jpg,sunaisiwfgppimtnmxl.jpg,,,>,Face,,,,,0,,,,,,,x
252,31,Presentation,5,00650941031fa_sunadikxpvqeabxrvvc.jpg,00796941205fa_sunaguchqqnrtodtezq.jpg,00650941031fa.jpg,sunadikxpvqeabxrvvc.jpg,00796941205fa.jpg,sunaguchqqnrtodtezq.jpg,,,>,Face,,,,,0,,,,,,,x
253,31,Presentation,5,00630940928fa_sunaczwgyukesaajxnx.jpg,00773960620fa_sunafvsxtzaizojicxx.jpg,00630940928fa.jpg,sunaczwgyukesaajxnx.jpg,00773960620fa.jpg,sunafvsxtzaizojicxx.jpg,,,>,Face,,,,,1,,,,,,,x
254,31,Presentation,5,00766960620fa_sunafijbgncijwykrnl.jpg,00818940307fa_sunahpblecxtmuzkmxb.jpg,00766960620fa.jpg,sunafijbgncijwykrnl.jpg,00818940307fa.jpg,sunahpblecxtmuzkmxb.jpg,,,>,Face,,,,,1,,,,,,,x
255,31,Presentation,5,00131931230fb_sunaangbuylfvckqqoo.jpg,00822940307fa_sunahqrxievfeusiqlt.jpg,00131931230fb.jpg,sunaangbuylfvckqqoo.jpg,00822940307fa.jpg,sunahqrxievfeusiqlt.jpg,,,>,Face,,,,,1,,,,,,,o
256,31,Presentation,5,00978960627fa_sunbddbivbptlrlauhy.jpg,00115931230fa_sunaakmxzhuceuiryah.jpg,00978960627fa.jpg,sunbddbivbptlrlauhy.jpg,00115931230fa.jpg,sunaakmxzhuceuiryah.jpg,,,>,Face,,,,,1,,,,,,,x
257,31,Presentation,5,00705960530fa_sunaduslxfzlbxlllnz.jpg,00576941031fa_sunacvjlsylseoghjup.jpg,00705960530fa.jpg,sunaduslxfzlbxlllnz.jpg,00576941031fa.jpg,sunacvjlsylseoghjup.jpg,,,>,Face,,,,,0,,,,,,,x
258,31,Presentation,5,00647941031fa_sunadflbrkckmepztql.jpg,00778941205fa_sunagcthdfirrcawoic.jpg,00647941031fa.jpg,sunadflbrkckmepztql.jpg,00778941205fa.jpg,sunagcthdfirrcawoic.jpg,,,>,Face,,,,,0,,,,,,,o
259,31,Presentation,5,00185940422fb_sunaawqdbpihmlbwyyn.jpg,00061931230fb_sunaaekxzjzrfgtkwjf.jpg,00185940422fb.jpg,sunaawqdbpihmlbwyyn.jpg,00061931230fb.jpg,sunaaekxzjzrfgtkwjf.jpg,,,>,Face,,,,,1,,,,,,,o
260,31,Memory,5,,,,,,,sunadikxpvqeabxrvvc.jpg,,,,,,,,,,,,,,,
261,31,Memory,5,,,,,,,sunadflbrkckmepztql.jpg,,,,,,,,,,,,,,,
262,31,Memory,5,,,,,,,00647941031fa.jpg,,,,,,,,,,,,,,,
263,31,Memory,5,,,,,,,00720960620fa.jpg,,,,,,,,,,,,,,,
264,31,Memory,5,,,,,,,sunacvbrcejzwmcgnoq.jpg,,,,,,,,,,,,,,,
265,31,Memory,5,,,,,,,00061931230fb.jpg,,,,,,,,,,,,,,,
266,31,Memory,5,,,,,,,sunavhxgmgrqsaptynb.jpg,,,,,,,,,,,,,,,
267,31,Memory,5,,,,,,,sunaaekxzjzrfgtkwjf.jpg,,,,,,,,,,,,,,,
268,31,Memory,5,,,,,,,sunahpblecxtmuzkmxb.jpg,,,,,,,,,,,,,,,
269,31,Memory,5,,,,,,,00957960627fa.jpg,,,,,,,,,,,,,,,
270,31,Memory,5,,,,,,,sunafvwfsmqkjrutjta.jpg,,,,,,,,,,,,,,,
271,31,Memory,5,,,,,,,sunaangbuylfvckqqoo.jpg,,,,,,,,,,,,,,,
272,31,Memory,5,,,,,,,00314940422fa.jpg,,,,,,,,,,,,,,,
273,31,Memory,5,,,,,,,sunabppokiyglaxpcha.jpg,,,,,,,,,,,,,,,
274,31,Memory,5,,,,,,,sunapqwnqzxlsfvgsjm.jpg,,,,,,,,,,,,,,,
275,31,Memory,5,,,,,,,00750941201fa.jpg,,,,,,,,,,,,,,,
276,31,Memory,5,,,,,,,00115931230fa.jpg,,,,,,,,,,,,,,,
277,31,Memory,5,,,,,,,sunahmhrncocyhsjpxk.jpg,,,,,,,,,,,,,,,
278,31,Memory,5,,,,,,,00766960620fa.jpg,,,,,,,,,,,,,,,
279,31,Memory,5,,,,,,,00650941031fa.jpg,,,,,,,,,,,,,,,
280,31,Memory,5,,,,,,,sunajbwkywmsqkldfml.jpg,,,,,,,,,,,,,,,
281,31,Memory,5,,,,,,,sunaeuzwggvibufclwf.jpg,,,,,,,,,,,,,,,
282,31,Memory,5,,,,,,,00131931230fb.jpg,,,,,,,,,,,,,,,
283,31,Memory,5,,,,,,,sunafijbgncijwykrnl.jpg,,,,,,,,,,,,,,,
284,31,Memory,5,,,,,,,sunaisiwfgppimtnmxl.jpg,,,,,,,,,,,,,,,
285,31,Memory,5,,,,,,,00818940307fa.jpg,,,,,,,,,,,,,,,
286,31,Memory,5,,,,,,,sunaecpkgfewqqreqwe.jpg,,,,,,,,,,,,,,,
287,31,Memory,5,,,,,,,00866940307fa.jpg,,,,,,,,,,,,,,,
288,31,Memory,5,,,,,,,00841940307fa.jpg,,,,,,,,,,,,,,,
289,31,Memory,5,,,,,,,00092931230fa.jpg,,,,,,,,,,,,,,,
290,31,Memory,5,,,,,,,00288940422fa.jpg,,,,,,,,,,,,,,,
291,31,Memory,5,,,,,,,sunabwmcbaxwioksdgw.jpg,,,,,,,,,,,,,,,
292,31,Memory,5,,,,,,,00775941205fa.jpg,,,,,,,,,,,,,,,
293,31,Memory,5,,,,,,,00574940928fa.jpg,,,,,,,,,,,,,,,
294,31,Memory,5,,,,,,,00816941205fa.jpg,,,,,,,,,,,,,,,
295,31,Memory,5,,,,,,,sunaakmxzhuceuiryah.jpg,,,,,,,,,,,,,,,
296,31,Memory,5,,,,,,,sunaaheqzstzxuadglu.jpg,,,,,,,,,,,,,,,
297,31,Memory,5,,,,,,,00313940422fa.jpg,,,,,,,,,,,,,,,
298,31,Memory,5,,,,,,,sunabwjvmoaddlyxfjr.jpg,,,,,,,,,,,,,,,
299,31,Memory,5,,,,,,,00925960627fa.jpg,,,,,,,,,,,,,,,
300,31,Presentation,6,00760960620fa_sunaffstbkappprzxnv.jpg,00857940307fa_sunaiwfobocrruqznsv.jpg,00760960620fa.jpg,sunaffstbkappprzxnv.jpg,00857940307fa.jpg,sunaiwfobocrruqznsv.jpg,,,>,Face,,,,,1,,,,,,,x
301,31,Presentation,6,00922960627fa_sunapqkyghktgtosuuk.jpg,00969960627fa_sunbaoizrfijvhpnnjn.jpg,00922960627fa.jpg,sunapqkyghktgtosuuk.jpg,00969960627fa.jpg,sunbaoizrfijvhpnnjn.jpg,,,>,Face,,,,,1,,,,,,,o
302,31,Presentation,6,00835940307fa_sunaijsqpvodplbwxkf.jpg,00848940307fa_sunaivdylrawbmhryfp.jpg,00835940307fa.jpg,sunaijsqpvodplbwxkf.jpg,00848940307fa.jpg,sunaivdylrawbmhryfp.jpg,,,>,Face,,,,,1,,,,,,,x
303,31,Presentation,6,00804960530fa_sunagwswhkvnsmuszlz.jpg,00071940128fa_sunaaexpnawiehinlpy.jpg,00804960530fa.jpg,sunagwswhkvnsmuszlz.jpg,00071940128fa.jpg,sunaaexpnawiehinlpy.jpg,,,>,Face,,,,,0,,,,,,,o
304,31,Presentation,6,00662941121fa_sunadkazmlajmohnwfl.jpg,01011960627fa_sundahdxwmcdluscvot.jpg,00662941121fa.jpg,sunadkazmlajmohnwfl.jpg,01011960627fa.jpg,sundahdxwmcdluscvot.jpg,,,>,Face,,,,,0,,,,,,,o
305,31,Presentation,6,00263940128fb_sunabjuovqvyfuzvqwt.jpg,00982960627fa_sunbesrwkdsffeogeqq.jpg,00263940128fb.jpg,sunabjuovqvyfuzvqwt.jpg,00982960627fa.jpg,sunbesrwkdsffeogeqq.jpg,,,>,Face,,,,,1,,,,,,,o
306,31,Presentation,6,00971960627fa_sunbbegcweqnetpdlrh.jpg,00571940928fa_sunacuatpqpqhyjhjqk.jpg,00971960627fa.jpg,sunbbegcweqnetpdlrh.jpg,00571940928fa.jpg,sunacuatpqpqhyjhjqk.jpg,,,>,Face,,,,,1,,,,,,,o
307,31,Presentation,6,00302940422fa_sunabtlfmiwtljmoues.jpg,00479940519fa_sunabxsbfwjccqxxzxq.jpg,00302940422fa.jpg,sunabtlfmiwtljmoues.jpg,00479940519fa.jpg,sunabxsbfwjccqxxzxq.jpg,,,>,Face,,,,,1,,,,,,,x
308,31,Presentation,6,00294940422fb_sunabrlndkruqokhury.jpg,00887960530_sunalcrtwiycqobgelp.jpg,00294940422fb.jpg,sunabrlndkruqokhury.jpg,00887960530.jpg,sunalcrtwiycqobgelp.jpg,,,>,Face,,,,,1,,,,,,,o
309,31,Presentation,6,00993960627fa_sunbprywzqxjcezkbch.jpg,00753941201fa_sunafcofuuzebuadceo.jpg,00993960627fa.jpg,sunbprywzqxjcezkbch.jpg,00753941201fa.jpg,sunafcofuuzebuadceo.jpg,,,>,Face,,,,,1,,,,,,,o
310,31,Memory,6,,,,,,,sunasnqkkyhilqkxiqm.jpg,,,,,,,,,,,,,,,
311,31,Memory,6,,,,,,,00581940928fa.jpg,,,,,,,,,,,,,,,
312,31,Memory,6,,,,,,,sunaiwfobocrruqznsv.jpg,,,,,,,,,,,,,,,
313,31,Memory,6,,,,,,,sunabtlfmiwtljmoues.jpg,,,,,,,,,,,,,,,
314,31,Memory,6,,,,,,,00922960627fa.jpg,,,,,,,,,,,,,,,
315,31,Memory,6,,,,,,,00290940422fa.jpg,,,,,,,,,,,,,,,
316,31,Memory,6,,,,,,,sunbagfpovqwbuexqdn.jpg,,,,,,,,,,,,,,,
317,31,Memory,6,,,,,,,sunacuatpqpqhyjhjqk.jpg,,,,,,,,,,,,,,,
318,31,Memory,6,,,,,,,sunadkazmlajmohnwfl.jpg,,,,,,,,,,,,,,,
319,31,Memory,6,,,,,,,00968960627fa.jpg,,,,,,,,,,,,,,,
320,31,Memory,6,,,,,,,sunbbegcweqnetpdlrh.jpg,,,,,,,,,,,,,,,
321,31,Memory,6,,,,,,,00723941201fa.jpg,,,,,,,,,,,,,,,
322,31,Memory,6,,,,,,,sunabctlikybqabezjv.jpg,,,,,,,,,,,,,,,
323,31,Memory,6,,,,,,,00662941121fa.jpg,,,,,,,,,,,,,,,
324,31,Memory,6,,,,,,,sunabxsbfwjccqxxzxq.jpg,,,,,,,,,,,,,,,
325,31,Memory,6,,,,,,,sunaaemixhfquhnxxlm.jpg,,,,,,,,,,,,,,,
326,31,Memory,6,,,,,,,00829940307fa.jpg,,,,,,,,,,,,,,,
327,31,Memory,6,,,,,,,sunabrlndkruqokhury.jpg,,,,,,,,,,,,,,,
328,31,Memory,6,,,,,,,sunahwgbqkqcrwprgvh.jpg,,,,,,,,,,,,,,,
329,31,Memory,6,,,,,,,00969960627fa.jpg,,,,,,,,,,,,,,,
330,31,Memory,6,,,,,,,sunadqmjrhfjyuzyvdd.jpg,,,,,,,,,,,,,,,
331,31,Memory,6,,,,,,,00239940128fa.jpg,,,,,,,,,,,,,,,
332,31,Memory,6,,,,,,,sunaivdylrawbmhryfp.jpg,,,,,,,,,,,,,,,
333,31,Memory,6,,,,,,,00294940422fb.jpg,,,,,,,,,,,,,,,
334,31,Memory,6,,,,,,,00479940519fa.jpg,,,,,,,,,,,,,,,
335,31,Memory,6,,,,,,,00884960530fa.jpg,,,,,,,,,,,,,,,
336,31,Memory,6,,,,,,,00857940307fa.jpg,,,,,,,,,,,,,,,
337,31,Memory,6,,,,,,,sunabqowuarvqqcnipn.jpg,,,,,,,,,,,,,,,
338,31,Memory,6,,,,,,,00681941121fa.jpg,,,,,,,,,,,,,,,
339,31,Memory,6,,,,,,,00065931230fb.jpg,,,,,,,,,,,,,,,
340,31,Memory,6,,,,,,,00949960627fb.jpg,,,,,,,,,,,,,,,
341,31,Memory,6,,,,,,,00571940928fa.jpg,,,,,,,,,,,,,,,
342,31,Memory,6,,,,,,,sunakodkcslgqhqlgwl.jpg,,,,,,,,,,,,,,,
343,31,Memory,6,,,,,,,sunbaoizrfijvhpnnjn.jpg,,,,,,,,,,,,,,,
344,31,Memory,6,,,,,,,00971960627fa.jpg,,,,,,,,,,,,,,,
345,31,Memory,6,,,,,,,sunaedtgwjvvziytspa.jpg,,,,,,,,,,,,,,,
346,31,Memory,6,,,,,,,sunapqkyghktgtosuuk.jpg,,,,,,,,,,,,,,,
347,31,Memory,6,,,,,,,sunacvzhvcksnwqcqbw.jpg,,,,,,,,,,,,,,,
348,31,Memory,6,,,,,,,00302940422fa.jpg,,,,,,,,,,,,,,,
349,31,Memory,6,,,,,,,00848940307fa.jpg,,,,,,,,,,,,,,,
350,31,Presentation,7,00123931230fb_sunaalcrrdbjgdztbiz.jpg,00221940128fa_sunabcfpwlpolnutyju.jpg,00123931230fb.jpg,sunaalcrrdbjgdztbiz.jpg,00221940128fa.jpg,sunabcfpwlpolnutyju.jpg,,,<,Face,,,,,1,,,,,,,o
351,31,Presentation,7,00909960530_sunaobtizabegtwfwul.jpg,00147931230fb_sunaatpkocdkocwxpkb.jpg,00909960530.jpg,sunaobtizabegtwfwul.jpg,00147931230fb.jpg,sunaatpkocdkocwxpkb.jpg,,,<,Face,,,,,1,,,,,,,o
352,31,Presentation,7,00630941031fa_sunadakkdovnuzlycvp.jpg,00929960627fa_sunaprnrbmgkomdbchr.jpg,00630941031fa.jpg,sunadakkdovnuzlycvp.jpg,00929960627fa.jpg,sunaprnrbmgkomdbchr.jpg,,,<,Face,,,,,1,,,,,,,o
353,31,Presentation,7,00149931230fa_sunaauglwmctnkxyird.jpg,00077931230fb_sunaafgqutfaishsxyu.jpg,00149931230fa.jpg,sunaauglwmctnkxyird.jpg,00077931230fb.jpg,sunaafgqutfaishsxyu.jpg,,,<,Face,,,,,1,,,,,,,x
354,31,Presentation,7,00705941205fa_sunadtlxenqqxsyjvix.jpg,00116931230fa_sunaakqepfoeqomfgxf.jpg,00705941205fa.jpg,sunadtlxenqqxsyjvix.jpg,00116931230fa.jpg,sunaakqepfoeqomfgxf.jpg,,,<,Face,,,,,1,,,,,,,o
355,31,Presentation,7,00122931230fa_sunaakxjfbrrequcjmx.jpg,00631940928fa_sunadbdqzigzwipuipr.jpg,00122931230fa.jpg,sunaakxjfbrrequcjmx.jpg,00631940928fa.jpg,sunadbdqzigzwipuipr.jpg,,,<,Face,,,,,1,,,,,,,o
356,31,Presentation,7,00785941205fa_sunaglqunwuycxydmyu.jpg,00977960627fa_sunbbxkanhzjgbwyxqs.jpg,00785941205fa.jpg,sunaglqunwuycxydmyu.jpg,00977960627fa.jpg,sunbbxkanhzjgbwyxqs.jpg,,,<,Face,,,,,1,,,,,,,o
357,31,Presentation,7,00126931230fb_sunaamdjwemxpmmtypi.jpg,00082931230fa_sunaafvitpexrpvumsa.jpg,00126931230fb.jpg,sunaamdjwemxpmmtypi.jpg,00082931230fa.jpg,sunaafvitpexrpvumsa.jpg,,,<,Face,,,,,1,,,,,,,o
358,31,Presentation,7,00589940928fa_sunacwggadqsfpovdjv.jpg,00130931230fa_sunaamvxnvouicstkjb.jpg,00589940928fa.jpg,sunacwggadqsfpovdjv.jpg,00130931230fa.jpg,sunaamvxnvouicstkjb.jpg,,,<,Face,,,,,1,,,,,,,o
359,31,Presentation,7,00871940307_sunajrujcsdxmfbssmc.jpg,00532960627fa_sunaccdtpgenvcbcbcf.jpg,00871940307.jpg,sunajrujcsdxmfbssmc.jpg,00532960627fa.jpg,sunaccdtpgenvcbcbcf.jpg,,,<,Face,,,,,1,,,,,,,o
360,31,Memory,7,,,,,,,00990960627fa.jpg,,,,,,,,,,,,,,,
361,31,Memory,7,,,,,,,sunaayehfdqcyxggsej.jpg,,,,,,,,,,,,,,,
362,31,Memory,7,,,,,,,sunaakqepfoeqomfgxf.jpg,,,,,,,,,,,,,,,
363,31,Memory,7,,,,,,,00909960530.jpg,,,,,,,,,,,,,,,
364,31,Memory,7,,,,,,,sunacsaovnjezqwbykf.jpg,,,,,,,,,,,,,,,
365,31,Memory,7,,,,,,,sunaptrqvaooxfvktvw.jpg,,,,,,,,,,,,,,,
366,31,Memory,7,,,,,,,sunaflojskatpeqyzqp.jpg,,,,,,,,,,,,,,,
367,31,Memory,7,,,,,,,00077931230fb.jpg,,,,,,,,,,,,,,,
368,31,Memory,7,,,,,,,sunaafgqutfaishsxyu.jpg,,,,,,,,,,,,,,,
369,31,Memory,7,,,,,,,00122931230fa.jpg,,,,,,,,,,,,,,,
370,31,Memory,7,,,,,,,00931960627fa.jpg,,,,,,,,,,,,,,,
371,31,Memory,7,,,,,,,00705941205fa.jpg,,,,,,,,,,,,,,,
372,31,Memory,7,,,,,,,sunbbxkanhzjgbwyxqs.jpg,,,,,,,,,,,,,,,
373,31,Memory,7,,,,,,,00636941031fa.jpg,,,,,,,,,,,,,,,
374,31,Memory,7,,,,,,,sunaglqunwuycxydmyu.jpg,,,,,,,,,,,,,,,
375,31,Memory,7,,,,,,,sunacwggadqsfpovdjv.jpg,,,,,,,,,,,,,,,
376,31,Memory,7,,,,,,,sunaddtdkycxbqlpfqa.jpg,,,,,,,,,,,,,,,
377,31,Memory,7,,,,,,,00770941201fa.jpg,,,,,,,,,,,,,,,
378,31,Memory,7,,,,,,,00116931230fa.jpg,,,,,,,,,,,,,,,
379,31,Memory,7,,,,,,,00785941205fa.jpg,,,,,,,,,,,,,,,
380,31,Memory,7,,,,,,,00082931230fa.jpg,,,,,,,,,,,,,,,
381,31,Memory,7,,,,,,,00194940128fb.jpg,,,,,,,,,,,,,,,
382,31,Memory,7,,,,,,,00997960627fa.jpg,,,,,,,,,,,,,,,
383,31,Memory,7,,,,,,,sunaakxjfbrrequcjmx.jpg,,,,,,,,,,,,,,,
384,31,Memory,7,,,,,,,01007960627fa.jpg,,,,,,,,,,,,,,,
385,31,Memory,7,,,,,,,00554940519fa.jpg,,,,,,,,,,,,,,,
386,31,Memory,7,,,,,,,00977960627fa.jpg,,,,,,,,,,,,,,,
387,31,Memory,7,,,,,,,sunadtlxenqqxsyjvix.jpg,,,,,,,,,,,,,,,
388,31,Memory,7,,,,,,,sunakmnfgklupjijsgf.jpg,,,,,,,,,,,,,,,
389,31,Memory,7,,,,,,,sunacfdkbsrughwqwtt.jpg,,,,,,,,,,,,,,,
390,31,Memory,7,,,,,,,sunaafvitpexrpvumsa.jpg,,,,,,,,,,,,,,,
391,31,Memory,7,,,,,,,sunbtpilbhhbmhmeuzq.jpg,,,,,,,,,,,,,,,
392,31,Memory,7,,,,,,,00589940928fa.jpg,,,,,,,,,,,,,,,
393,31,Memory,7,,,,,,,00532960627fa.jpg,,,,,,,,,,,,,,,
394,31,Memory,7,,,,,,,sunaccdtpgenvcbcbcf.jpg,,,,,,,,,,,,,,,
395,31,Memory,7,,,,,,,00564941031fa.jpg,,,,,,,,,,,,,,,
396,31,Memory,7,,,,,,,sunbpflsdaxnddnwcqi.jpg,,,,,,,,,,,,,,,
397,31,Memory,7,,,,,,,00880960530fa.jpg,,,,,,,,,,,,,,,
398,31,Memory,7,,,,,,,sunbxarcshsnqsefemx.jpg,,,,,,,,,,,,,,,
399,31,Memory,7,,,,,,,sunaobtizabegtwfwul.jpg,,,,,,,,,,,,,,,
