,Subject,Trial Type,Run,Cued Composite,Uncued Composite,Cued Face,Cued Place,Uncued Face,Uncued Place,Memory Image,Category,Cued Side,Cued Category,Attention Response Time (s),Familiarity Reaction Time (s),Familiarity Rating,Attention Level,Cue Validity,Post Invalid Cue,Pre Invalid Cue,Attention Button,Rating History,Stimulus Onset,Stimulus End,Attention Probe
0,10,Presentation,0,00919960620fa_sunapmfmzadmosuogaz.jpg,00093931230fa_sunaahwnmtqsrhocysw.jpg,00919960620fa.jpg,sunapmfmzadmosuogaz.jpg,00093931230fa.jpg,sunaahwnmtqsrhocysw.jpg,,,<,Place,,,,,1,,,,,,,o
1,10,Presentation,0,00921960627fa_sunapqkpqdfvxlbqwyo.jpg,00129931230fb_sunaamsdyakblkfoydx.jpg,00921960627fa.jpg,sunapqkpqdfvxlbqwyo.jpg,00129931230fb.jpg,sunaamsdyakblkfoydx.jpg,,,<,Place,,,,,1,,,,,,,x
2,10,Presentation,0,00938960627fa_sunaqyylsngywqzwfmx.jpg,00306940422fa_sunabueyoajufbkraki.jpg,00938960627fa.jpg,sunaqyylsngywqzwfmx.jpg,00306940422fa.jpg,sunabueyoajufbkraki.jpg,,,<,Place,,,,,0,,,,,,,x
3,10,Presentation,0,00785941205fa_sunaglqunwuycxydmyu.jpg,00839940307fa_sunaipyohrqlwngaqif.jpg,00785941205fa.jpg,sunaglqunwuycxydmyu.jpg,00839940307fa.jpg,sunaipyohrqlwngaqif.jpg,,,<,Place,,,,,1,,,,,,,x
4,10,Presentation,0,00749941201fa_sunaeuvjbmdpknaqqaj.jpg,00620940928fa_sunacypmnujalygkunp.jpg,00749941201fa.jpg,sunaeuvjbmdpknaqqaj.jpg,00620940928fa.jpg,sunacypmnujalygkunp.jpg,,,<,Place,,,,,1,,,,,,,o
5,10,Presentation,0,00086931230fa_sunaafynehyrzpsoaml.jpg,00112931230fa_sunaakjaacuzulqckgl.jpg,00086931230fa.jpg,sunaafynehyrzpsoaml.jpg,00112931230fa.jpg,sunaakjaacuzulqckgl.jpg,,,<,Place,,,,,1,,,,,,,o
6,10,Presentation,0,00146960620fb_sunaatpeezlljqaxlhj.jpg,00914960620fa_sunaozisvwfbmlkfhzv.jpg,00146960620fb.jpg,sunaatpeezlljqaxlhj.jpg,00914960620fa.jpg,sunaozisvwfbmlkfhzv.jpg,,,<,Place,,,,,1,,,,,,,x
7,10,Presentation,0,00479940519fa_sunabxsbfwjccqxxzxq.jpg,00276940422fa_sunabmytpyhsgigllxu.jpg,00479940519fa.jpg,sunabxsbfwjccqxxzxq.jpg,00276940422fa.jpg,sunabmytpyhsgigllxu.jpg,,,<,Place,,,,,1,,,,,,,o
8,10,Presentation,0,00154931230fa_sunaauueuhhvklldjik.jpg,00801941205fa_sunagvprlbprarvgdvj.jpg,00154931230fa.jpg,sunaauueuhhvklldjik.jpg,00801941205fa.jpg,sunagvprlbprarvgdvj.jpg,,,<,Place,,,,,1,,,,,,,x
9,10,Presentation,0,00705941205fa_sunadtlxenqqxsyjvix.jpg,00983960627fa_sunbfyvfqiimvdaxlqn.jpg,00705941205fa.jpg,sunadtlxenqqxsyjvix.jpg,00983960627fa.jpg,sunbfyvfqiimvdaxlqn.jpg,,,<,Place,,,,,0,,,,,,,o
10,10,Memory,0,,,,,,,sunagoufulkpsxrmklt.jpg,,,,,,,,,,,,,,,
11,10,Memory,0,,,,,,,sunajrujcsdxmfbssmc.jpg,,,,,,,,,,,,,,,
12,10,Memory,0,,,,,,,sunabwjvmoaddlyxfjr.jpg,,,,,,,,,,,,,,,
13,10,Memory,0,,,,,,,00871940307.jpg,,,,,,,,,,,,,,,
14,10,Memory,0,,,,,,,00919960620fa.jpg,,,,,,,,,,,,,,,
15,10,Memory,0,,,,,,,sunapmfmzadmosuogaz.jpg,,,,,,,,,,,,,,,
16,10,Memory,0,,,,,,,sunaauueuhhvklldjik.jpg,,,,,,,,,,,,,,,
17,10,Memory,0,,,,,,,00878960530fa.jpg,,,,,,,,,,,,,,,
18,10,Memory,0,,,,,,,sunabxsbfwjccqxxzxq.jpg,,,,,,,,,,,,,,,
19,10,Memory,0,,,,,,,sunakgbnzxmfohgehnu.jpg,,,,,,,,,,,,,,,
20,10,Memory,0,,,,,,,sunagvprlbprarvgdvj.jpg,,,,,,,,,,,,,,,
21,10,Memory,0,,,,,,,00914960620fa.jpg,,,,,,,,,,,,,,,
22,10,Memory,0,,,,,,,sunadikxpvqeabxrvvc.jpg,,,,,,,,,,,,,,,
23,10,Memory,0,,,,,,,sunabyfxcxhdebvdyfd.jpg,,,,,,,,,,,,,,,
24,10,Memory,0,,,,,,,sunabueyoajufbkraki.jpg,,,,,,,,,,,,,,,
25,10,Memory,0,,,,,,,00839940307fa.jpg,,,,,,,,,,,,,,,
26,10,Memory,0,,,,,,,00906960530fa.jpg,,,,,,,,,,,,,,,
27,10,Memory,0,,,,,,,sunajawzbrlrwafowen.jpg,,,,,,,,,,,,,,,
28,10,Memory,0,,,,,,,00146960620fb.jpg,,,,,,,,,,,,,,,
29,10,Memory,0,,,,,,,00479940519fa.jpg,,,,,,,,,,,,,,,
30,10,Memory,0,,,,,,,00801941205fa.jpg,,,,,,,,,,,,,,,
31,10,Memory,0,,,,,,,sunaqyylsngywqzwfmx.jpg,,,,,,,,,,,,,,,
32,10,Memory,0,,,,,,,00276940422fa.jpg,,,,,,,,,,,,,,,
33,10,Memory,0,,,,,,,00864940307fa.jpg,,,,,,,,,,,,,,,
34,10,Memory,0,,,,,,,sunabmytpyhsgigllxu.jpg,,,,,,,,,,,,,,,
35,10,Memory,0,,,,,,,00787960620fa.jpg,,,,,,,,,,,,,,,
36,10,Memory,0,,,,,,,00313940422fa.jpg,,,,,,,,,,,,,,,
37,10,Memory,0,,,,,,,sunantryfbloeaomfta.jpg,,,,,,,,,,,,,,,
38,10,Memory,0,,,,,,,sunaipyohrqlwngaqif.jpg,,,,,,,,,,,,,,,
39,10,Memory,0,,,,,,,sunatstrpjxhvtbaczf.jpg,,,,,,,,,,,,,,,
40,10,Memory,0,,,,,,,00306940422fa.jpg,,,,,,,,,,,,,,,
41,10,Memory,0,,,,,,,00154931230fa.jpg,,,,,,,,,,,,,,,
42,10,Memory,0,,,,,,,00938960627fa.jpg,,,,,,,,,,,,,,,
43,10,Memory,0,,,,,,,00650941031fa.jpg,,,,,,,,,,,,,,,
44,10,Memory,0,,,,,,,00482940519fa.jpg,,,,,,,,,,,,,,,
45,10,Memory,0,,,,,,,sunaatpeezlljqaxlhj.jpg,,,,,,,,,,,,,,,
46,10,Memory,0,,,,,,,00227940128fa.jpg,,,,,,,,,,,,,,,
47,10,Memory,0,,,,,,,00953960627fa.jpg,,,,,,,,,,,,,,,
48,10,Memory,0,,,,,,,sunaozisvwfbmlkfhzv.jpg,,,,,,,,,,,,,,,
49,10,Memory,0,,,,,,,sunabckqabszusgcykj.jpg,,,,,,,,,,,,,,,
50,10,Presentation,1,00874940307fa_sunajtrfunvzdfticna.jpg,00993960627fa_sunbprywzqxjcezkbch.jpg,00874940307fa.jpg,sunajtrfunvzdfticna.jpg,00993960627fa.jpg,sunbprywzqxjcezkbch.jpg,,,>,Place,,,,,1,,,,,,,o
51,10,Presentation,1,00858940307fa_sunaixpqndlwhwjtjek.jpg,00630941031fa_sunadakkdovnuzlycvp.jpg,00858940307fa.jpg,sunaixpqndlwhwjtjek.jpg,00630941031fa.jpg,sunadakkdovnuzlycvp.jpg,,,>,Place,,,,,1,,,,,,,x
52,10,Presentation,1,00109931230fa_sunaajuzribjrizdshh.jpg,00880960530fa_sunakmnfgklupjijsgf.jpg,00109931230fa.jpg,sunaajuzribjrizdshh.jpg,00880960530fa.jpg,sunakmnfgklupjijsgf.jpg,,,>,Place,,,,,1,,,,,,,x
53,10,Presentation,1,00554940519fa_sunacfdkbsrughwqwtt.jpg,00743941201fa_sunaeoghzrjarigmwua.jpg,00554940519fa.jpg,sunacfdkbsrughwqwtt.jpg,00743941201fa.jpg,sunaeoghzrjarigmwua.jpg,,,>,Place,,,,,1,,,,,,,o
54,10,Presentation,1,00126931230fb_sunaamdjwemxpmmtypi.jpg,00909960530_sunaobtizabegtwfwul.jpg,00126931230fb.jpg,sunaamdjwemxpmmtypi.jpg,00909960530.jpg,sunaobtizabegtwfwul.jpg,,,>,Place,,,,,1,,,,,,,x
55,10,Presentation,1,00073931230fa_sunaafbmtoniaasysgu.jpg,00893960530Fa_sunaloffvbvysigxent.jpg,00073931230fa.jpg,sunaafbmtoniaasysgu.jpg,00893960530Fa.jpg,sunaloffvbvysigxent.jpg,,,>,Place,,,,,1,,,,,,,o
56,10,Presentation,1,00124931230fa_sunaalhlvzmjmitybdn.jpg,00905960530fa_sunanmoqeyprjjjfxjt.jpg,00124931230fa.jpg,sunaalhlvzmjmitybdn.jpg,00905960530fa.jpg,sunanmoqeyprjjjfxjt.jpg,,,>,Place,,,,,1,,,,,,,x
57,10,Presentation,1,00885960530fa_sunakwlvxjpddialozd.jpg,00776941205fa_sunafxokyavhgptyfye.jpg,00885960530fa.jpg,sunakwlvxjpddialozd.jpg,00776941205fa.jpg,sunafxokyavhgptyfye.jpg,,,>,Place,,,,,1,,,,,,,x
58,10,Presentation,1,00266940128fb_sunabkngeblodihjvbk.jpg,00901960530fa_sunammbnoambmhdxdwd.jpg,00266940128fb.jpg,sunabkngeblodihjvbk.jpg,00901960530fa.jpg,sunammbnoambmhdxdwd.jpg,,,>,Place,,,,,1,,,,,,,o
59,10,Presentation,1,00723941201fa_sunaedtgwjvvziytspa.jpg,00922960627fa_sunapqkyghktgtosuuk.jpg,00723941201fa.jpg,sunaedtgwjvvziytspa.jpg,00922960627fa.jpg,sunapqkyghktgtosuuk.jpg,,,>,Place,,,,,1,,,,,,,x
60,10,Memory,1,,,,,,,00564941031fa.jpg,,,,,,,,,,,,,,,
61,10,Memory,1,,,,,,,00723941201fa.jpg,,,,,,,,,,,,,,,
62,10,Memory,1,,,,,,,sunabkmdplkdbvxriff.jpg,,,,,,,,,,,,,,,
63,10,Memory,1,,,,,,,00296940422fa.jpg,,,,,,,,,,,,,,,
64,10,Memory,1,,,,,,,sunacfdkbsrughwqwtt.jpg,,,,,,,,,,,,,,,
65,10,Memory,1,,,,,,,sunagtjwilqjvxohypn.jpg,,,,,,,,,,,,,,,
66,10,Memory,1,,,,,,,sunafgdqbclkwfocdhg.jpg,,,,,,,,,,,,,,,
67,10,Memory,1,,,,,,,00885960530fa.jpg,,,,,,,,,,,,,,,
68,10,Memory,1,,,,,,,00858940307fa.jpg,,,,,,,,,,,,,,,
69,10,Memory,1,,,,,,,sunbprywzqxjcezkbch.jpg,,,,,,,,,,,,,,,
70,10,Memory,1,,,,,,,00124931230fa.jpg,,,,,,,,,,,,,,,
71,10,Memory,1,,,,,,,sunahmhrncocyhsjpxk.jpg,,,,,,,,,,,,,,,
72,10,Memory,1,,,,,,,00096931230fa.jpg,,,,,,,,,,,,,,,
73,10,Memory,1,,,,,,,sunabanoxjtqxamkucc.jpg,,,,,,,,,,,,,,,
74,10,Memory,1,,,,,,,sunakmnfgklupjijsgf.jpg,,,,,,,,,,,,,,,
75,10,Memory,1,,,,,,,00816941205fa.jpg,,,,,,,,,,,,,,,
76,10,Memory,1,,,,,,,sunadakkdovnuzlycvp.jpg,,,,,,,,,,,,,,,
77,10,Memory,1,,,,,,,00630941031fa.jpg,,,,,,,,,,,,,,,
78,10,Memory,1,,,,,,,sunacsaovnjezqwbykf.jpg,,,,,,,,,,,,,,,
79,10,Memory,1,,,,,,,00841940307fa.jpg,,,,,,,,,,,,,,,
80,10,Memory,1,,,,,,,sunaobtizabegtwfwul.jpg,,,,,,,,,,,,,,,
81,10,Memory,1,,,,,,,sunakwlvxjpddialozd.jpg,,,,,,,,,,,,,,,
82,10,Memory,1,,,,,,,sunaisiwfgppimtnmxl.jpg,,,,,,,,,,,,,,,
83,10,Memory,1,,,,,,,00265940128fb.jpg,,,,,,,,,,,,,,,
84,10,Memory,1,,,,,,,00893960530Fa.jpg,,,,,,,,,,,,,,,
85,10,Memory,1,,,,,,,00210940128fb.jpg,,,,,,,,,,,,,,,
86,10,Memory,1,,,,,,,sunaixpqndlwhwjtjek.jpg,,,,,,,,,,,,,,,
87,10,Memory,1,,,,,,,00793941205fa.jpg,,,,,,,,,,,,,,,
88,10,Memory,1,,,,,,,sunbtpilbhhbmhmeuzq.jpg,,,,,,,,,,,,,,,
89,10,Memory,1,,,,,,,sunaaiqiqcggrskoqgy.jpg,,,,,,,,,,,,,,,
90,10,Memory,1,,,,,,,00761960627fa.jpg,,,,,,,,,,,,,,,
91,10,Memory,1,,,,,,,00880960530fa.jpg,,,,,,,,,,,,,,,
92,10,Memory,1,,,,,,,00997960627fa.jpg,,,,,,,,,,,,,,,
93,10,Memory,1,,,,,,,sunabrwnslxalcohfre.jpg,,,,,,,,,,,,,,,
94,10,Memory,1,,,,,,,sunaalhlvzmjmitybdn.jpg,,,,,,,,,,,,,,,
95,10,Memory,1,,,,,,,00909960530.jpg,,,,,,,,,,,,,,,
96,10,Memory,1,,,,,,,00554940519fa.jpg,,,,,,,,,,,,,,,
97,10,Memory,1,,,,,,,sunaloffvbvysigxent.jpg,,,,,,,,,,,,,,,
98,10,Memory,1,,,,,,,sunaedtgwjvvziytspa.jpg,,,,,,,,,,,,,,,
99,10,Memory,1,,,,,,,00993960627fa.jpg,,,,,,,,,,,,,,,
100,10,Presentation,2,00077931230fb_sunaafgqutfaishsxyu.jpg,00144931230fb_sunaathajvxrgptwhoj.jpg,00077931230fb.jpg,sunaafgqutfaishsxyu.jpg,00144931230fb.jpg,sunaathajvxrgptwhoj.jpg,,,>,Face,,,,,1,,,,,,,o
101,10,Presentation,2,00944960627fa_sunasbbntuiheekqyaq.jpg,01002960627fb_sunbwaafjdebjzttuvq.jpg,00944960627fa.jpg,sunasbbntuiheekqyaq.jpg,01002960627fb.jpg,sunbwaafjdebjzttuvq.jpg,,,>,Face,,,,,1,,,,,,,o
102,10,Presentation,2,00987960627fa_sunbloeoiozwjjsiamp.jpg,00271940422fa_sunabmbnddafmywtjjj.jpg,00987960627fa.jpg,sunbloeoiozwjjsiamp.jpg,00271940422fa.jpg,sunabmbnddafmywtjjj.jpg,,,>,Face,,,,,0,,,,,,,o
103,10,Presentation,2,00789960620fa_sunagpancjmxqfazssf.jpg,00153931230fa_sunaauhozyxzeeqstxi.jpg,00789960620fa.jpg,sunagpancjmxqfazssf.jpg,00153931230fa.jpg,sunaauhozyxzeeqstxi.jpg,,,>,Face,,,,,1,,,,,,,x
104,10,Presentation,2,00968960627fa_sunbagfpovqwbuexqdn.jpg,00915960620fa_sunapileznnbbmrwoei.jpg,00968960627fa.jpg,sunbagfpovqwbuexqdn.jpg,00915960620fa.jpg,sunapileznnbbmrwoei.jpg,,,>,Face,,,,,1,,,,,,,o
105,10,Presentation,2,00302940422fa_sunabtlfmiwtljmoues.jpg,00811960530fa_sunahedfrhtcwpneund.jpg,00302940422fa.jpg,sunabtlfmiwtljmoues.jpg,00811960530fa.jpg,sunahedfrhtcwpneund.jpg,,,>,Face,,,,,1,,,,,,,o
106,10,Presentation,2,00947960627fa_sunasmmcxdddtmtazwx.jpg,00483940519fa_sunabyvpwkgsjtijdwj.jpg,00947960627fa.jpg,sunasmmcxdddtmtazwx.jpg,00483940519fa.jpg,sunabyvpwkgsjtijdwj.jpg,,,>,Face,,,,,0,,,,,,,x
107,10,Presentation,2,00942960627fa_sunarfdklgdnjgeqfjg.jpg,00559940519fa_sunacjkmnpawfzbyvae.jpg,00942960627fa.jpg,sunarfdklgdnjgeqfjg.jpg,00559940519fa.jpg,sunacjkmnpawfzbyvae.jpg,,,>,Face,,,,,1,,,,,,,x
108,10,Presentation,2,00140931230fb_sunaapllqyqlykszopd.jpg,00851940307fa_sunaivflshbyfrfzhqb.jpg,00140931230fb.jpg,sunaapllqyqlykszopd.jpg,00851940307fa.jpg,sunaivflshbyfrfzhqb.jpg,,,>,Face,,,,,1,,,,,,,o
109,10,Presentation,2,00290940422fa_sunabqowuarvqqcnipn.jpg,00794960620fa_sunagtqhhwxjeuxdebe.jpg,00290940422fa.jpg,sunabqowuarvqqcnipn.jpg,00794960620fa.jpg,sunagtqhhwxjeuxdebe.jpg,,,>,Face,,,,,1,,,,,,,x
110,10,Memory,2,,,,,,,00153931230fa.jpg,,,,,,,,,,,,,,,
111,10,Memory,2,,,,,,,01002960627fb.jpg,,,,,,,,,,,,,,,
112,10,Memory,2,,,,,,,sunaapllqyqlykszopd.jpg,,,,,,,,,,,,,,,
113,10,Memory,2,,,,,,,00791941205fa.jpg,,,,,,,,,,,,,,,
114,10,Memory,2,,,,,,,sunbagfpovqwbuexqdn.jpg,,,,,,,,,,,,,,,
115,10,Memory,2,,,,,,,sunbwaafjdebjzttuvq.jpg,,,,,,,,,,,,,,,
116,10,Memory,2,,,,,,,00898960530fa.jpg,,,,,,,,,,,,,,,
117,10,Memory,2,,,,,,,sunahqldjibofgsfdgb.jpg,,,,,,,,,,,,,,,
118,10,Memory,2,,,,,,,sunaauhozyxzeeqstxi.jpg,,,,,,,,,,,,,,,
119,10,Memory,2,,,,,,,sunaaylzyqlqrsmfwif.jpg,,,,,,,,,,,,,,,
120,10,Memory,2,,,,,,,sunagountlxpzkytsmp.jpg,,,,,,,,,,,,,,,
121,10,Memory,2,,,,,,,00788941205fa.jpg,,,,,,,,,,,,,,,
122,10,Memory,2,,,,,,,sunadzuvtmtmgupotmf.jpg,,,,,,,,,,,,,,,
123,10,Memory,2,,,,,,,sunadfktsqjthoglcsm.jpg,,,,,,,,,,,,,,,
124,10,Memory,2,,,,,,,00851940307fa.jpg,,,,,,,,,,,,,,,
125,10,Memory,2,,,,,,,00915960620fa.jpg,,,,,,,,,,,,,,,
126,10,Memory,2,,,,,,,sunagpancjmxqfazssf.jpg,,,,,,,,,,,,,,,
127,10,Memory,2,,,,,,,00719960620fa.jpg,,,,,,,,,,,,,,,
128,10,Memory,2,,,,,,,sunaivflshbyfrfzhqb.jpg,,,,,,,,,,,,,,,
129,10,Memory,2,,,,,,,00902960530fa.jpg,,,,,,,,,,,,,,,
130,10,Memory,2,,,,,,,00633940928fa.jpg,,,,,,,,,,,,,,,
131,10,Memory,2,,,,,,,00302940422fa.jpg,,,,,,,,,,,,,,,
132,10,Memory,2,,,,,,,00819940307fa.jpg,,,,,,,,,,,,,,,
133,10,Memory,2,,,,,,,00140931230fb.jpg,,,,,,,,,,,,,,,
134,10,Memory,2,,,,,,,00077931230fb.jpg,,,,,,,,,,,,,,,
135,10,Memory,2,,,,,,,sunadbhmrgrrpyzglxs.jpg,,,,,,,,,,,,,,,
136,10,Memory,2,,,,,,,sunanaacmmosxrfwmvl.jpg,,,,,,,,,,,,,,,
137,10,Memory,2,,,,,,,00789960620fa.jpg,,,,,,,,,,,,,,,
138,10,Memory,2,,,,,,,00638941031fa.jpg,,,,,,,,,,,,,,,
139,10,Memory,2,,,,,,,sunamkmeblgteyggink.jpg,,,,,,,,,,,,,,,
140,10,Memory,2,,,,,,,sunaafgqutfaishsxyu.jpg,,,,,,,,,,,,,,,
141,10,Memory,2,,,,,,,sunacjkmnpawfzbyvae.jpg,,,,,,,,,,,,,,,
142,10,Memory,2,,,,,,,sunabtlfmiwtljmoues.jpg,,,,,,,,,,,,,,,
143,10,Memory,2,,,,,,,sunagrmyoovzukhxmlo.jpg,,,,,,,,,,,,,,,
144,10,Memory,2,,,,,,,sunanwjjyqqwzqrqagd.jpg,,,,,,,,,,,,,,,
145,10,Memory,2,,,,,,,00908960530fa.jpg,,,,,,,,,,,,,,,
146,10,Memory,2,,,,,,,00559940519fa.jpg,,,,,,,,,,,,,,,
147,10,Memory,2,,,,,,,00197940128fa.jpg,,,,,,,,,,,,,,,
148,10,Memory,2,,,,,,,00968960627fa.jpg,,,,,,,,,,,,,,,
149,10,Memory,2,,,,,,,sunapileznnbbmrwoei.jpg,,,,,,,,,,,,,,,
150,10,Presentation,3,00267940128fb_sunablfqiwfqomjarht.jpg,01005960627fa_sunbwyuesflwdpqtgoy.jpg,00267940128fb.jpg,sunablfqiwfqomjarht.jpg,01005960627fa.jpg,sunbwyuesflwdpqtgoy.jpg,,,<,Face,,,,,1,,,,,,,o
151,10,Presentation,3,00131931230fb_sunaangbuylfvckqqoo.jpg,00700941121fa_sunadsgmtznewzyasnk.jpg,00131931230fb.jpg,sunaangbuylfvckqqoo.jpg,00700941121fa.jpg,sunadsgmtznewzyasnk.jpg,,,<,Face,,,,,1,,,,,,,o
152,10,Presentation,3,00742941201fa_sunaenwuebvlpdmntju.jpg,00081941031fa_sunaaftlyfudyzuhqzf.jpg,00742941201fa.jpg,sunaenwuebvlpdmntju.jpg,00081941031fa.jpg,sunaaftlyfudyzuhqzf.jpg,,,<,Face,,,,,1,,,,,,,o
153,10,Presentation,3,00847940307fa_sunaivdjruhkrfywfed.jpg,00221940128fa_sunabcfpwlpolnutyju.jpg,00847940307fa.jpg,sunaivdjruhkrfywfed.jpg,00221940128fa.jpg,sunabcfpwlpolnutyju.jpg,,,<,Face,,,,,1,,,,,,,x
154,10,Presentation,3,00198940128fb_sunaazezcsunmhttzxz.jpg,00314940422fa_sunabwmcbaxwioksdgw.jpg,00198940128fb.jpg,sunaazezcsunmhttzxz.jpg,00314940422fa.jpg,sunabwmcbaxwioksdgw.jpg,,,<,Face,,,,,1,,,,,,,o
155,10,Presentation,3,00063931230fa_sunaaelyvurpntclgau.jpg,00984960627fa_sunbfzchmomnvzhbxdg.jpg,00063931230fa.jpg,sunaaelyvurpntclgau.jpg,00984960627fa.jpg,sunbfzchmomnvzhbxdg.jpg,,,<,Face,,,,,1,,,,,,,x
156,10,Presentation,3,00498960627fa_sunabzjxlmkwnwzimua.jpg,00239940128fa_sunabctlikybqabezjv.jpg,00498960627fa.jpg,sunabzjxlmkwnwzimua.jpg,00239940128fa.jpg,sunabctlikybqabezjv.jpg,,,<,Face,,,,,1,,,,,,,x
157,10,Presentation,3,00730960620fa_sunaekgzpfilgjxpeyq.jpg,00910960530fa_sunaofikylqtxphvdem.jpg,00730960620fa.jpg,sunaekgzpfilgjxpeyq.jpg,00910960530fa.jpg,sunaofikylqtxphvdem.jpg,,,<,Face,,,,,1,,,,,,,o
158,10,Presentation,3,00943960627fa_sunarpsxqkduedrrzyi.jpg,00778941205fa_sunagcthdfirrcawoic.jpg,00943960627fa.jpg,sunarpsxqkduedrrzyi.jpg,00778941205fa.jpg,sunagcthdfirrcawoic.jpg,,,<,Face,,,,,1,,,,,,,o
159,10,Presentation,3,00071940128fa_sunaaexpnawiehinlpy.jpg,00122931230fa_sunaakxjfbrrequcjmx.jpg,00071940128fa.jpg,sunaaexpnawiehinlpy.jpg,00122931230fa.jpg,sunaakxjfbrrequcjmx.jpg,,,<,Face,,,,,1,,,,,,,o
160,10,Memory,3,,,,,,,00598941031fa.jpg,,,,,,,,,,,,,,,
161,10,Memory,3,,,,,,,sunaaexpnawiehinlpy.jpg,,,,,,,,,,,,,,,
162,10,Memory,3,,,,,,,sunaahedjlmtqekgyvj.jpg,,,,,,,,,,,,,,,
163,10,Memory,3,,,,,,,sunabwmcbaxwioksdgw.jpg,,,,,,,,,,,,,,,
164,10,Memory,3,,,,,,,00267940128fb.jpg,,,,,,,,,,,,,,,
165,10,Memory,3,,,,,,,00242940128fa.jpg,,,,,,,,,,,,,,,
166,10,Memory,3,,,,,,,sunabjuovqvyfuzvqwt.jpg,,,,,,,,,,,,,,,
167,10,Memory,3,,,,,,,sunaaftlyfudyzuhqzf.jpg,,,,,,,,,,,,,,,
168,10,Memory,3,,,,,,,sunacepzfrmtkiqonpy.jpg,,,,,,,,,,,,,,,
169,10,Memory,3,,,,,,,00910960530fa.jpg,,,,,,,,,,,,,,,
170,10,Memory,3,,,,,,,00809960620fa.jpg,,,,,,,,,,,,,,,
171,10,Memory,3,,,,,,,sunaivdjruhkrfywfed.jpg,,,,,,,,,,,,,,,
172,10,Memory,3,,,,,,,sunbvbrvgbpanfrawft.jpg,,,,,,,,,,,,,,,
173,10,Memory,3,,,,,,,sunaangbuylfvckqqoo.jpg,,,,,,,,,,,,,,,
174,10,Memory,3,,,,,,,sunbwyuesflwdpqtgoy.jpg,,,,,,,,,,,,,,,
175,10,Memory,3,,,,,,,sunagcthdfirrcawoic.jpg,,,,,,,,,,,,,,,
176,10,Memory,3,,,,,,,00070940307fa.jpg,,,,,,,,,,,,,,,
177,10,Memory,3,,,,,,,00783941205fa.jpg,,,,,,,,,,,,,,,
178,10,Memory,3,,,,,,,sunacxtcahkymosigud.jpg,,,,,,,,,,,,,,,
179,10,Memory,3,,,,,,,sunabcuurugvxwparpk.jpg,,,,,,,,,,,,,,,
180,10,Memory,3,,,,,,,00090931230fa.jpg,,,,,,,,,,,,,,,
181,10,Memory,3,,,,,,,00847940307fa.jpg,,,,,,,,,,,,,,,
182,10,Memory,3,,,,,,,00943960627fa.jpg,,,,,,,,,,,,,,,
183,10,Memory,3,,,,,,,sunahbvlpavurqoxdeq.jpg,,,,,,,,,,,,,,,
184,10,Memory,3,,,,,,,00263940128fb.jpg,,,,,,,,,,,,,,,
185,10,Memory,3,,,,,,,01005960627fa.jpg,,,,,,,,,,,,,,,
186,10,Memory,3,,,,,,,00778941205fa.jpg,,,,,,,,,,,,,,,
187,10,Memory,3,,,,,,,sunafijbgncijwykrnl.jpg,,,,,,,,,,,,,,,
188,10,Memory,3,,,,,,,sunagjeesomrwjsfqie.jpg,,,,,,,,,,,,,,,
189,10,Memory,3,,,,,,,sunaofikylqtxphvdem.jpg,,,,,,,,,,,,,,,
190,10,Memory,3,,,,,,,00999960627fa.jpg,,,,,,,,,,,,,,,
191,10,Memory,3,,,,,,,00314940422fa.jpg,,,,,,,,,,,,,,,
192,10,Memory,3,,,,,,,sunaaeplwsfslcbtojr.jpg,,,,,,,,,,,,,,,
193,10,Memory,3,,,,,,,00081941031fa.jpg,,,,,,,,,,,,,,,
194,10,Memory,3,,,,,,,00131931230fb.jpg,,,,,,,,,,,,,,,
195,10,Memory,3,,,,,,,sunablfqiwfqomjarht.jpg,,,,,,,,,,,,,,,
196,10,Memory,3,,,,,,,sunarpsxqkduedrrzyi.jpg,,,,,,,,,,,,,,,
197,10,Memory,3,,,,,,,00071940128fa.jpg,,,,,,,,,,,,,,,
198,10,Memory,3,,,,,,,00766960620fa.jpg,,,,,,,,,,,,,,,
199,10,Memory,3,,,,,,,00543940519fa.jpg,,,,,,,,,,,,,,,
200,10,Presentation,4,00834940307fa_sunaibnpvhkdpdnzcnz.jpg,01003960627fb_sunbwdrdvsweerwsdrj.jpg,00834940307fa.jpg,sunaibnpvhkdpdnzcnz.jpg,01003960627fb.jpg,sunbwdrdvsweerwsdrj.jpg,,,>,Face,,,,,1,,,,,,,o
201,10,Presentation,4,00728941205fa_sunaejnvnpltdmhbcsi.jpg,00803941205fa_sunagvxkjokqimstxpe.jpg,00728941205fa.jpg,sunaejnvnpltdmhbcsi.jpg,00803941205fa.jpg,sunagvxkjokqimstxpe.jpg,,,>,Face,,,,,1,,,,,,,o
202,10,Presentation,4,00115931230fa_sunaakmxzhuceuiryah.jpg,00631940928fa_sunadbdqzigzwipuipr.jpg,00115931230fa.jpg,sunaakmxzhuceuiryah.jpg,00631940928fa.jpg,sunadbdqzigzwipuipr.jpg,,,>,Face,,,,,1,,,,,,,x
203,10,Presentation,4,00903960620fa_sunanainkqdvktzoxyl.jpg,01007960627fa_sunbxarcshsnqsefemx.jpg,00903960620fa.jpg,sunanainkqdvktzoxyl.jpg,01007960627fa.jpg,sunbxarcshsnqsefemx.jpg,,,>,Face,,,,,1,,,,,,,x
204,10,Presentation,4,00976960627fa_sunbbhqyyzmsxhsbjmp.jpg,00694941121fa_sunadrmfzmstgdjdcod.jpg,00976960627fa.jpg,sunbbhqyyzmsxhsbjmp.jpg,00694941121fa.jpg,sunadrmfzmstgdjdcod.jpg,,,>,Face,,,,,0,,,,,,,x
205,10,Presentation,4,00773960620fa_sunafvsxtzaizojicxx.jpg,00963960627fa_sunayaepykrqvenaqqy.jpg,00773960620fa.jpg,sunafvsxtzaizojicxx.jpg,00963960627fa.jpg,sunayaepykrqvenaqqy.jpg,,,>,Face,,,,,1,,,,,,,x
206,10,Presentation,4,00119931230fb_sunaakvmbftkrgqhjun.jpg,00080931230fb_sunaafjszryxyavjzln.jpg,00119931230fb.jpg,sunaakvmbftkrgqhjun.jpg,00080931230fb.jpg,sunaafjszryxyavjzln.jpg,,,>,Face,,,,,1,,,,,,,o
207,10,Presentation,4,00598940928fa_sunacxeheuiigkcgquf.jpg,00786941205fa_sunagmhildamktmqjss.jpg,00598940928fa.jpg,sunacxeheuiigkcgquf.jpg,00786941205fa.jpg,sunagmhildamktmqjss.jpg,,,>,Face,,,,,1,,,,,,,o
208,10,Presentation,4,00827940307fa_sunahtfxgsrmkiulnwk.jpg,00972960627fa_sunbbfqwjpdxniyhies.jpg,00827940307fa.jpg,sunahtfxgsrmkiulnwk.jpg,00972960627fa.jpg,sunbbfqwjpdxniyhies.jpg,,,>,Face,,,,,1,,,,,,,o
209,10,Presentation,4,00797960620fa_sunagufzbeteqdjxais.jpg,00529940519fa_sunacbeefkxpymwevpk.jpg,00797960620fa.jpg,sunagufzbeteqdjxais.jpg,00529940519fa.jpg,sunacbeefkxpymwevpk.jpg,,,>,Face,,,,,1,,,,,,,x
210,10,Memory,4,,,,,,,sunaavodbcpygkggnfp.jpg,,,,,,,,,,,,,,,
211,10,Memory,4,,,,,,,sunaakmxzhuceuiryah.jpg,,,,,,,,,,,,,,,
212,10,Memory,4,,,,,,,00929960627fa.jpg,,,,,,,,,,,,,,,
213,10,Memory,4,,,,,,,00080931230fb.jpg,,,,,,,,,,,,,,,
214,10,Memory,4,,,,,,,sunagvxkjokqimstxpe.jpg,,,,,,,,,,,,,,,
215,10,Memory,4,,,,,,,00803941205fa.jpg,,,,,,,,,,,,,,,
216,10,Memory,4,,,,,,,00115931230fa.jpg,,,,,,,,,,,,,,,
217,10,Memory,4,,,,,,,00771941205fa.jpg,,,,,,,,,,,,,,,
218,10,Memory,4,,,,,,,00119931230fb.jpg,,,,,,,,,,,,,,,
219,10,Memory,4,,,,,,,sunafowswglhxcsufpo.jpg,,,,,,,,,,,,,,,
220,10,Memory,4,,,,,,,sunabrjdpmoedcdjbpo.jpg,,,,,,,,,,,,,,,
221,10,Memory,4,,,,,,,00834940307fa.jpg,,,,,,,,,,,,,,,
222,10,Memory,4,,,,,,,00976960627fa.jpg,,,,,,,,,,,,,,,
223,10,Memory,4,,,,,,,sunaprnrbmgkomdbchr.jpg,,,,,,,,,,,,,,,
224,10,Memory,4,,,,,,,00634940928fa.jpg,,,,,,,,,,,,,,,
225,10,Memory,4,,,,,,,sunagmhildamktmqjss.jpg,,,,,,,,,,,,,,,
226,10,Memory,4,,,,,,,sunabbwggenhfbftyvi.jpg,,,,,,,,,,,,,,,
227,10,Memory,4,,,,,,,sunbbhqyyzmsxhsbjmp.jpg,,,,,,,,,,,,,,,
228,10,Memory,4,,,,,,,00786941205fa.jpg,,,,,,,,,,,,,,,
229,10,Memory,4,,,,,,,sunaibnpvhkdpdnzcnz.jpg,,,,,,,,,,,,,,,
230,10,Memory,4,,,,,,,00576941031fa.jpg,,,,,,,,,,,,,,,
231,10,Memory,4,,,,,,,00292940422fb.jpg,,,,,,,,,,,,,,,
232,10,Memory,4,,,,,,,00163931230fb.jpg,,,,,,,,,,,,,,,
233,10,Memory,4,,,,,,,00972960627fa.jpg,,,,,,,,,,,,,,,
234,10,Memory,4,,,,,,,sunbxarcshsnqsefemx.jpg,,,,,,,,,,,,,,,
235,10,Memory,4,,,,,,,sunbasypfgzjtomktmu.jpg,,,,,,,,,,,,,,,
236,10,Memory,4,,,,,,,sunadcphrizvfpljiqt.jpg,,,,,,,,,,,,,,,
237,10,Memory,4,,,,,,,00062931230fb.jpg,,,,,,,,,,,,,,,
238,10,Memory,4,,,,,,,sunaakvmbftkrgqhjun.jpg,,,,,,,,,,,,,,,
239,10,Memory,4,,,,,,,sunaaelotvjgibjtjhs.jpg,,,,,,,,,,,,,,,
240,10,Memory,4,,,,,,,sunbbfqwjpdxniyhies.jpg,,,,,,,,,,,,,,,
241,10,Memory,4,,,,,,,sunacvjlsylseoghjup.jpg,,,,,,,,,,,,,,,
242,10,Memory,4,,,,,,,sunaafjszryxyavjzln.jpg,,,,,,,,,,,,,,,
243,10,Memory,4,,,,,,,00260940128fa.jpg,,,,,,,,,,,,,,,
244,10,Memory,4,,,,,,,sunabgfhvifeijihhjw.jpg,,,,,,,,,,,,,,,
245,10,Memory,4,,,,,,,00773960620fa.jpg,,,,,,,,,,,,,,,
246,10,Memory,4,,,,,,,01007960627fa.jpg,,,,,,,,,,,,,,,
247,10,Memory,4,,,,,,,00970960627fa.jpg,,,,,,,,,,,,,,,
248,10,Memory,4,,,,,,,sunafvsxtzaizojicxx.jpg,,,,,,,,,,,,,,,
249,10,Memory,4,,,,,,,00218940128fa.jpg,,,,,,,,,,,,,,,
250,10,Presentation,5,00990960627fa_sunbpflsdaxnddnwcqi.jpg,00245940128fa_sunabeyhmxodahoieyk.jpg,00990960627fa.jpg,sunbpflsdaxnddnwcqi.jpg,00245940128fa.jpg,sunabeyhmxodahoieyk.jpg,,,<,Face,,,,,1,,,,,,,o
251,10,Presentation,5,00751960620fa_sunaezuszgtxnmsxdbk.jpg,00807941205fa_sunahawfngukizslzsd.jpg,00751960620fa.jpg,sunaezuszgtxnmsxdbk.jpg,00807941205fa.jpg,sunahawfngukizslzsd.jpg,,,<,Face,,,,,1,,,,,,,o
252,10,Presentation,5,00098931230fa_sunaajpqmulidejvjsr.jpg,00123931230fb_sunaalcrrdbjgdztbiz.jpg,00098931230fa.jpg,sunaajpqmulidejvjsr.jpg,00123931230fb.jpg,sunaalcrrdbjgdztbiz.jpg,,,<,Face,,,,,0,,,,,,,o
253,10,Presentation,5,00936960627fa_sunaqgjuuwvdcyiccjt.jpg,00911960530fa_sunaooaqzputrowwbsw.jpg,00936960627fa.jpg,sunaqgjuuwvdcyiccjt.jpg,00911960530fa.jpg,sunaooaqzputrowwbsw.jpg,,,<,Face,,,,,1,,,,,,,o
254,10,Presentation,5,00670941121fa_sunadochqcucscehsgk.jpg,00894960620fa_sunalqmfgeadpqsyzpd.jpg,00670941121fa.jpg,sunadochqcucscehsgk.jpg,00894960620fa.jpg,sunalqmfgeadpqsyzpd.jpg,,,<,Face,,,,,1,,,,,,,x
255,10,Presentation,5,00101931230fb_sunaajqmsaavkmgbsth.jpg,00967960627fa_sunbaejotfklekvpxcz.jpg,00101931230fb.jpg,sunaajqmsaavkmgbsth.jpg,00967960627fa.jpg,sunbaejotfklekvpxcz.jpg,,,<,Face,,,,,1,,,,,,,x
256,10,Presentation,5,00869940307fa_sunajoveqhiprwqgoco.jpg,00866940307fa_sunajbwkywmsqkldfml.jpg,00869940307fa.jpg,sunajoveqhiprwqgoco.jpg,00866940307fa.jpg,sunajbwkywmsqkldfml.jpg,,,<,Face,,,,,1,,,,,,,o
257,10,Presentation,5,00589940928fa_sunacwggadqsfpovdjv.jpg,00741941201fa_sunaemcowdozyphwknd.jpg,00589940928fa.jpg,sunacwggadqsfpovdjv.jpg,00741941201fa.jpg,sunaemcowdozyphwknd.jpg,,,<,Face,,,,,1,,,,,,,o
258,10,Presentation,5,00796941205fa_sunaguchqqnrtodtezq.jpg,00635941031fa_sunaddsaeicthrfbkhe.jpg,00796941205fa.jpg,sunaguchqqnrtodtezq.jpg,00635941031fa.jpg,sunaddsaeicthrfbkhe.jpg,,,<,Face,,,,,1,,,,,,,x
259,10,Presentation,5,00745941205fa_sunaeouogqolxvggaoq.jpg,00838940307fa_sunaiozxhxgtfrmoagh.jpg,00745941205fa.jpg,sunaeouogqolxvggaoq.jpg,00838940307fa.jpg,sunaiozxhxgtfrmoagh.jpg,,,<,Face,,,,,1,,,,,,,o
260,10,Memory,5,,,,,,,00828940307fa.jpg,,,,,,,,,,,,,,,
261,10,Memory,5,,,,,,,00869940307fa.jpg,,,,,,,,,,,,,,,
262,10,Memory,5,,,,,,,sunaalcrrdbjgdztbiz.jpg,,,,,,,,,,,,,,,
263,10,Memory,5,,,,,,,sunaiozxhxgtfrmoagh.jpg,,,,,,,,,,,,,,,
264,10,Memory,5,,,,,,,sunbpflsdaxnddnwcqi.jpg,,,,,,,,,,,,,,,
265,10,Memory,5,,,,,,,sunaddsaeicthrfbkhe.jpg,,,,,,,,,,,,,,,
266,10,Memory,5,,,,,,,00996960627fa.jpg,,,,,,,,,,,,,,,
267,10,Memory,5,,,,,,,00796941205fa.jpg,,,,,,,,,,,,,,,
268,10,Memory,5,,,,,,,sunbpvgllfdejxcpjqp.jpg,,,,,,,,,,,,,,,
269,10,Memory,5,,,,,,,sunaanlwnpqndclffxt.jpg,,,,,,,,,,,,,,,
270,10,Memory,5,,,,,,,00990960627fa.jpg,,,,,,,,,,,,,,,
271,10,Memory,5,,,,,,,sunajwqkfsykceonyig.jpg,,,,,,,,,,,,,,,
272,10,Memory,5,,,,,,,00747941201fa.jpg,,,,,,,,,,,,,,,
273,10,Memory,5,,,,,,,sunaeutbrtswvsozxyk.jpg,,,,,,,,,,,,,,,
274,10,Memory,5,,,,,,,sunaccdtpgenvcbcbcf.jpg,,,,,,,,,,,,,,,
275,10,Memory,5,,,,,,,00123931230fb.jpg,,,,,,,,,,,,,,,
276,10,Memory,5,,,,,,,sunaaemixhfquhnxxlm.jpg,,,,,,,,,,,,,,,
277,10,Memory,5,,,,,,,sunaajpqmulidejvjsr.jpg,,,,,,,,,,,,,,,
278,10,Memory,5,,,,,,,00745941205fa.jpg,,,,,,,,,,,,,,,
279,10,Memory,5,,,,,,,00133931230fa.jpg,,,,,,,,,,,,,,,
280,10,Memory,5,,,,,,,00532960627fa.jpg,,,,,,,,,,,,,,,
281,10,Memory,5,,,,,,,00647941031fa.jpg,,,,,,,,,,,,,,,
282,10,Memory,5,,,,,,,sunaeouogqolxvggaoq.jpg,,,,,,,,,,,,,,,
283,10,Memory,5,,,,,,,00635941031fa.jpg,,,,,,,,,,,,,,,
284,10,Memory,5,,,,,,,00245940128fa.jpg,,,,,,,,,,,,,,,
285,10,Memory,5,,,,,,,00838940307fa.jpg,,,,,,,,,,,,,,,
286,10,Memory,5,,,,,,,00807941205fa.jpg,,,,,,,,,,,,,,,
287,10,Memory,5,,,,,,,sunalntxqqadigcletd.jpg,,,,,,,,,,,,,,,
288,10,Memory,5,,,,,,,sunabwfvcqqidycwypa.jpg,,,,,,,,,,,,,,,
289,10,Memory,5,,,,,,,sunabeyhmxodahoieyk.jpg,,,,,,,,,,,,,,,
290,10,Memory,5,,,,,,,00308940422fb.jpg,,,,,,,,,,,,,,,
291,10,Memory,5,,,,,,,00876960620fa.jpg,,,,,,,,,,,,,,,
292,10,Memory,5,,,,,,,00065931230fb.jpg,,,,,,,,,,,,,,,
293,10,Memory,5,,,,,,,sunajoveqhiprwqgoco.jpg,,,,,,,,,,,,,,,
294,10,Memory,5,,,,,,,00892960530fa.jpg,,,,,,,,,,,,,,,
295,10,Memory,5,,,,,,,sunadflbrkckmepztql.jpg,,,,,,,,,,,,,,,
296,10,Memory,5,,,,,,,sunaguchqqnrtodtezq.jpg,,,,,,,,,,,,,,,
297,10,Memory,5,,,,,,,00098931230fa.jpg,,,,,,,,,,,,,,,
298,10,Memory,5,,,,,,,sunahawfngukizslzsd.jpg,,,,,,,,,,,,,,,
299,10,Memory,5,,,,,,,sunahuynahneraqftyz.jpg,,,,,,,,,,,,,,,
300,10,Presentation,6,00860940307fa_sunaizeyhvjzknwjudw.jpg,00507940519fa_sunacacflqoyxhsqzhe.jpg,00860940307fa.jpg,sunaizeyhvjzknwjudw.jpg,00507940519fa.jpg,sunacacflqoyxhsqzhe.jpg,,,<,Place,,,,,1,,,,,,,x
301,10,Presentation,6,00235940128fb_sunabclssnoeuigtawp.jpg,01010960627fa_suncnkvbhypnivcohyx.jpg,00235940128fb.jpg,sunabclssnoeuigtawp.jpg,01010960627fa.jpg,suncnkvbhypnivcohyx.jpg,,,<,Place,,,,,1,,,,,,,x
302,10,Presentation,6,00787941205fa_sunagmwxxwymwojbvgi.jpg,00662941121fa_sunadkazmlajmohnwfl.jpg,00787941205fa.jpg,sunagmwxxwymwojbvgi.jpg,00662941121fa.jpg,sunadkazmlajmohnwfl.jpg,,,<,Place,,,,,1,,,,,,,x
303,10,Presentation,6,00795941205fa_sunagtumacdlmciqamz.jpg,00571940928fa_sunacuatpqpqhyjhjqk.jpg,00795941205fa.jpg,sunagtumacdlmciqamz.jpg,00571940928fa.jpg,sunacuatpqpqhyjhjqk.jpg,,,<,Place,,,,,1,,,,,,,x
304,10,Presentation,6,00120931230fa_sunaakxgygjfqrzpyoz.jpg,00069931230fb_sunaaeowapdkwzqpgqr.jpg,00120931230fa.jpg,sunaakxgygjfqrzpyoz.jpg,00069931230fb.jpg,sunaaeowapdkwzqpgqr.jpg,,,<,Place,,,,,1,,,,,,,x
305,10,Presentation,6,00481940519fa_sunabxsuqbleluwczoy.jpg,00648941031fa_sunadfndyrtqqiasoig.jpg,00481940519fa.jpg,sunabxsuqbleluwczoy.jpg,00648941031fa.jpg,sunadfndyrtqqiasoig.jpg,,,<,Place,,,,,1,,,,,,,x
306,10,Presentation,6,00264940128fb_sunabjzyxcjnmztdonj.jpg,00138931230fa_sunaapfaivxqoynnwwp.jpg,00264940128fb.jpg,sunabjzyxcjnmztdonj.jpg,00138931230fa.jpg,sunaapfaivxqoynnwwp.jpg,,,<,Place,,,,,1,,,,,,,x
307,10,Presentation,6,00949960627fb_sunasnqkkyhilqkxiqm.jpg,00952960627fa_sunathzzbcwjykldrem.jpg,00949960627fb.jpg,sunasnqkkyhilqkxiqm.jpg,00952960627fa.jpg,sunathzzbcwjykldrem.jpg,,,<,Place,,,,,1,,,,,,,o
308,10,Presentation,6,00092931230fa_sunaaheqzstzxuadglu.jpg,00959960627fa_sunavxokzybtomhbmvm.jpg,00092931230fa.jpg,sunaaheqzstzxuadglu.jpg,00959960627fa.jpg,sunavxokzybtomhbmvm.jpg,,,<,Place,,,,,1,,,,,,,o
309,10,Presentation,6,00127931230fa_sunaampvucecsfbdafn.jpg,00548940519fa_sunacerqowiaeoqkmsq.jpg,00127931230fa.jpg,sunaampvucecsfbdafn.jpg,00548940519fa.jpg,sunacerqowiaeoqkmsq.jpg,,,<,Place,,,,,1,,,,,,,x
310,10,Memory,6,,,,,,,sunaaeowapdkwzqpgqr.jpg,,,,,,,,,,,,,,,
311,10,Memory,6,,,,,,,sunahrltmuwbiehihpe.jpg,,,,,,,,,,,,,,,
312,10,Memory,6,,,,,,,00571940928fa.jpg,,,,,,,,,,,,,,,
313,10,Memory,6,,,,,,,00147931230fb.jpg,,,,,,,,,,,,,,,
314,10,Memory,6,,,,,,,sunabasphceswhwwqvv.jpg,,,,,,,,,,,,,,,
315,10,Memory,6,,,,,,,00069931230fb.jpg,,,,,,,,,,,,,,,
316,10,Memory,6,,,,,,,sunabzuqsrgcsonqlkz.jpg,,,,,,,,,,,,,,,
317,10,Memory,6,,,,,,,00825940307fa.jpg,,,,,,,,,,,,,,,
318,10,Memory,6,,,,,,,sunabclssnoeuigtawp.jpg,,,,,,,,,,,,,,,
319,10,Memory,6,,,,,,,00960960627fa.jpg,,,,,,,,,,,,,,,
320,10,Memory,6,,,,,,,00505960627fa.jpg,,,,,,,,,,,,,,,
321,10,Memory,6,,,,,,,sunahiphsekjihkafsl.jpg,,,,,,,,,,,,,,,
322,10,Memory,6,,,,,,,sunaatpkocdkocwxpkb.jpg,,,,,,,,,,,,,,,
323,10,Memory,6,,,,,,,01004960627fa.jpg,,,,,,,,,,,,,,,
324,10,Memory,6,,,,,,,sunacuatpqpqhyjhjqk.jpg,,,,,,,,,,,,,,,
325,10,Memory,6,,,,,,,00264940128fb.jpg,,,,,,,,,,,,,,,
326,10,Memory,6,,,,,,,sunabjzyxcjnmztdonj.jpg,,,,,,,,,,,,,,,
327,10,Memory,6,,,,,,,sunasnqkkyhilqkxiqm.jpg,,,,,,,,,,,,,,,
328,10,Memory,6,,,,,,,00985960627fa.jpg,,,,,,,,,,,,,,,
329,10,Memory,6,,,,,,,00787941205fa.jpg,,,,,,,,,,,,,,,
330,10,Memory,6,,,,,,,00548940519fa.jpg,,,,,,,,,,,,,,,
331,10,Memory,6,,,,,,,sunbgklxeqjhdbyfhhy.jpg,,,,,,,,,,,,,,,
332,10,Memory,6,,,,,,,sunbwtlihsuptkrckid.jpg,,,,,,,,,,,,,,,
333,10,Memory,6,,,,,,,suncnkvbhypnivcohyx.jpg,,,,,,,,,,,,,,,
334,10,Memory,6,,,,,,,00662941121fa.jpg,,,,,,,,,,,,,,,
335,10,Memory,6,,,,,,,00127931230fa.jpg,,,,,,,,,,,,,,,
336,10,Memory,6,,,,,,,00211940128fa.jpg,,,,,,,,,,,,,,,
337,10,Memory,6,,,,,,,00581940928fa.jpg,,,,,,,,,,,,,,,
338,10,Memory,6,,,,,,,sunawksfbacycuhbrsc.jpg,,,,,,,,,,,,,,,
339,10,Memory,6,,,,,,,sunagmwxxwymwojbvgi.jpg,,,,,,,,,,,,,,,
340,10,Memory,6,,,,,,,00949960627fb.jpg,,,,,,,,,,,,,,,
341,10,Memory,6,,,,,,,sunacerqowiaeoqkmsq.jpg,,,,,,,,,,,,,,,
342,10,Memory,6,,,,,,,sunacvzhvcksnwqcqbw.jpg,,,,,,,,,,,,,,,
343,10,Memory,6,,,,,,,sunaampvucecsfbdafn.jpg,,,,,,,,,,,,,,,
344,10,Memory,6,,,,,,,sunadkazmlajmohnwfl.jpg,,,,,,,,,,,,,,,
345,10,Memory,6,,,,,,,00235940128fb.jpg,,,,,,,,,,,,,,,
346,10,Memory,6,,,,,,,00961960627fa.jpg,,,,,,,,,,,,,,,
347,10,Memory,6,,,,,,,00815941205fa.jpg,,,,,,,,,,,,,,,
348,10,Memory,6,,,,,,,sunawotxrevnqvamsfp.jpg,,,,,,,,,,,,,,,
349,10,Memory,6,,,,,,,01010960627fa.jpg,,,,,,,,,,,,,,,
350,10,Presentation,7,00779941205fa_sunagdzlvkqtpnfxfcg.jpg,00973960627fa_sunbbgtoeuzierkkajt.jpg,00779941205fa.jpg,sunagdzlvkqtpnfxfcg.jpg,00973960627fa.jpg,sunbbgtoeuzierkkajt.jpg,,,>,Place,,,,,1,,,,,,,o
351,10,Presentation,7,00746941201fa_sunaetydippjxikifsb.jpg,00193940928fa_sunaaxjpzcnxligjtjq.jpg,00746941201fa.jpg,sunaetydippjxikifsb.jpg,00193940928fa.jpg,sunaaxjpzcnxligjtjq.jpg,,,>,Place,,,,,1,,,,,,,x
352,10,Presentation,7,00958960627fa_sunavspxmxubqaeidjt.jpg,00895960530fa_sunamczizlzavhzhpay.jpg,00958960627fa.jpg,sunavspxmxubqaeidjt.jpg,00895960530fa.jpg,sunamczizlzavhzhpay.jpg,,,>,Place,,,,,1,,,,,,,o
353,10,Presentation,7,00965960627fa_sunaydywdmvlfddbxbk.jpg,00822940307fa_sunahqrxievfeusiqlt.jpg,00965960627fa.jpg,sunaydywdmvlfddbxbk.jpg,00822940307fa.jpg,sunahqrxievfeusiqlt.jpg,,,>,Place,,,,,0,,,,,,,o
354,10,Presentation,7,00562941031fa_sunacjnahdmqfnjfwqx.jpg,00071941031fa_sunaaexqbtdswxrqjvz.jpg,00562941031fa.jpg,sunacjnahdmqfnjfwqx.jpg,00071941031fa.jpg,sunaaexqbtdswxrqjvz.jpg,,,>,Place,,,,,1,,,,,,,x
355,10,Presentation,7,00162931230fb_sunaavjinpnkappuonm.jpg,00762941201fa_sunafgzgbisbopcyslr.jpg,00162931230fb.jpg,sunaavjinpnkappuonm.jpg,00762941201fa.jpg,sunafgzgbisbopcyslr.jpg,,,>,Place,,,,,1,,,,,,,x
356,10,Presentation,7,00818940307fa_sunahpblecxtmuzkmxb.jpg,00782941205fa_sunagfvluwixdsozaql.jpg,00818940307fa.jpg,sunahpblecxtmuzkmxb.jpg,00782941205fa.jpg,sunagfvluwixdsozaql.jpg,,,>,Place,,,,,1,,,,,,,x
357,10,Presentation,7,00780960530fa_sunagetqixeypsysbpn.jpg,00772941201fa_sunafpfpiiujzoesnqg.jpg,00780960530fa.jpg,sunagetqixeypsysbpn.jpg,00772941201fa.jpg,sunafpfpiiujzoesnqg.jpg,,,>,Place,,,,,1,,,,,,,x
358,10,Presentation,7,00636941031fa_sunaddtdkycxbqlpfqa.jpg,00102931230fa_sunaajspcoepticvplv.jpg,00636941031fa.jpg,sunaddtdkycxbqlpfqa.jpg,00102931230fa.jpg,sunaajspcoepticvplv.jpg,,,>,Place,,,,,1,,,,,,,x
359,10,Presentation,7,00986960627fa_sunbgzjryivyczuvkvm.jpg,00061931230fb_sunaaekxzjzrfgtkwjf.jpg,00986960627fa.jpg,sunbgzjryivyczuvkvm.jpg,00061931230fb.jpg,sunaaekxzjzrfgtkwjf.jpg,,,>,Place,,,,,0,,,,,,,o
360,10,Memory,7,,,,,,,00562941031fa.jpg,,,,,,,,,,,,,,,
361,10,Memory,7,,,,,,,00540940519fa.jpg,,,,,,,,,,,,,,,
362,10,Memory,7,,,,,,,00978960627fa.jpg,,,,,,,,,,,,,,,
363,10,Memory,7,,,,,,,sunaddtdkycxbqlpfqa.jpg,,,,,,,,,,,,,,,
364,10,Memory,7,,,,,,,00760960620fa.jpg,,,,,,,,,,,,,,,
365,10,Memory,7,,,,,,,sunaaxjpzcnxligjtjq.jpg,,,,,,,,,,,,,,,
366,10,Memory,7,,,,,,,00762941201fa.jpg,,,,,,,,,,,,,,,
367,10,Memory,7,,,,,,,00926960627Fa.jpg,,,,,,,,,,,,,,,
368,10,Memory,7,,,,,,,sunacjnahdmqfnjfwqx.jpg,,,,,,,,,,,,,,,
369,10,Memory,7,,,,,,,sunafgzgbisbopcyslr.jpg,,,,,,,,,,,,,,,
370,10,Memory,7,,,,,,,sunaeuzwggvibufclwf.jpg,,,,,,,,,,,,,,,
371,10,Memory,7,,,,,,,00822940307fa.jpg,,,,,,,,,,,,,,,
372,10,Memory,7,,,,,,,00102931230fa.jpg,,,,,,,,,,,,,,,
373,10,Memory,7,,,,,,,sunaajspcoepticvplv.jpg,,,,,,,,,,,,,,,
374,10,Memory,7,,,,,,,sunacdnquypmsshhsbk.jpg,,,,,,,,,,,,,,,
375,10,Memory,7,,,,,,,sunagetqixeypsysbpn.jpg,,,,,,,,,,,,,,,
376,10,Memory,7,,,,,,,00780960530fa.jpg,,,,,,,,,,,,,,,
377,10,Memory,7,,,,,,,sunaffstbkappprzxnv.jpg,,,,,,,,,,,,,,,
378,10,Memory,7,,,,,,,00818940307fa.jpg,,,,,,,,,,,,,,,
379,10,Memory,7,,,,,,,00162931230fb.jpg,,,,,,,,,,,,,,,
380,10,Memory,7,,,,,,,sunbddbivbptlrlauhy.jpg,,,,,,,,,,,,,,,
381,10,Memory,7,,,,,,,sunaletopenvvozhpxc.jpg,,,,,,,,,,,,,,,
382,10,Memory,7,,,,,,,00750941201fa.jpg,,,,,,,,,,,,,,,
383,10,Memory,7,,,,,,,00889960530fa.jpg,,,,,,,,,,,,,,,
384,10,Memory,7,,,,,,,00149931230fa.jpg,,,,,,,,,,,,,,,
385,10,Memory,7,,,,,,,00973960627fa.jpg,,,,,,,,,,,,,,,
386,10,Memory,7,,,,,,,00636941031fa.jpg,,,,,,,,,,,,,,,
387,10,Memory,7,,,,,,,sunbbgtoeuzierkkajt.jpg,,,,,,,,,,,,,,,
388,10,Memory,7,,,,,,,sunaakgekhjklxmvulj.jpg,,,,,,,,,,,,,,,
389,10,Memory,7,,,,,,,00609940928fa.jpg,,,,,,,,,,,,,,,
390,10,Memory,7,,,,,,,sunaauglwmctnkxyird.jpg,,,,,,,,,,,,,,,
391,10,Memory,7,,,,,,,sunahqrxievfeusiqlt.jpg,,,,,,,,,,,,,,,
392,10,Memory,7,,,,,,,sunahpblecxtmuzkmxb.jpg,,,,,,,,,,,,,,,
393,10,Memory,7,,,,,,,00111931230fb.jpg,,,,,,,,,,,,,,,
394,10,Memory,7,,,,,,,00193940928fa.jpg,,,,,,,,,,,,,,,
395,10,Memory,7,,,,,,,sunahctntqrunhdxhtb.jpg,,,,,,,,,,,,,,,
396,10,Memory,7,,,,,,,sunacycdoztxoluxjyk.jpg,,,,,,,,,,,,,,,
397,10,Memory,7,,,,,,,sunapqwoeotxshkukbh.jpg,,,,,,,,,,,,,,,
398,10,Memory,7,,,,,,,sunaavjinpnkappuonm.jpg,,,,,,,,,,,,,,,
399,10,Memory,7,,,,,,,00810941205fa.jpg,,,,,,,,,,,,,,,
