,Subject,Trial Type,Run,Cued Composite,Uncued Composite,Cued Face,Cued Place,Uncued Face,Uncued Place,Memory Image,Category,Cued Side,Cued Category,Attention Reaction Time (s),Familiarity Reaction Time (s),Familiarity Rating,Attention Level,Cue Validity,Post Invalid Cue,Pre Invalid Cue,Attention Button
0,test1,Presentation,0,01004960627fa_sunbwtlihsuptkrckid.jpg,00750941201fa_sunaeuzwggvibufclwf.jpg,01004960627fa.jpg,sunbwtlihsuptkrckid.jpg,00750941201fa.jpg,sunaeuzwggvibufclwf.jpg,,,>,Face,,,,,1,,,
1,test1,Presentation,0,00970960627fa_sunbasypfgzjtomktmu.jpg,00305940422fa_sunabtrnbvpppgczjim.jpg,00970960627fa.jpg,sunbasypfgzjtomktmu.jpg,00305940422fa.jpg,sunabtrnbvpppgczjim.jpg,,,>,Face,,,,,1,,,
2,test1,Presentation,0,00877960530fa_sunajxpkuhbizeveguy.jpg,00184940128fa_sunaavtbadenwnzeutj.jpg,00877960530fa.jpg,sunajxpkuhbizeveguy.jpg,00184940128fa.jpg,sunaavtbadenwnzeutj.jpg,,,>,Face,,,,,1,,,
3,test1,Presentation,0,00988960627fa_sunbmaiocftdtvnzgap.jpg,00908960530fa_sunanwjjyqqwzqrqagd.jpg,00988960627fa.jpg,sunbmaiocftdtvnzgap.jpg,00908960530fa.jpg,sunanwjjyqqwzqrqagd.jpg,,,>,Face,,,,,1,,,
4,test1,Presentation,0,00906960530fa_sunantryfbloeaomfta.jpg,00895960530fa_sunamczizlzavhzhpay.jpg,00906960530fa.jpg,sunantryfbloeaomfta.jpg,00895960530fa.jpg,sunamczizlzavhzhpay.jpg,,,>,Face,,,,,1,,,
5,test1,Presentation,0,00938960627fa_sunaqyylsngywqzwfmx.jpg,00564940928fa_sunacmpqqfbsvlzinzl.jpg,00938960627fa.jpg,sunaqyylsngywqzwfmx.jpg,00564940928fa.jpg,sunacmpqqfbsvlzinzl.jpg,,,>,Face,,,,,1,,,
6,test1,Presentation,0,00742941201fa_sunaenwuebvlpdmntju.jpg,00973960627fa_sunbbgtoeuzierkkajt.jpg,00742941201fa.jpg,sunaenwuebvlpdmntju.jpg,00973960627fa.jpg,sunbbgtoeuzierkkajt.jpg,,,>,Face,,,,,1,,,
7,test1,Presentation,0,00294940422fb_sunabrlndkruqokhury.jpg,00145931230fb_sunaatjesvdupctftmn.jpg,00294940422fb.jpg,sunabrlndkruqokhury.jpg,00145931230fb.jpg,sunaatjesvdupctftmn.jpg,,,>,Face,,,,,1,,,
8,test1,Presentation,0,00142931230fb_sunaapxkpvrhpjplsok.jpg,00136931230fb_sunaanptmsknhirrzed.jpg,00142931230fb.jpg,sunaapxkpvrhpjplsok.jpg,00136931230fb.jpg,sunaanptmsknhirrzed.jpg,,,>,Face,,,,,1,,,
9,test1,Presentation,0,00663941121fa_sunadnjjzohjhbohlwq.jpg,00705960530fa_sunaduslxfzlbxlllnz.jpg,00663941121fa.jpg,sunadnjjzohjhbohlwq.jpg,00705960530fa.jpg,sunaduslxfzlbxlllnz.jpg,,,>,Face,,,,,1,,,
10,test1,Memory,0,,,,,,,sunabwfvcqqidycwypa.jpg,,,,,,,,,,,
11,test1,Memory,0,,,,,,,00061931230fb.jpg,,,,,,,,,,,
12,test1,Memory,0,,,,,,,sunaaexqbtdswxrqjvz.jpg,,,,,,,,,,,
13,test1,Memory,0,,,,,,,00926960627Fa.jpg,,,,,,,,,,,
14,test1,Memory,0,,,,,,,sunaapxkpvrhpjplsok.jpg,,,,,,,,,,,
15,test1,Memory,0,,,,,,,00144931230fb.jpg,,,,,,,,,,,
16,test1,Memory,0,,,,,,,00809960620fa.jpg,,,,,,,,,,,
17,test1,Memory,0,,,,,,,00554940519fa.jpg,,,,,,,,,,,
18,test1,Memory,0,,,,,,,00815941205fa.jpg,,,,,,,,,,,
19,test1,Memory,0,,,,,,,00634940928fa.jpg,,,,,,,,,,,
20,test1,Memory,0,,,,,,,00908960530fa.jpg,,,,,,,,,,,
21,test1,Memory,0,,,,,,,00650941031fa.jpg,,,,,,,,,,,
22,test1,Memory,0,,,,,,,00858940307fa.jpg,,,,,,,,,,,
23,test1,Memory,0,,,,,,,00125931230fa.jpg,,,,,,,,,,,
24,test1,Memory,0,,,,,,,00663941121fa.jpg,,,,,,,,,,,
25,test1,Memory,0,,,,,,,00108960530fa.jpg,,,,,,,,,,,
26,test1,Memory,0,,,,,,,sunaazezcsunmhttzxz.jpg,,,,,,,,,,,
27,test1,Memory,0,,,,,,,00127931230fa.jpg,,,,,,,,,,,
28,test1,Memory,0,,,,,,,00931960627fa.jpg,,,,,,,,,,,
29,test1,Memory,0,,,,,,,00235940128fb.jpg,,,,,,,,,,,
30,test1,Memory,0,,,,,,,sunanmoqeyprjjjfxjt.jpg,,,,,,,,,,,
31,test1,Memory,0,,,,,,,01004960627fa.jpg,,,,,,,,,,,
32,test1,Memory,0,,,,,,,sunagutjvdvnhxejerz.jpg,,,,,,,,,,,
33,test1,Memory,0,,,,,,,00787960620fa.jpg,,,,,,,,,,,
34,test1,Memory,0,,,,,,,sunabppokiyglaxpcha.jpg,,,,,,,,,,,
35,test1,Memory,0,,,,,,,sunaamvxnvouicstkjb.jpg,,,,,,,,,,,
36,test1,Memory,0,,,,,,,sunagvxkjokqimstxpe.jpg,,,,,,,,,,,
37,test1,Memory,0,,,,,,,sunadzuvtmtmgupotmf.jpg,,,,,,,,,,,
38,test1,Memory,0,,,,,,,sunaalltyvjhbzhkmvg.jpg,,,,,,,,,,,
39,test1,Memory,0,,,,,,,sunaathajvxrgptwhoj.jpg,,,,,,,,,,,
40,test1,Memory,0,,,,,,,sunahrltmuwbiehihpe.jpg,,,,,,,,,,,
41,test1,Memory,0,,,,,,,sunagetqixeypsysbpn.jpg,,,,,,,,,,,
42,test1,Memory,0,,,,,,,sunbbgtoeuzierkkajt.jpg,,,,,,,,,,,
43,test1,Memory,0,,,,,,,00789960620fa.jpg,,,,,,,,,,,
44,test1,Memory,0,,,,,,,00988960627fa.jpg,,,,,,,,,,,
45,test1,Memory,0,,,,,,,00915960620fa.jpg,,,,,,,,,,,
46,test1,Memory,0,,,,,,,00102931230fa.jpg,,,,,,,,,,,
47,test1,Memory,0,,,,,,,sunadflbrkckmepztql.jpg,,,,,,,,,,,
48,test1,Memory,0,,,,,,,sunaivflshbyfrfzhqb.jpg,,,,,,,,,,,
49,test1,Memory,0,,,,,,,00077931230fb.jpg,,,,,,,,,,,
50,test1,Presentation,1,00794960620fa_sunagtqhhwxjeuxdebe.jpg,00869940307fa_sunajoveqhiprwqgoco.jpg,00794960620fa.jpg,sunagtqhhwxjeuxdebe.jpg,00869940307fa.jpg,sunajoveqhiprwqgoco.jpg,,,>,Place,,,,,1,,,
51,test1,Presentation,1,00746941201fa_sunaetydippjxikifsb.jpg,00124931230fa_sunaalhlvzmjmitybdn.jpg,00746941201fa.jpg,sunaetydippjxikifsb.jpg,00124931230fa.jpg,sunaalhlvzmjmitybdn.jpg,,,>,Place,,,,,1,,,
52,test1,Presentation,1,00108960530fa_sunaajtnvzzpsjdzres.jpg,00835940307fa_sunaijsqpvodplbwxkf.jpg,00108960530fa.jpg,sunaajtnvzzpsjdzres.jpg,00835940307fa.jpg,sunaijsqpvodplbwxkf.jpg,,,>,Place,,,,,1,,,
53,test1,Presentation,1,00097931230fa_sunaajayojuslbbnneg.jpg,00841940307fa_sunaisiwfgppimtnmxl.jpg,00097931230fa.jpg,sunaajayojuslbbnneg.jpg,00841940307fa.jpg,sunaisiwfgppimtnmxl.jpg,,,>,Place,,,,,0,,,
54,test1,Presentation,1,00801941205fa_sunagvprlbprarvgdvj.jpg,00775941205fa_sunafvwfsmqkjrutjta.jpg,00801941205fa.jpg,sunagvprlbprarvgdvj.jpg,00775941205fa.jpg,sunafvwfsmqkjrutjta.jpg,,,>,Place,,,,,1,,,
55,test1,Presentation,1,00797960620fa_sunagufzbeteqdjxais.jpg,00753941201fa_sunafcofuuzebuadceo.jpg,00797960620fa.jpg,sunagufzbeteqdjxais.jpg,00753941201fa.jpg,sunafcofuuzebuadceo.jpg,,,>,Place,,,,,1,,,
56,test1,Presentation,1,00211940128fa_sunabasphceswhwwqvv.jpg,00939960627fa_sunarceibpcyacbmfga.jpg,00211940128fa.jpg,sunabasphceswhwwqvv.jpg,00939960627fa.jpg,sunarceibpcyacbmfga.jpg,,,>,Place,,,,,1,,,
57,test1,Presentation,1,00235940128fb_sunabclssnoeuigtawp.jpg,01003960627fb_sunbwdrdvsweerwsdrj.jpg,00235940128fb.jpg,sunabclssnoeuigtawp.jpg,01003960627fb.jpg,sunbwdrdvsweerwsdrj.jpg,,,>,Place,,,,,1,,,
58,test1,Presentation,1,00308940422fb_sunabwfvcqqidycwypa.jpg,00154931230fa_sunaauueuhhvklldjik.jpg,00308940422fb.jpg,sunabwfvcqqidycwypa.jpg,00154931230fa.jpg,sunaauueuhhvklldjik.jpg,,,>,Place,,,,,1,,,
59,test1,Presentation,1,00952960627fa_sunathzzbcwjykldrem.jpg,00138931230fa_sunaapfaivxqoynnwwp.jpg,00952960627fa.jpg,sunathzzbcwjykldrem.jpg,00138931230fa.jpg,sunaapfaivxqoynnwwp.jpg,,,>,Place,,,,,0,,,
60,test1,Memory,1,,,,,,,sunaatjesvdupctftmn.jpg,,,,,,,,,,,
61,test1,Memory,1,,,,,,,00571940928fa.jpg,,,,,,,,,,,
62,test1,Memory,1,,,,,,,sunagdzlvkqtpnfxfcg.jpg,,,,,,,,,,,
63,test1,Memory,1,,,,,,,sunaanjcbzdvtvblsdy.jpg,,,,,,,,,,,
64,test1,Memory,1,,,,,,,sunachtuarilwyqnvjx.jpg,,,,,,,,,,,
65,test1,Memory,1,,,,,,,00795941205fa.jpg,,,,,,,,,,,
66,test1,Memory,1,,,,,,,sunaezuszgtxnmsxdbk.jpg,,,,,,,,,,,
67,test1,Memory,1,,,,,,,sunaakmxzhuceuiryah.jpg,,,,,,,,,,,
68,test1,Memory,1,,,,,,,sunajxpkuhbizeveguy.jpg,,,,,,,,,,,
69,test1,Memory,1,,,,,,,sunadikxpvqeabxrvvc.jpg,,,,,,,,,,,
70,test1,Memory,1,,,,,,,sunainqelldeebvxtcz.jpg,,,,,,,,,,,
71,test1,Memory,1,,,,,,,00933960627fa.jpg,,,,,,,,,,,
72,test1,Memory,1,,,,,,,00162931230fb.jpg,,,,,,,,,,,
73,test1,Memory,1,,,,,,,00264940128fb.jpg,,,,,,,,,,,
74,test1,Memory,1,,,,,,,sunacsdhbbsybcyxnel.jpg,,,,,,,,,,,
75,test1,Memory,1,,,,,,,sunaavodbcpygkggnfp.jpg,,,,,,,,,,,
76,test1,Memory,1,,,,,,,sunaafjszryxyavjzln.jpg,,,,,,,,,,,
77,test1,Memory,1,,,,,,,sunajrujcsdxmfbssmc.jpg,,,,,,,,,,,
78,test1,Memory,1,,,,,,,00960960627fa.jpg,,,,,,,,,,,
79,test1,Memory,1,,,,,,,00996960627fa.jpg,,,,,,,,,,,
80,test1,Memory,1,,,,,,,sunawksfbacycuhbrsc.jpg,,,,,,,,,,,
81,test1,Memory,1,,,,,,,sunagcthdfirrcawoic.jpg,,,,,,,,,,,
82,test1,Memory,1,,,,,,,00819940307fa.jpg,,,,,,,,,,,
83,test1,Memory,1,,,,,,,sunaaxjpzcnxligjtjq.jpg,,,,,,,,,,,
84,test1,Memory,1,,,,,,,00507940519fa.jpg,,,,,,,,,,,
85,test1,Memory,1,,,,,,,00532960627fa.jpg,,,,,,,,,,,
86,test1,Memory,1,,,,,,,sunaalcrrdbjgdztbiz.jpg,,,,,,,,,,,
87,test1,Memory,1,,,,,,,sunadfktsqjthoglcsm.jpg,,,,,,,,,,,
88,test1,Memory,1,,,,,,,00198940128fb.jpg,,,,,,,,,,,
89,test1,Memory,1,,,,,,,sunbmaiocftdtvnzgap.jpg,,,,,,,,,,,
90,test1,Memory,1,,,,,,,00065931230fb.jpg,,,,,,,,,,,
91,test1,Memory,1,,,,,,,sunacepzfrmtkiqonpy.jpg,,,,,,,,,,,
92,test1,Memory,1,,,,,,,sunacuatpqpqhyjhjqk.jpg,,,,,,,,,,,
93,test1,Memory,1,,,,,,,sunaajspcoepticvplv.jpg,,,,,,,,,,,
94,test1,Memory,1,,,,,,,sunbpflsdaxnddnwcqi.jpg,,,,,,,,,,,
95,test1,Memory,1,,,,,,,00131931230fb.jpg,,,,,,,,,,,
96,test1,Memory,1,,,,,,,00949960627fb.jpg,,,,,,,,,,,
97,test1,Memory,1,,,,,,,sunafpfpiiujzoesnqg.jpg,,,,,,,,,,,
98,test1,Memory,1,,,,,,,00095931230fa.jpg,,,,,,,,,,,
99,test1,Memory,1,,,,,,,sunaiozxhxgtfrmoagh.jpg,,,,,,,,,,,
100,test1,Presentation,2,00062931230fb_sunaaelotvjgibjtjhs.jpg,00115931230fa_sunaakmxzhuceuiryah.jpg,00062931230fb.jpg,sunaaelotvjgibjtjhs.jpg,00115931230fa.jpg,sunaakmxzhuceuiryah.jpg,,,<,Face,,,,,1,,,
101,test1,Presentation,2,00780960530fa_sunagetqixeypsysbpn.jpg,00540940519fa_sunacdnquypmsshhsbk.jpg,00780960530fa.jpg,sunagetqixeypsysbpn.jpg,00540940519fa.jpg,sunacdnquypmsshhsbk.jpg,,,<,Face,,,,,1,,,
102,test1,Presentation,2,00576941031fa_sunacvjlsylseoghjup.jpg,00133931230fa_sunaanlwnpqndclffxt.jpg,00576941031fa.jpg,sunacvjlsylseoghjup.jpg,00133931230fa.jpg,sunaanlwnpqndclffxt.jpg,,,<,Face,,,,,1,,,
103,test1,Presentation,2,00809960620fa_sunahbvlpavurqoxdeq.jpg,00822940307fa_sunahqrxievfeusiqlt.jpg,00809960620fa.jpg,sunahbvlpavurqoxdeq.jpg,00822940307fa.jpg,sunahqrxievfeusiqlt.jpg,,,<,Face,,,,,1,,,
104,test1,Presentation,2,00996960627fa_sunbpvgllfdejxcpjqp.jpg,00302940422fa_sunabtlfmiwtljmoues.jpg,00996960627fa.jpg,sunbpvgllfdejxcpjqp.jpg,00302940422fa.jpg,sunabtlfmiwtljmoues.jpg,,,<,Face,,,,,1,,,
105,test1,Presentation,2,00984960627fa_sunbfzchmomnvzhbxdg.jpg,00630940928fa_sunaczwgyukesaajxnx.jpg,00984960627fa.jpg,sunbfzchmomnvzhbxdg.jpg,00630940928fa.jpg,sunaczwgyukesaajxnx.jpg,,,<,Face,,,,,1,,,
106,test1,Presentation,2,00505960627fa_sunabzuqsrgcsonqlkz.jpg,00950960627fa_sunasrjlmglmjzbmqxb.jpg,00505960627fa.jpg,sunabzuqsrgcsonqlkz.jpg,00950960627fa.jpg,sunasrjlmglmjzbmqxb.jpg,,,<,Face,,,,,1,,,
107,test1,Presentation,2,00882960530fa_sunaknlirqjqiwbbeeg.jpg,00082931230fa_sunaafvitpexrpvumsa.jpg,00882960530fa.jpg,sunaknlirqjqiwbbeeg.jpg,00082931230fa.jpg,sunaafvitpexrpvumsa.jpg,,,<,Face,,,,,0,,,
108,test1,Presentation,2,00776941205fa_sunafxokyavhgptyfye.jpg,00819940307fa_sunahqldjibofgsfdgb.jpg,00776941205fa.jpg,sunafxokyavhgptyfye.jpg,00819940307fa.jpg,sunahqldjibofgsfdgb.jpg,,,<,Face,,,,,1,,,
109,test1,Presentation,2,00146960620fb_sunaatpeezlljqaxlhj.jpg,00554940519fa_sunacfdkbsrughwqwtt.jpg,00146960620fb.jpg,sunaatpeezlljqaxlhj.jpg,00554940519fa.jpg,sunacfdkbsrughwqwtt.jpg,,,<,Face,,,,,1,,,
110,test1,Memory,2,,,,,,,00902960530fa.jpg,,,,,,,,,,,
111,test1,Memory,2,,,,,,,sunacacflqoyxhsqzhe.jpg,,,,,,,,,,,
112,test1,Memory,2,,,,,,,sunahqldjibofgsfdgb.jpg,,,,,,,,,,,
113,test1,Memory,2,,,,,,,00900960530fa.jpg,,,,,,,,,,,
114,test1,Memory,2,,,,,,,sunammbnoambmhdxdwd.jpg,,,,,,,,,,,
115,test1,Memory,2,,,,,,,00705941205fa.jpg,,,,,,,,,,,
116,test1,Memory,2,,,,,,,sunacerqowiaeoqkmsq.jpg,,,,,,,,,,,
117,test1,Memory,2,,,,,,,00548940519fa.jpg,,,,,,,,,,,
118,test1,Memory,2,,,,,,,sunacvzhvcksnwqcqbw.jpg,,,,,,,,,,,
119,test1,Memory,2,,,,,,,sunagmwxxwymwojbvgi.jpg,,,,,,,,,,,
120,test1,Memory,2,,,,,,,sunaakjaacuzulqckgl.jpg,,,,,,,,,,,
121,test1,Memory,2,,,,,,,sunaamdjwemxpmmtypi.jpg,,,,,,,,,,,
122,test1,Memory,2,,,,,,,sunaaelotvjgibjtjhs.jpg,,,,,,,,,,,
123,test1,Memory,2,,,,,,,00967960627fa.jpg,,,,,,,,,,,
124,test1,Memory,2,,,,,,,00794960620fa.jpg,,,,,,,,,,,
125,test1,Memory,2,,,,,,,sunanwjjyqqwzqrqagd.jpg,,,,,,,,,,,
126,test1,Memory,2,,,,,,,00638941031fa.jpg,,,,,,,,,,,
127,test1,Memory,2,,,,,,,sunbbegcweqnetpdlrh.jpg,,,,,,,,,,,
128,test1,Memory,2,,,,,,,00857940307fa.jpg,,,,,,,,,,,
129,test1,Memory,2,,,,,,,sunbdycacjfaujxitbw.jpg,,,,,,,,,,,
130,test1,Memory,2,,,,,,,sunapqwoeotxshkukbh.jpg,,,,,,,,,,,
131,test1,Memory,2,,,,,,,00647941031fa.jpg,,,,,,,,,,,
132,test1,Memory,2,,,,,,,sunabkngeblodihjvbk.jpg,,,,,,,,,,,
133,test1,Memory,2,,,,,,,00779941205fa.jpg,,,,,,,,,,,
134,test1,Memory,2,,,,,,,00130931230fa.jpg,,,,,,,,,,,
135,test1,Memory,2,,,,,,,00773960620fa.jpg,,,,,,,,,,,
136,test1,Memory,2,,,,,,,sunaaekxzjzrfgtkwjf.jpg,,,,,,,,,,,
137,test1,Memory,2,,,,,,,sunadtlxenqqxsyjvix.jpg,,,,,,,,,,,
138,test1,Memory,2,,,,,,,sunaemcowdozyphwknd.jpg,,,,,,,,,,,
139,test1,Memory,2,,,,,,,sunagwswhkvnsmuszlz.jpg,,,,,,,,,,,
140,test1,Memory,2,,,,,,,00741941201fa.jpg,,,,,,,,,,,
141,test1,Memory,2,,,,,,,sunadfndyrtqqiasoig.jpg,,,,,,,,,,,
142,test1,Memory,2,,,,,,,sunaakqepfoeqomfgxf.jpg,,,,,,,,,,,
143,test1,Memory,2,,,,,,,00804960530fa.jpg,,,,,,,,,,,
144,test1,Memory,2,,,,,,,sunarpsxqkduedrrzyi.jpg,,,,,,,,,,,
145,test1,Memory,2,,,,,,,00071941031fa.jpg,,,,,,,,,,,
146,test1,Memory,2,,,,,,,sunbaoizrfijvhpnnjn.jpg,,,,,,,,,,,
147,test1,Memory,2,,,,,,,00778941205fa.jpg,,,,,,,,,,,
148,test1,Memory,2,,,,,,,sunapwjkcxdaeqehfql.jpg,,,,,,,,,,,
149,test1,Memory,2,,,,,,,00568940928fa.jpg,,,,,,,,,,,
150,test1,Presentation,3,00785941205fa_sunaglqunwuycxydmyu.jpg,00772941201fa_sunafpfpiiujzoesnqg.jpg,00785941205fa.jpg,sunaglqunwuycxydmyu.jpg,00772941201fa.jpg,sunafpfpiiujzoesnqg.jpg,,,>,Face,,,,,1,,,
151,test1,Presentation,3,00955960627fb_sunauburywlkjszngcq.jpg,00874940307fa_sunajtrfunvzdfticna.jpg,00955960627fb.jpg,sunauburywlkjszngcq.jpg,00874940307fa.jpg,sunajtrfunvzdfticna.jpg,,,>,Face,,,,,1,,,
152,test1,Presentation,3,00839940307fa_sunaipyohrqlwngaqif.jpg,00851940307fa_sunaivflshbyfrfzhqb.jpg,00839940307fa.jpg,sunaipyohrqlwngaqif.jpg,00851940307fa.jpg,sunaivflshbyfrfzhqb.jpg,,,>,Face,,,,,1,,,
153,test1,Presentation,3,00812941205fa_sunahgtbwgsmtqeodwh.jpg,00292940422fb_sunabrjdpmoedcdjbpo.jpg,00812941205fa.jpg,sunahgtbwgsmtqeodwh.jpg,00292940422fb.jpg,sunabrjdpmoedcdjbpo.jpg,,,>,Face,,,,,1,,,
154,test1,Presentation,3,00900960530fa_sunamlotskmmsjeogby.jpg,00070940307fa_sunaaeplwsfslcbtojr.jpg,00900960530fa.jpg,sunamlotskmmsjeogby.jpg,00070940307fa.jpg,sunaaeplwsfslcbtojr.jpg,,,>,Face,,,,,1,,,
155,test1,Presentation,3,00061931230fb_sunaaekxzjzrfgtkwjf.jpg,00598941031fa_sunacxtcahkymosigud.jpg,00061931230fb.jpg,sunaaekxzjzrfgtkwjf.jpg,00598941031fa.jpg,sunacxtcahkymosigud.jpg,,,>,Face,,,,,1,,,
156,test1,Presentation,3,00194940128fb_sunaayehfdqcyxggsej.jpg,00069931230fb_sunaaeowapdkwzqpgqr.jpg,00194940128fb.jpg,sunaayehfdqcyxggsej.jpg,00069931230fb.jpg,sunaaeowapdkwzqpgqr.jpg,,,>,Face,,,,,1,,,
157,test1,Presentation,3,00543940519fa_sunacepzfrmtkiqonpy.jpg,00568940928fa_sunacsdhbbsybcyxnel.jpg,00543940519fa.jpg,sunacepzfrmtkiqonpy.jpg,00568940928fa.jpg,sunacsdhbbsybcyxnel.jpg,,,>,Face,,,,,1,,,
158,test1,Presentation,3,00957960627fa_sunavhxgmgrqsaptynb.jpg,00763941205fa_sunafhmnhsdurlvddpw.jpg,00957960627fa.jpg,sunavhxgmgrqsaptynb.jpg,00763941205fa.jpg,sunafhmnhsdurlvddpw.jpg,,,>,Face,,,,,1,,,
159,test1,Presentation,3,00564941031fa_sunacsaovnjezqwbykf.jpg,00997960627fa_sunbtpilbhhbmhmeuzq.jpg,00564941031fa.jpg,sunacsaovnjezqwbykf.jpg,00997960627fa.jpg,sunbtpilbhhbmhmeuzq.jpg,,,>,Face,,,,,1,,,
160,test1,Memory,3,,,,,,,00557940519fa.jpg,,,,,,,,,,,
161,test1,Memory,3,,,,,,,00559940519fa.jpg,,,,,,,,,,,
162,test1,Memory,3,,,,,,,sunaeisnjeetzmkbuad.jpg,,,,,,,,,,,
163,test1,Memory,3,,,,,,,00670941121fa.jpg,,,,,,,,,,,
164,test1,Memory,3,,,,,,,00859940307fa.jpg,,,,,,,,,,,
165,test1,Memory,3,,,,,,,00290940422fa.jpg,,,,,,,,,,,
166,test1,Memory,3,,,,,,,sunahtfxgsrmkiulnwk.jpg,,,,,,,,,,,
167,test1,Memory,3,,,,,,,sunadnjjzohjhbohlwq.jpg,,,,,,,,,,,
168,test1,Memory,3,,,,,,,00193940928fa.jpg,,,,,,,,,,,
169,test1,Memory,3,,,,,,,01005960627fa.jpg,,,,,,,,,,,
170,test1,Memory,3,,,,,,,sunbesrwkdsffeogeqq.jpg,,,,,,,,,,,
171,test1,Memory,3,,,,,,,00267940128fb.jpg,,,,,,,,,,,
172,test1,Memory,3,,,,,,,00969960627fa.jpg,,,,,,,,,,,
173,test1,Memory,3,,,,,,,sunaavjinpnkappuonm.jpg,,,,,,,,,,,
174,test1,Memory,3,,,,,,,sunbwyuesflwdpqtgoy.jpg,,,,,,,,,,,
175,test1,Memory,3,,,,,,,sunabclssnoeuigtawp.jpg,,,,,,,,,,,
176,test1,Memory,3,,,,,,,sunaptrqvaooxfvktvw.jpg,,,,,,,,,,,
177,test1,Memory,3,,,,,,,00805941205fa.jpg,,,,,,,,,,,
178,test1,Memory,3,,,,,,,00973960627fa.jpg,,,,,,,,,,,
179,test1,Memory,3,,,,,,,00898960530fa.jpg,,,,,,,,,,,
180,test1,Memory,3,,,,,,,sunbvzmgrdvaakxusbu.jpg,,,,,,,,,,,
181,test1,Memory,3,,,,,,,sunacjnahdmqfnjfwqx.jpg,,,,,,,,,,,
182,test1,Memory,3,,,,,,,sunaczwgyukesaajxnx.jpg,,,,,,,,,,,
183,test1,Memory,3,,,,,,,00799941205fa.jpg,,,,,,,,,,,
184,test1,Memory,3,,,,,,,sunaafbmtoniaasysgu.jpg,,,,,,,,,,,
185,test1,Memory,3,,,,,,,sunaampvucecsfbdafn.jpg,,,,,,,,,,,
186,test1,Memory,3,,,,,,,sunaizgnnplsvajzhkc.jpg,,,,,,,,,,,
187,test1,Memory,3,,,,,,,00308940422fb.jpg,,,,,,,,,,,
188,test1,Memory,3,,,,,,,sunaiwfobocrruqznsv.jpg,,,,,,,,,,,
189,test1,Memory,3,,,,,,,sunajwqkfsykceonyig.jpg,,,,,,,,,,,
190,test1,Memory,3,,,,,,,00630940928fa.jpg,,,,,,,,,,,
191,test1,Memory,3,,,,,,,00961960627fa.jpg,,,,,,,,,,,
192,test1,Memory,3,,,,,,,sunahiphsekjihkafsl.jpg,,,,,,,,,,,
193,test1,Memory,3,,,,,,,sunagpancjmxqfazssf.jpg,,,,,,,,,,,
194,test1,Memory,3,,,,,,,00921960627fa.jpg,,,,,,,,,,,
195,test1,Memory,3,,,,,,,00979960627fa.jpg,,,,,,,,,,,
196,test1,Memory,3,,,,,,,sunaqbmgkgqucajzrkp.jpg,,,,,,,,,,,
197,test1,Memory,3,,,,,,,sunacsaovnjezqwbykf.jpg,,,,,,,,,,,
198,test1,Memory,3,,,,,,,00648941031fa.jpg,,,,,,,,,,,
199,test1,Memory,3,,,,,,,00089931230fa.jpg,,,,,,,,,,,
200,test1,Presentation,4,00752960620fa_sunafbwnojpqeyzssoe.jpg,00943960627fa_sunarpsxqkduedrrzyi.jpg,00752960620fa.jpg,sunafbwnojpqeyzssoe.jpg,00943960627fa.jpg,sunarpsxqkduedrrzyi.jpg,,,<,Place,,,,,1,,,
201,test1,Presentation,4,00933960627fa_sunapwjkcxdaeqehfql.jpg,00266940128fb_sunabkngeblodihjvbk.jpg,00933960627fa.jpg,sunapwjkcxdaeqehfql.jpg,00266940128fb.jpg,sunabkngeblodihjvbk.jpg,,,<,Place,,,,,1,,,
202,test1,Presentation,4,00571940928fa_sunacuatpqpqhyjhjqk.jpg,00793941205fa_sunagtjwilqjvxohypn.jpg,00571940928fa.jpg,sunacuatpqpqhyjhjqk.jpg,00793941205fa.jpg,sunagtjwilqjvxohypn.jpg,,,<,Place,,,,,1,,,
203,test1,Presentation,4,00993960627fa_sunbprywzqxjcezkbch.jpg,00903960620fa_sunanainkqdvktzoxyl.jpg,00993960627fa.jpg,sunbprywzqxjcezkbch.jpg,00903960620fa.jpg,sunanainkqdvktzoxyl.jpg,,,<,Place,,,,,1,,,
204,test1,Presentation,4,00744941201fa_sunaeomlfaabhpswasy.jpg,00893960530Fa_sunaloffvbvysigxent.jpg,00744941201fa.jpg,sunaeomlfaabhpswasy.jpg,00893960530Fa.jpg,sunaloffvbvysigxent.jpg,,,<,Place,,,,,1,,,
205,test1,Presentation,4,00112931230fa_sunaakjaacuzulqckgl.jpg,00967960627fa_sunbaejotfklekvpxcz.jpg,00112931230fa.jpg,sunaakjaacuzulqckgl.jpg,00967960627fa.jpg,sunbaejotfklekvpxcz.jpg,,,<,Place,,,,,0,,,
206,test1,Presentation,4,00676941121fa_sunadpnqovzckyikrjo.jpg,00931960627fa_sunaptrqvaooxfvktvw.jpg,00676941121fa.jpg,sunadpnqovzckyikrjo.jpg,00931960627fa.jpg,sunaptrqvaooxfvktvw.jpg,,,<,Place,,,,,1,,,
207,test1,Presentation,4,00876960620fa_sunajwqkfsykceonyig.jpg,00140931230fb_sunaapllqyqlykszopd.jpg,00876960620fa.jpg,sunajwqkfsykceonyig.jpg,00140931230fb.jpg,sunaapllqyqlykszopd.jpg,,,<,Place,,,,,1,,,
208,test1,Presentation,4,00694941121fa_sunadrmfzmstgdjdcod.jpg,00978960627fa_sunbddbivbptlrlauhy.jpg,00694941121fa.jpg,sunadrmfzmstgdjdcod.jpg,00978960627fa.jpg,sunbddbivbptlrlauhy.jpg,,,<,Place,,,,,1,,,
209,test1,Presentation,4,00681941121fa_sunadqmjrhfjyuzyvdd.jpg,00267940128fb_sunablfqiwfqomjarht.jpg,00681941121fa.jpg,sunadqmjrhfjyuzyvdd.jpg,00267940128fb.jpg,sunablfqiwfqomjarht.jpg,,,<,Place,,,,,1,,,
210,test1,Memory,4,,,,,,,sunabjzyxcjnmztdonj.jpg,,,,,,,,,,,
211,test1,Memory,4,,,,,,,sunabwmcbaxwioksdgw.jpg,,,,,,,,,,,
212,test1,Memory,4,,,,,,,00971960627fa.jpg,,,,,,,,,,,
213,test1,Memory,4,,,,,,,sunaajuzribjrizdshh.jpg,,,,,,,,,,,
214,test1,Memory,4,,,,,,,sunaakgekhjklxmvulj.jpg,,,,,,,,,,,
215,test1,Memory,4,,,,,,,sunaiycurtqsfkvcaso.jpg,,,,,,,,,,,
216,test1,Memory,4,,,,,,,sunaafvitpexrpvumsa.jpg,,,,,,,,,,,
217,test1,Memory,4,,,,,,,00314940422fa.jpg,,,,,,,,,,,
218,test1,Memory,4,,,,,,,00836940307fa.jpg,,,,,,,,,,,
219,test1,Memory,4,,,,,,,00966960627fa.jpg,,,,,,,,,,,
220,test1,Memory,4,,,,,,,00719960620fa.jpg,,,,,,,,,,,
221,test1,Memory,4,,,,,,,00936960627fa.jpg,,,,,,,,,,,
222,test1,Memory,4,,,,,,,sunarfdklgdnjgeqfjg.jpg,,,,,,,,,,,
223,test1,Memory,4,,,,,,,sunablfqiwfqomjarht.jpg,,,,,,,,,,,
224,test1,Memory,4,,,,,,,00851940307fa.jpg,,,,,,,,,,,
225,test1,Memory,4,,,,,,,sunadochqcucscehsgk.jpg,,,,,,,,,,,
226,test1,Memory,4,,,,,,,00745941205fa.jpg,,,,,,,,,,,
227,test1,Memory,4,,,,,,,sunasnqkkyhilqkxiqm.jpg,,,,,,,,,,,
228,test1,Memory,4,,,,,,,sunasmmcxdddtmtazwx.jpg,,,,,,,,,,,
229,test1,Memory,4,,,,,,,00939960627fa.jpg,,,,,,,,,,,
230,test1,Memory,4,,,,,,,00984960627fa.jpg,,,,,,,,,,,
231,test1,Memory,4,,,,,,,sunaatpkocdkocwxpkb.jpg,,,,,,,,,,,
232,test1,Memory,4,,,,,,,01000960627fa.jpg,,,,,,,,,,,
233,test1,Memory,4,,,,,,,00111931230fb.jpg,,,,,,,,,,,
234,test1,Memory,4,,,,,,,sunagoufulkpsxrmklt.jpg,,,,,,,,,,,
235,test1,Memory,4,,,,,,,00288940422fa.jpg,,,,,,,,,,,
236,test1,Memory,4,,,,,,,00676941121fa.jpg,,,,,,,,,,,
237,test1,Memory,4,,,,,,,sunbfzchmomnvzhbxdg.jpg,,,,,,,,,,,
238,test1,Memory,4,,,,,,,sunabllobxadqcyttej.jpg,,,,,,,,,,,
239,test1,Memory,4,,,,,,,00543940519fa.jpg,,,,,,,,,,,
240,test1,Memory,4,,,,,,,sunacjkmnpawfzbyvae.jpg,,,,,,,,,,,
241,test1,Memory,4,,,,,,,00827940307fa.jpg,,,,,,,,,,,
242,test1,Memory,4,,,,,,,00963960627fa.jpg,,,,,,,,,,,
243,test1,Memory,4,,,,,,,00126931230fb.jpg,,,,,,,,,,,
244,test1,Memory,4,,,,,,,01003960627fb.jpg,,,,,,,,,,,
245,test1,Memory,4,,,,,,,sunacycdoztxoluxjyk.jpg,,,,,,,,,,,
246,test1,Memory,4,,,,,,,00080931230fb.jpg,,,,,,,,,,,
247,test1,Memory,4,,,,,,,sunaajtnvzzpsjdzres.jpg,,,,,,,,,,,
248,test1,Memory,4,,,,,,,00727941205fa.jpg,,,,,,,,,,,
249,test1,Memory,4,,,,,,,00780960530fa.jpg,,,,,,,,,,,
250,test1,Presentation,5,00815941205fa_sunahiphsekjihkafsl.jpg,00316940422fa_sunabxmguapjekttvwm.jpg,00815941205fa.jpg,sunahiphsekjihkafsl.jpg,00316940422fa.jpg,sunabxmguapjekttvwm.jpg,,,<,Face,,,,,1,,,
251,test1,Presentation,5,00960960627fa_sunawksfbacycuhbrsc.jpg,00265940128fb_sunabkmdplkdbvxriff.jpg,00960960627fa.jpg,sunawksfbacycuhbrsc.jpg,00265940128fb.jpg,sunabkmdplkdbvxriff.jpg,,,<,Face,,,,,1,,,
252,test1,Presentation,5,00929960627fa_sunaprnrbmgkomdbchr.jpg,01000960627fa_sunbvzmgrdvaakxusbu.jpg,00929960627fa.jpg,sunaprnrbmgkomdbchr.jpg,01000960627fa.jpg,sunbvzmgrdvaakxusbu.jpg,,,<,Face,,,,,1,,,
253,test1,Presentation,5,00270940422fb_sunabllobxadqcyttej.jpg,00787960620fa_sunagoufulkpsxrmklt.jpg,00270940422fb.jpg,sunabllobxadqcyttej.jpg,00787960620fa.jpg,sunagoufulkpsxrmklt.jpg,,,<,Face,,,,,1,,,
254,test1,Presentation,5,00221940128fa_sunabcfpwlpolnutyju.jpg,00080931230fb_sunaafjszryxyavjzln.jpg,00221940128fa.jpg,sunabcfpwlpolnutyju.jpg,00080931230fb.jpg,sunaafjszryxyavjzln.jpg,,,<,Face,,,,,1,,,
255,test1,Presentation,5,00648941031fa_sunadfndyrtqqiasoig.jpg,00581940928fa_sunacvzhvcksnwqcqbw.jpg,00648941031fa.jpg,sunadfndyrtqqiasoig.jpg,00581940928fa.jpg,sunacvzhvcksnwqcqbw.jpg,,,<,Face,,,,,1,,,
256,test1,Presentation,5,00125931230fa_sunaalltyvjhbzhkmvg.jpg,00209940128fb_sunabaergayifsgacxt.jpg,00125931230fa.jpg,sunaalltyvjhbzhkmvg.jpg,00209940128fb.jpg,sunabaergayifsgacxt.jpg,,,<,Face,,,,,1,,,
257,test1,Presentation,5,00985960627fa_sunbgklxeqjhdbyfhhy.jpg,00791941205fa_sunagrmyoovzukhxmlo.jpg,00985960627fa.jpg,sunbgklxeqjhdbyfhhy.jpg,00791941205fa.jpg,sunagrmyoovzukhxmlo.jpg,,,<,Face,,,,,1,,,
258,test1,Presentation,5,00800941205fb_sunagvjurcwdbixvnyi.jpg,00922960627fa_sunapqkyghktgtosuuk.jpg,00800941205fb.jpg,sunagvjurcwdbixvnyi.jpg,00922960627fa.jpg,sunapqkyghktgtosuuk.jpg,,,<,Face,,,,,0,,,
259,test1,Presentation,5,00953960627fa_sunatstrpjxhvtbaczf.jpg,00562941031fa_sunacjnahdmqfnjfwqx.jpg,00953960627fa.jpg,sunatstrpjxhvtbaczf.jpg,00562941031fa.jpg,sunacjnahdmqfnjfwqx.jpg,,,<,Face,,,,,1,,,
260,test1,Memory,5,,,,,,,00751960620fa.jpg,,,,,,,,,,,
261,test1,Memory,5,,,,,,,sunaaheqzstzxuadglu.jpg,,,,,,,,,,,
262,test1,Memory,5,,,,,,,00838940307fa.jpg,,,,,,,,,,,
263,test1,Memory,5,,,,,,,00073931230fa.jpg,,,,,,,,,,,
264,test1,Memory,5,,,,,,,sunaahwnmtqsrhocysw.jpg,,,,,,,,,,,
265,test1,Memory,5,,,,,,,00185940422fb.jpg,,,,,,,,,,,
266,test1,Memory,5,,,,,,,sunagtumacdlmciqamz.jpg,,,,,,,,,,,
267,test1,Memory,5,,,,,,,00990960627fa.jpg,,,,,,,,,,,
268,test1,Memory,5,,,,,,,00270940422fb.jpg,,,,,,,,,,,
269,test1,Memory,5,,,,,,,00777941205fa.jpg,,,,,,,,,,,
270,test1,Memory,5,,,,,,,sunaawqdbpihmlbwyyn.jpg,,,,,,,,,,,
271,test1,Memory,5,,,,,,,00876960620fa.jpg,,,,,,,,,,,
272,test1,Memory,5,,,,,,,00909960530.jpg,,,,,,,,,,,
273,test1,Memory,5,,,,,,,sunagvprlbprarvgdvj.jpg,,,,,,,,,,,
274,test1,Memory,5,,,,,,,sunbwdrdvsweerwsdrj.jpg,,,,,,,,,,,
275,test1,Memory,5,,,,,,,00943960627fa.jpg,,,,,,,,,,,
276,test1,Memory,5,,,,,,,sunadpnqovzckyikrjo.jpg,,,,,,,,,,,
277,test1,Memory,5,,,,,,,sunaccdtpgenvcbcbcf.jpg,,,,,,,,,,,
278,test1,Memory,5,,,,,,,sunamlotskmmsjeogby.jpg,,,,,,,,,,,
279,test1,Memory,5,,,,,,,00772941201fa.jpg,,,,,,,,,,,
280,test1,Memory,5,,,,,,,sunapqkpqdfvxlbqwyo.jpg,,,,,,,,,,,
281,test1,Memory,5,,,,,,,00720960620fa.jpg,,,,,,,,,,,
282,test1,Memory,5,,,,,,,00147931230fb.jpg,,,,,,,,,,,
283,test1,Memory,5,,,,,,,sunabqowuarvqqcnipn.jpg,,,,,,,,,,,
284,test1,Memory,5,,,,,,,00109931230fa.jpg,,,,,,,,,,,
285,test1,Memory,5,,,,,,,00123931230fb.jpg,,,,,,,,,,,
286,test1,Memory,5,,,,,,,00775941205fa.jpg,,,,,,,,,,,
287,test1,Memory,5,,,,,,,sunaapfaivxqoynnwwp.jpg,,,,,,,,,,,
288,test1,Memory,5,,,,,,,sunaangbuylfvckqqoo.jpg,,,,,,,,,,,
289,test1,Memory,5,,,,,,,sunaeouogqolxvggaoq.jpg,,,,,,,,,,,
290,test1,Memory,5,,,,,,,sunafvsxtzaizojicxx.jpg,,,,,,,,,,,
291,test1,Memory,5,,,,,,,00093931230fa.jpg,,,,,,,,,,,
292,test1,Memory,5,,,,,,,00063931230fa.jpg,,,,,,,,,,,
293,test1,Memory,5,,,,,,,00090931230fa.jpg,,,,,,,,,,,
294,test1,Memory,5,,,,,,,sunavxokzybtomhbmvm.jpg,,,,,,,,,,,
295,test1,Memory,5,,,,,,,sunajtrfunvzdfticna.jpg,,,,,,,,,,,
296,test1,Memory,5,,,,,,,sunaobtizabegtwfwul.jpg,,,,,,,,,,,
297,test1,Memory,5,,,,,,,00138931230fa.jpg,,,,,,,,,,,
298,test1,Memory,5,,,,,,,00750941201fa.jpg,,,,,,,,,,,
299,test1,Memory,5,,,,,,,00562941031fa.jpg,,,,,,,,,,,
300,test1,Presentation,6,00296940422fa_sunabrwnslxalcohfre.jpg,00109931230fa_sunaajuzribjrizdshh.jpg,00296940422fa.jpg,sunabrwnslxalcohfre.jpg,00109931230fa.jpg,sunaajuzribjrizdshh.jpg,,,>,Place,,,,,1,,,
301,test1,Presentation,6,00987960627fa_sunbloeoiozwjjsiamp.jpg,00935960627fa_sunaqbmgkgqucajzrkp.jpg,00987960627fa.jpg,sunbloeoiozwjjsiamp.jpg,00935960627fa.jpg,sunaqbmgkgqucajzrkp.jpg,,,>,Place,,,,,1,,,
302,test1,Presentation,6,00647941031fa_sunadflbrkckmepztql.jpg,00919960620fa_sunapmfmzadmosuogaz.jpg,00647941031fa.jpg,sunadflbrkckmepztql.jpg,00919960620fa.jpg,sunapmfmzadmosuogaz.jpg,,,>,Place,,,,,1,,,
303,test1,Presentation,6,00720960620fa_sunaecpkgfewqqreqwe.jpg,00986960627fa_sunbgzjryivyczuvkvm.jpg,00720960620fa.jpg,sunaecpkgfewqqreqwe.jpg,00986960627fa.jpg,sunbgzjryivyczuvkvm.jpg,,,>,Place,,,,,0,,,
304,test1,Presentation,6,00834940307fa_sunaibnpvhkdpdnzcnz.jpg,00095931230fa_sunaahzooisqkwlxwoz.jpg,00834940307fa.jpg,sunaibnpvhkdpdnzcnz.jpg,00095931230fa.jpg,sunaahzooisqkwlxwoz.jpg,,,>,Place,,,,,1,,,
305,test1,Presentation,6,00871940307_sunajrujcsdxmfbssmc.jpg,00796941205fa_sunaguchqqnrtodtezq.jpg,00871940307.jpg,sunajrujcsdxmfbssmc.jpg,00796941205fa.jpg,sunaguchqqnrtodtezq.jpg,,,>,Place,,,,,1,,,
306,test1,Presentation,6,00901960530fa_sunammbnoambmhdxdwd.jpg,00754941201fa_sunaffgsyyvoqdlkmnk.jpg,00901960530fa.jpg,sunammbnoambmhdxdwd.jpg,00754941201fa.jpg,sunaffgsyyvoqdlkmnk.jpg,,,>,Place,,,,,0,,,
307,test1,Presentation,6,00630941031fa_sunadakkdovnuzlycvp.jpg,00969960627fa_sunbaoizrfijvhpnnjn.jpg,00630941031fa.jpg,sunadakkdovnuzlycvp.jpg,00969960627fa.jpg,sunbaoizrfijvhpnnjn.jpg,,,>,Place,,,,,1,,,
308,test1,Presentation,6,00498960627fa_sunabzjxlmkwnwzimua.jpg,00894960620fa_sunalqmfgeadpqsyzpd.jpg,00498960627fa.jpg,sunabzjxlmkwnwzimua.jpg,00894960620fa.jpg,sunalqmfgeadpqsyzpd.jpg,,,>,Place,,,,,1,,,
309,test1,Presentation,6,00779941205fa_sunagdzlvkqtpnfxfcg.jpg,00634940928fa_sunadcphrizvfpljiqt.jpg,00779941205fa.jpg,sunagdzlvkqtpnfxfcg.jpg,00634940928fa.jpg,sunadcphrizvfpljiqt.jpg,,,>,Place,,,,,1,,,
310,test1,Memory,6,,,,,,,00803941205fa.jpg,,,,,,,,,,,
311,test1,Memory,6,,,,,,,00957960627fa.jpg,,,,,,,,,,,
312,test1,Memory,6,,,,,,,sunagtqhhwxjeuxdebe.jpg,,,,,,,,,,,
313,test1,Memory,6,,,,,,,00942960627fa.jpg,,,,,,,,,,,
314,test1,Memory,6,,,,,,,00862940307fa.jpg,,,,,,,,,,,
315,test1,Memory,6,,,,,,,sunaqgjuuwvdcyiccjt.jpg,,,,,,,,,,,
316,test1,Memory,6,,,,,,,sunagwzdbtlixdhgolm.jpg,,,,,,,,,,,
317,test1,Memory,6,,,,,,,sunbpvgllfdejxcpjqp.jpg,,,,,,,,,,,
318,test1,Memory,6,,,,,,,sunaahzooisqkwlxwoz.jpg,,,,,,,,,,,
319,test1,Memory,6,,,,,,,00092931230fa.jpg,,,,,,,,,,,
320,test1,Memory,6,,,,,,,00581940928fa.jpg,,,,,,,,,,,
321,test1,Memory,6,,,,,,,00825940307fa.jpg,,,,,,,,,,,
322,test1,Memory,6,,,,,,,00895960530fa.jpg,,,,,,,,,,,
323,test1,Memory,6,,,,,,,sunagfvluwixdsozaql.jpg,,,,,,,,,,,
324,test1,Memory,6,,,,,,,sunafvwfsmqkjrutjta.jpg,,,,,,,,,,,
325,test1,Memory,6,,,,,,,sunahpblecxtmuzkmxb.jpg,,,,,,,,,,,
326,test1,Memory,6,,,,,,,sunadcphrizvfpljiqt.jpg,,,,,,,,,,,
327,test1,Memory,6,,,,,,,sunbaejotfklekvpxcz.jpg,,,,,,,,,,,
328,test1,Memory,6,,,,,,,00263940128fb.jpg,,,,,,,,,,,
329,test1,Memory,6,,,,,,,00983960627fa.jpg,,,,,,,,,,,
330,test1,Memory,6,,,,,,,sunawotxrevnqvamsfp.jpg,,,,,,,,,,,
331,test1,Memory,6,,,,,,,00905960530fa.jpg,,,,,,,,,,,
332,test1,Memory,6,,,,,,,sunaaelyvurpntclgau.jpg,,,,,,,,,,,
333,test1,Memory,6,,,,,,,sunapileznnbbmrwoei.jpg,,,,,,,,,,,
334,test1,Memory,6,,,,,,,00835940307fa.jpg,,,,,,,,,,,
335,test1,Memory,6,,,,,,,00877960530fa.jpg,,,,,,,,,,,
336,test1,Memory,6,,,,,,,00609940928fa.jpg,,,,,,,,,,,
337,test1,Memory,6,,,,,,,sunaagcpoejbuzyvddd.jpg,,,,,,,,,,,
338,test1,Memory,6,,,,,,,00801941205fa.jpg,,,,,,,,,,,
339,test1,Memory,6,,,,,,,sunaixpqndlwhwjtjek.jpg,,,,,,,,,,,
340,test1,Memory,6,,,,,,,00818940307fa.jpg,,,,,,,,,,,
341,test1,Memory,6,,,,,,,sunacfdkbsrughwqwtt.jpg,,,,,,,,,,,
342,test1,Memory,6,,,,,,,00935960627fa.jpg,,,,,,,,,,,
343,test1,Memory,6,,,,,,,00564941031fa.jpg,,,,,,,,,,,
344,test1,Memory,6,,,,,,,sunagcinxkccdtrjmlv.jpg,,,,,,,,,,,
345,test1,Memory,6,,,,,,,00871940307.jpg,,,,,,,,,,,
346,test1,Memory,6,,,,,,,00112931230fa.jpg,,,,,,,,,,,
347,test1,Memory,6,,,,,,,sunaazzyhbvqjpmazjq.jpg,,,,,,,,,,,
348,test1,Memory,6,,,,,,,sunahbvlpavurqoxdeq.jpg,,,,,,,,,,,
349,test1,Memory,6,,,,,,,sunayaepykrqvenaqqy.jpg,,,,,,,,,,,
350,test1,Presentation,7,01010960627fa_suncnkvbhypnivcohyx.jpg,00306940422fa_sunabueyoajufbkraki.jpg,01010960627fa.jpg,suncnkvbhypnivcohyx.jpg,00306940422fa.jpg,sunabueyoajufbkraki.jpg,,,<,Place,,,,,1,,,
351,test1,Presentation,7,00132931230fb_sunaanjcbzdvtvblsdy.jpg,00909960530_sunaobtizabegtwfwul.jpg,00132931230fb.jpg,sunaanjcbzdvtvblsdy.jpg,00909960530.jpg,sunaobtizabegtwfwul.jpg,,,<,Place,,,,,1,,,
352,test1,Presentation,7,00773941201fa_sunafvcflzhlqloapyo.jpg,00633940928fa_sunadbhmrgrrpyzglxs.jpg,00773941201fa.jpg,sunafvcflzhlqloapyo.jpg,00633940928fa.jpg,sunadbhmrgrrpyzglxs.jpg,,,<,Place,,,,,1,,,
353,test1,Presentation,7,00670941121fa_sunadochqcucscehsgk.jpg,00147931230fb_sunaatpkocdkocwxpkb.jpg,00670941121fa.jpg,sunadochqcucscehsgk.jpg,00147931230fb.jpg,sunaatpkocdkocwxpkb.jpg,,,<,Place,,,,,1,,,
354,test1,Presentation,7,00898960530fa_sunamkmeblgteyggink.jpg,00965960627fa_sunaydywdmvlfddbxbk.jpg,00898960530fa.jpg,sunamkmeblgteyggink.jpg,00965960627fa.jpg,sunaydywdmvlfddbxbk.jpg,,,<,Place,,,,,1,,,
355,test1,Presentation,7,00557940519fa_sunachtuarilwyqnvjx.jpg,00065931230fb_sunaaemixhfquhnxxlm.jpg,00557940519fa.jpg,sunachtuarilwyqnvjx.jpg,00065931230fb.jpg,sunaaemixhfquhnxxlm.jpg,,,<,Place,,,,,1,,,
356,test1,Presentation,7,00860940307fa_sunaizeyhvjzknwjudw.jpg,00926960627Fa_sunapqwoeotxshkukbh.jpg,00860940307fa.jpg,sunaizeyhvjzknwjudw.jpg,00926960627Fa.jpg,sunapqwoeotxshkukbh.jpg,,,<,Place,,,,,0,,,
357,test1,Presentation,7,00081941031fa_sunaaftlyfudyzuhqzf.jpg,00096931230fa_sunaaiqiqcggrskoqgy.jpg,00081941031fa.jpg,sunaaftlyfudyzuhqzf.jpg,00096931230fa.jpg,sunaaiqiqcggrskoqgy.jpg,,,<,Place,,,,,1,,,
358,test1,Presentation,7,00574940928fa_sunacvbrcejzwmcgnoq.jpg,00749941201fa_sunaeuvjbmdpknaqqaj.jpg,00574940928fa.jpg,sunacvbrcejzwmcgnoq.jpg,00749941201fa.jpg,sunaeuvjbmdpknaqqaj.jpg,,,<,Place,,,,,1,,,
359,test1,Presentation,7,00836940307fa_sunainqelldeebvxtcz.jpg,00804960530fa_sunagwswhkvnsmuszlz.jpg,00836940307fa.jpg,sunainqelldeebvxtcz.jpg,00804960530fa.jpg,sunagwswhkvnsmuszlz.jpg,,,<,Place,,,,,1,,,
360,test1,Memory,7,,,,,,,sunakgbnzxmfohgehnu.jpg,,,,,,,,,,,
361,test1,Memory,7,,,,,,,00116931230fa.jpg,,,,,,,,,,,
362,test1,Memory,7,,,,,,,00082931230fa.jpg,,,,,,,,,,,
363,test1,Memory,7,,,,,,,00878960530fa.jpg,,,,,,,,,,,
364,test1,Memory,7,,,,,,,00115931230fa.jpg,,,,,,,,,,,
365,test1,Memory,7,,,,,,,00145931230fb.jpg,,,,,,,,,,,
366,test1,Memory,7,,,,,,,00062931230fb.jpg,,,,,,,,,,,
367,test1,Memory,7,,,,,,,sunaahedjlmtqekgyvj.jpg,,,,,,,,,,,
368,test1,Memory,7,,,,,,,sunbwtlihsuptkrckid.jpg,,,,,,,,,,,
369,test1,Memory,7,,,,,,,sunaecpkgfewqqreqwe.jpg,,,,,,,,,,,
370,test1,Memory,7,,,,,,,sunaaemixhfquhnxxlm.jpg,,,,,,,,,,,
371,test1,Memory,7,,,,,,,00901960530fa.jpg,,,,,,,,,,,
372,test1,Memory,7,,,,,,,00208940128fa.jpg,,,,,,,,,,,
373,test1,Memory,7,,,,,,,sunaeuzwggvibufclwf.jpg,,,,,,,,,,,
374,test1,Memory,7,,,,,,,00782941205fa.jpg,,,,,,,,,,,
375,test1,Memory,7,,,,,,,sunbfyvfqiimvdaxlqn.jpg,,,,,,,,,,,
376,test1,Memory,7,,,,,,,00266940128fb.jpg,,,,,,,,,,,
377,test1,Memory,7,,,,,,,00885960530fa.jpg,,,,,,,,,,,
378,test1,Memory,7,,,,,,,sunavhxgmgrqsaptynb.jpg,,,,,,,,,,,
379,test1,Memory,7,,,,,,,sunacxtcahkymosigud.jpg,,,,,,,,,,,
380,test1,Memory,7,,,,,,,sunaijsqpvodplbwxkf.jpg,,,,,,,,,,,
381,test1,Memory,7,,,,,,,sunarceibpcyacbmfga.jpg,,,,,,,,,,,
382,test1,Memory,7,,,,,,,00792941205fa.jpg,,,,,,,,,,,
383,test1,Memory,7,,,,,,,00142931230fb.jpg,,,,,,,,,,,
384,test1,Memory,7,,,,,,,sunanaacmmosxrfwmvl.jpg,,,,,,,,,,,
385,test1,Memory,7,,,,,,,00947960627fa.jpg,,,,,,,,,,,
386,test1,Memory,7,,,,,,,sunagsiwrmuixqgdimb.jpg,,,,,,,,,,,
387,test1,Memory,7,,,,,,,00874940307fa.jpg,,,,,,,,,,,
388,test1,Memory,7,,,,,,,00163931230fb.jpg,,,,,,,,,,,
389,test1,Memory,7,,,,,,,sunakwlvxjpddialozd.jpg,,,,,,,,,,,
390,test1,Memory,7,,,,,,,sunamkmeblgteyggink.jpg,,,,,,,,,,,
391,test1,Memory,7,,,,,,,00959960627fa.jpg,,,,,,,,,,,
392,test1,Memory,7,,,,,,,00132931230fb.jpg,,,,,,,,,,,
393,test1,Memory,7,,,,,,,sunabjuovqvyfuzvqwt.jpg,,,,,,,,,,,
394,test1,Memory,7,,,,,,,00982960627fa.jpg,,,,,,,,,,,
395,test1,Memory,7,,,,,,,00787941205fa.jpg,,,,,,,,,,,
396,test1,Memory,7,,,,,,,00598941031fa.jpg,,,,,,,,,,,
397,test1,Memory,7,,,,,,,sunaafgqutfaishsxyu.jpg,,,,,,,,,,,
398,test1,Memory,7,,,,,,,sunamczizlzavhzhpay.jpg,,,,,,,,,,,
399,test1,Memory,7,,,,,,,sunaygrtwrwfezqjizr.jpg,,,,,,,,,,,
