,Subject,Trial Type,Run,Cued Composite,Uncued Composite,Cued Face,Cued Place,Uncued Face,Uncued Place,Memory Image,Category,Cued Side,Cued Category,Attention Reaction Time (s),Familiarity Reaction Time (s),Familiarity Rating,Attention Level,Cue Validity,Post Invalid Cue,Pre Invalid Cue,Attention Button,Rating History,Stimulus Onset,Stimulus End,Attention Probe
310,17,Memory,6,,,,,,,sunapmfmzadmosuogaz.jpg,,,,,0.993,3.0,,,,,,,1554144231.929215,1554144234.091127,
311,17,Memory,6,,,,,,,sunadakkdovnuzlycvp.jpg,,,,,0.756,2.0,,,,,,,1554144235.397183,1554144237.409769,
312,17,Memory,6,,,,,,,sunaagcpoejbuzyvddd.jpg,,,,,0.95,3.0,,,,,,,1554144238.697683,1554144240.71353,
313,17,Memory,6,,,,,,,00280940422fb.jpg,,,,,0.998,2.0,,,,,,,1554144242.015935,1554144244.21955,
314,17,Memory,6,,,,,,,00760960620fa.jpg,,,,,0.749,2.0,,,,,,,1554144245.50107,1554144247.653385,
315,17,Memory,6,,,,,,,00630941031fa.jpg,,,,,0.976,2.0,,,,,,,1554144248.934823,1554144251.034081,
316,17,Memory,6,,,,,,,00911960530fa.jpg,,,,,1.276,3.0,,,,,,,1554144252.335454,1554144254.631686,
317,17,Memory,6,,,,,,,00864940307fa.jpg,,,,,1.325,3.0,,,,,,,1554144255.919814,1554144258.099831,
318,17,Memory,6,,,,,,,00675941121fa.jpg,,,,,0.772,2.0,,,,,,,1554144259.371694,1554144261.505574,
319,17,Memory,6,,,,,,,00144931230fb.jpg,,,,,1.357,2.0,,,,,,,1554144262.789834,1554144264.869239,
320,17,Memory,6,,,,,,,sunaathajvxrgptwhoj.jpg,,,,,0.92,4.0,,,,,,,1554144266.140955,1554144268.269225,
321,17,Memory,6,,,,,,,sunavspxmxubqaeidjt.jpg,,,,,1.072,2.0,,,,,,,1554144269.557391,1554144271.728582,
322,17,Memory,6,,,,,,,00839940307fa.jpg,,,,,0.0,,,,,,,,1554144273.025722,1554144275.609885,
323,17,Memory,6,,,,,,,00931960627fa.jpg,,,,,1.1,2.0,,,,,,,1554144276.910232,1554144278.939391,
324,17,Memory,6,,,,,,,00089931230fa.jpg,,,,,1.103,3.0,,,,,,,1554144280.212798,1554144282.174759,
325,17,Memory,6,,,,,,,sunaffstbkappprzxnv.jpg,,,,,1.283,2.0,,,,,,,1554144283.446155,1554144285.411901,
326,17,Memory,6,,,,,,,sunafkmnlytenlsywia.jpg,,,,,0.926,3.0,,,,,,,1554144286.663519,1554144288.743097,
327,17,Memory,6,,,,,,,00194940128fb.jpg,,,,,1.175,4.0,,,,,,,1554144290.014724,1554144292.201804,
328,17,Memory,6,,,,,,,00725941201fa.jpg,,,,,1.46,2.0,,,,,,,1554144293.482915,1554144295.628829,
329,17,Memory,6,,,,,,,sunaizeyhvjzknwjudw.jpg,,,,,1.104,2.0,,,,,,,1554144296.883913,1554144298.847106,
330,17,Memory,6,,,,,,,00860940307fa.jpg,,,,,0.849,2.0,,,,,,,1554144300.097702,1554144302.064466,
331,17,Memory,6,,,,,,,00768941205fa.jpg,,,,,1.694,2.0,,,,,,,1554144303.336169,1554144305.648416,
332,17,Memory,6,,,,,,,sunaqsolmfydodnakub.jpg,,,,,0.793,3.0,,,,,,,1554144306.937197,1554144309.032212,
333,17,Memory,6,,,,,,,sunabohxbskznglnrhv.jpg,,,,,1.405,1.0,,,,,,,1554144310.421825,1554144312.617397,
334,17,Memory,6,,,,,,,00763941205fa.jpg,,,,,0.942,2.0,,,,,,,1554144313.888212,1554144316.019277,
335,17,Memory,6,,,,,,,sunaipyohrqlwngaqif.jpg,,,,,1.058,3.0,,,,,,,1554144317.290216,1554144319.307026,
336,17,Memory,6,,,,,,,sunafhmnhsdurlvddpw.jpg,,,,,1.039,4.0,,,,,,,1554144320.591658,1554144322.744248,
337,17,Memory,6,,,,,,,sunaptrqvaooxfvktvw.jpg,,,,,1.167,2.0,,,,,,,1554144324.025655,1554144326.104762,
338,17,Memory,6,,,,,,,00958960627fa.jpg,,,,,1.157,3.0,,,,,,,1554144327.375933,1554144329.561565,
339,17,Memory,6,,,,,,,sunaletopenvvozhpxc.jpg,,,,,1.609,3.0,,,,,,,1554144330.844827,1554144333.327763,
340,17,Memory,6,,,,,,,sunajawzbrlrwafowen.jpg,,,,,1.528,1.0,,,,,,,1554144334.596128,1554144336.808431,
341,17,Memory,6,,,,,,,sunaooaqzputrowwbsw.jpg,,,,,1.357,3.0,,,,,,,1554144338.079648,1554144340.29391,
342,17,Memory,6,,,,,,,00919960620fa.jpg,,,,,1.099,2.0,,,,,,,1554144341.543148,1554144343.626682,
343,17,Memory,6,,,,,,,sunaefgzwiramypjvtd.jpg,,,,,1.407,2.0,,,,,,,1554144344.899771,1554144347.183906,
344,17,Memory,6,,,,,,,00889960530fa.jpg,,,,,1.275,3.0,,,,,,,1554144348.466749,1554144350.715885,
345,17,Memory,6,,,,,,,00937960627fa.jpg,,,,,1.391,2.0,,,,,,,1554144351.984127,1554144354.186532,
346,17,Memory,6,,,,,,,00063931230fa.jpg,,,,,0.0,,,,,,,,1554144355.50303,1554144358.232045,
347,17,Memory,6,,,,,,,sunaayehfdqcyxggsej.jpg,,,,,1.027,3.0,,,,,,,1554144359.502926,1554144361.835334,
348,17,Memory,6,,,,,,,sunaaelyvurpntclgau.jpg,,,,,1.154,2.0,,,,,,,1554144363.10484,1554144365.118847,
349,17,Memory,6,,,,,,,sunadoxcchtmsxewsau.jpg,,,,,0.966,3.0,,,,,,,1554144366.38904,1554144368.618969,
