,Subject,Trial Type,Run,Cued Composite,Uncued Composite,Cued Face,Cued Place,Uncued Face,Uncued Place,Memory Image,Category,Cued Side,Cued Category,Attention Reaction Time (s),Familiarity Reaction Time (s),Familiarity Rating,Attention Level,Cue Validity,Post Invalid Cue,Pre Invalid Cue,Attention Button,Rating History,Stimulus Onset,Stimulus End,Attention Probe
360,327,Memory,7,,,,,,,sunaakxjfbrrequcjmx.jpg,,,,,1.636,3.0,,,,,,,1553721274.395542,1553721276.446486,
361,327,Memory,7,,,,,,,00122931230fa.jpg,,,,,1.486,3.0,,,,,,,1553721277.712825,1553721279.696812,
362,327,Memory,7,,,,,,,00267940128fb.jpg,,,,,1.104,2.0,,,,,,,1553721280.963894,1553721282.949012,
363,327,Memory,7,,,,,,,00314940422fa.jpg,,,,,0.869,2.0,,,,,,,1553721284.19819,1553721286.1838,
364,327,Memory,7,,,,,,,sunaatpkocdkocwxpkb.jpg,,,,,1.186,3.0,,,,,,,1553721287.433237,1553721289.417323,
365,327,Memory,7,,,,,,,sunalqmfgeadpqsyzpd.jpg,,,,,1.437,1.0,,,,,,,1553721290.751221,1553721292.735317,
366,327,Memory,7,,,,,,,00479940519fa.jpg,,,,,1.687,1.0,,,,,,,1553721294.052478,1553721296.03661,
367,327,Memory,7,,,,,,,sunacsaovnjezqwbykf.jpg,,,,,0.753,1.0,,,,,,,1553721297.303682,1553721299.28664,
368,327,Memory,7,,,,,,,00082931230fa.jpg,,,,,0.87,1.0,,,,,,,1553721300.537671,1553721302.521687,
369,327,Memory,7,,,,,,,00589940928fa.jpg,,,,,1.07,3.0,,,,,,,1553721303.772143,1553721305.755325,
370,327,Memory,7,,,,,,,00648941031fa.jpg,,,,,1.136,1.0,,,,,,,1553721307.006469,1553721308.990216,
371,327,Memory,7,,,,,,,sunabrjdpmoedcdjbpo.jpg,,,,,1.821,4.0,,,,,,,1553721310.24046,1553721312.224434,
372,327,Memory,7,,,,,,,sunaafynehyrzpsoaml.jpg,,,,,1.753,2.0,,,,,,,1553721313.491377,1553721315.475613,
373,327,Memory,7,,,,,,,sunabbwggenhfbftyvi.jpg,,,,,0.0,,,,,,,,1553721316.726731,1553721318.70976,
374,327,Memory,7,,,,,,,sunacwggadqsfpovdjv.jpg,,,,,1.07,2.0,,,,,,,1553721319.960227,1553721321.944931,
375,327,Memory,7,,,,,,,00292940422fb.jpg,,,,,1.136,3.0,,,,,,,1553721323.194858,1553721325.178789,
376,327,Memory,7,,,,,,,sunaizgnnplsvajzhkc.jpg,,,,,1.503,3.0,,,,,,,1553721326.446222,1553721328.430336,
377,327,Memory,7,,,,,,,sunadfndyrtqqiasoig.jpg,,,,,0.87,1.0,,,,,,,1553721329.679494,1553721331.664512,
378,327,Memory,7,,,,,,,sunaauglwmctnkxyird.jpg,,,,,1.92,4.0,,,,,,,1553721332.914432,1553721334.897774,
379,327,Memory,7,,,,,,,00719941201fa.jpg,,,,,1.636,1.0,,,,,,,1553721336.165779,1553721338.149834,
380,327,Memory,7,,,,,,,sunabxsbfwjccqxxzxq.jpg,,,,,1.503,3.0,,,,,,,1553721339.399981,1553721341.384708,
381,327,Memory,7,,,,,,,00812941205fa.jpg,,,,,1.704,2.0,,,,,,,1553721342.651072,1553721344.63507,
382,327,Memory,7,,,,,,,00218940128fa.jpg,,,,,0.904,1.0,,,,,,,1553721345.885148,1553721347.869452,
383,327,Memory,7,,,,,,,00894960620fa.jpg,,,,,1.87,1.0,,,,,,,1553721349.120196,1553721351.103639,
384,327,Memory,7,,,,,,,sunadvithllcgmfxsrn.jpg,,,,,1.137,3.0,,,,,,,1553721352.371466,1553721354.354832,
385,327,Memory,7,,,,,,,00086931230fa.jpg,,,,,0.82,1.0,,,,,,,1553721355.605738,1553721357.589004,
386,327,Memory,7,,,,,,,sunabwmcbaxwioksdgw.jpg,,,,,1.903,2.0,,,,,,,1553721358.839018,1553721360.822855,
387,327,Memory,7,,,,,,,sunahgtbwgsmtqeodwh.jpg,,,,,1.153,3.0,,,,,,,1553721362.074816,1553721364.05732,
388,327,Memory,7,,,,,,,00982960627fa.jpg,,,,,1.155,1.0,,,,,,,1553721365.307996,1553721367.292365,
389,327,Memory,7,,,,,,,00149931230fa.jpg,,,,,0.652,1.0,,,,,,,1553721368.543163,1553721370.52666,
390,327,Memory,7,,,,,,,00778941205fa.jpg,,,,,0.653,1.0,,,,,,,1553721371.778403,1553721373.7606,
391,327,Memory,7,,,,,,,00147931230fb.jpg,,,,,0.87,1.0,,,,,,,1553721375.011557,1553721376.996759,
392,327,Memory,7,,,,,,,sunaffstbkappprzxnv.jpg,,,,,0.753,1.0,,,,,,,1553721378.245995,1553721380.229147,
393,327,Memory,7,,,,,,,00760960620fa.jpg,,,,,0.987,1.0,,,,,,,1553721381.497268,1553721383.481392,
394,327,Memory,7,,,,,,,sunaafvitpexrpvumsa.jpg,,,,,0.0,,,,,,,,1553721384.731302,1553721386.716138,
395,327,Memory,7,,,,,,,00862940307fa.jpg,,,,,0.752,2.0,,,,,,,1553721387.966421,1553721389.949719,
396,327,Memory,7,,,,,,,sunablfqiwfqomjarht.jpg,,,,,1.103,4.0,,,,,,,1553721391.200354,1553721393.184796,
397,327,Memory,7,,,,,,,sunbesrwkdsffeogeqq.jpg,,,,,1.97,2.0,,,,,,,1553721394.450738,1553721396.435783,
398,327,Memory,7,,,,,,,00564941031fa.jpg,,,,,0.752,1.0,,,,,,,1553721397.702053,1553721399.686863,
399,327,Memory,7,,,,,,,sunagcthdfirrcawoic.jpg,,,,,0.953,3.0,,,,,,,1553721400.952257,1553721402.937071,
