,Subject,Trial Type,Run,Cued Composite,Uncued Composite,Cued Face,Cued Place,Uncued Face,Uncued Place,Memory Image,Category,Cued Side,Cued Category,Attention Reaction Time (s),Familiarity Reaction Time (s),Familiarity Rating,Attention Level,Cue Validity,Post Invalid Cue,Pre Invalid Cue,Attention Button,Rating History,Stimulus Onset,Stimulus End,Attention Probe
310,3,Memory,6,,,,,,,00122931230fa.jpg,,,,,1.124,2.0,,,,,,,1550784967.968391,1550784970.070156,
311,3,Memory,6,,,,,,,sunagtumacdlmciqamz.jpg,,,,,1.824,2.0,,,,,,,1550784971.371246,1550784973.451641,
312,3,Memory,6,,,,,,,00795941205fa.jpg,,,,,0.858,2.0,,,,,,,1550784974.738503,1550784976.800379,
313,3,Memory,6,,,,,,,00783941205fa.jpg,,,,,0.707,1.0,,,,,,,1550784978.089297,1550784980.085849,
314,3,Memory,6,,,,,,,00245940128fa.jpg,,,,,1.166,1.0,,,,,,,1550784981.357038,1550784983.326239,
315,3,Memory,6,,,,,,,00910960530fa.jpg,,,,,1.009,1.0,,,,,,,1550784984.59137,1550784986.592643,
316,3,Memory,6,,,,,,,00130931230fa.jpg,,,,,1.41,2.0,,,,,,,1550784987.858428,1550784989.955824,
317,3,Memory,6,,,,,,,sunaccdtpgenvcbcbcf.jpg,,,,,1.791,1.0,,,,,,,1550784991.243407,1550784993.27214,
318,3,Memory,6,,,,,,,00782941205fa.jpg,,,,,0.838,1.0,,,,,,,1550784994.544924,1550784996.578053,
319,3,Memory,6,,,,,,,sunadrmfzmstgdjdcod.jpg,,,,,1.489,1.0,,,,,,,1550784997.862221,1550784999.864037,
320,3,Memory,6,,,,,,,sunaekgzpfilgjxpeyq.jpg,,,,,0.993,3.0,,,,,,,1550785001.124916,1550785003.1324,
321,3,Memory,6,,,,,,,00922960627fa.jpg,,,,,0.775,2.0,,,,,,,1550785004.414867,1550785006.460521,
322,3,Memory,6,,,,,,,00848940307fa.jpg,,,,,0.915,1.0,,,,,,,1550785007.710726,1550785009.695753,
323,3,Memory,6,,,,,,,00957960627fa.jpg,,,,,1.115,1.0,,,,,,,1550785010.967539,1550785013.037841,
324,3,Memory,6,,,,,,,00132931230fb.jpg,,,,,1.024,2.0,,,,,,,1550785014.301884,1550785016.403111,
325,3,Memory,6,,,,,,,sunagmwxxwymwojbvgi.jpg,,,,,0.782,2.0,,,,,,,1550785017.684578,1550785019.648688,
326,3,Memory,6,,,,,,,sunabeyhmxodahoieyk.jpg,,,,,1.003,1.0,,,,,,,1550785020.936873,1550785022.898673,
327,3,Memory,6,,,,,,,00214940128fa.jpg,,,,,0.674,2.0,,,,,,,1550785024.170588,1550785026.188928,
328,3,Memory,6,,,,,,,sunaanjcbzdvtvblsdy.jpg,,,,,0.75,1.0,,,,,,,1550785027.471866,1550785029.523109,
329,3,Memory,6,,,,,,,sunagfvluwixdsozaql.jpg,,,,,0.741,2.0,,,,,,,1550785030.805864,1550785032.786859,
330,3,Memory,6,,,,,,,sunaamvxnvouicstkjb.jpg,,,,,0.801,3.0,,,,,,,1550785034.073181,1550785036.040659,
331,3,Memory,6,,,,,,,sunapqkyghktgtosuuk.jpg,,,,,1.219,3.0,,,,,,,1550785037.320021,1550785039.288913,
332,3,Memory,6,,,,,,,sunaivdylrawbmhryfp.jpg,,,,,1.525,2.0,,,,,,,1550785040.575796,1550785042.68062,
333,3,Memory,6,,,,,,,sunavhxgmgrqsaptynb.jpg,,,,,1.021,1.0,,,,,,,1550785043.959924,1550785045.923664,
334,3,Memory,6,,,,,,,00694941121fa.jpg,,,,,1.069,3.0,,,,,,,1550785047.195085,1550785049.158435,
335,3,Memory,6,,,,,,,00949960627fb.jpg,,,,,0.852,2.0,,,,,,,1550785050.425078,1550785052.463337,
336,3,Memory,6,,,,,,,00950960627fa.jpg,,,,,0.783,1.0,,,,,,,1550785053.74702,1550785055.728868,
337,3,Memory,6,,,,,,,sunagjeesomrwjsfqie.jpg,,,,,1.52,2.0,,,,,,,1550785056.981537,1550785058.961004,
338,3,Memory,6,,,,,,,sunabbwggenhfbftyvi.jpg,,,,,0.972,2.0,,,,,,,1550785060.232684,1550785062.217845,
339,3,Memory,6,,,,,,,00730960620fa.jpg,,,,,0.767,1.0,,,,,,,1550785063.47856,1550785065.451711,
340,3,Memory,6,,,,,,,sunaofikylqtxphvdem.jpg,,,,,1.025,1.0,,,,,,,1550785066.734328,1550785068.846587,
341,3,Memory,6,,,,,,,sunabbafjowbzcvbucc.jpg,,,,,0.936,1.0,,,,,,,1550785070.119115,1550785072.082369,
342,3,Memory,6,,,,,,,sunabckqabszusgcykj.jpg,,,,,1.12,1.0,,,,,,,1550785073.353243,1550785075.366651,
343,3,Memory,6,,,,,,,00787941205fa.jpg,,,,,0.658,1.0,,,,,,,1550785076.620127,1550785078.617429,
344,3,Memory,6,,,,,,,00227940128fa.jpg,,,,,0.936,2.0,,,,,,,1550785079.867916,1550785081.836461,
345,3,Memory,6,,,,,,,00532960627fa.jpg,,,,,0.836,1.0,,,,,,,1550785083.089553,1550785085.053628,
346,3,Memory,6,,,,,,,sunaakxjfbrrequcjmx.jpg,,,,,1.173,3.0,,,,,,,1550785086.424277,1550785088.405308,
347,3,Memory,6,,,,,,,sunasnqkkyhilqkxiqm.jpg,,,,,1.356,1.0,,,,,,,1550785089.658838,1550785091.705377,
348,3,Memory,6,,,,,,,sunasrjlmglmjzbmqxb.jpg,,,,,1.635,2.0,,,,,,,1550785092.975557,1550785094.973035,
349,3,Memory,6,,,,,,,00218940128fa.jpg,,,,,0.953,2.0,,,,,,,1550785096.222943,1550785098.223002,
