,Subject,Trial Type,Run,Cued Composite,Uncued Composite,Cued Face,Cued Place,Uncued Face,Uncued Place,Memory Image,Category,Cued Side,Cued Category,Attention Reaction Time (s),Familiarity Reaction Time (s),Familiarity Rating,Attention Level,Cue Validity,Post Invalid Cue,Pre Invalid Cue,Attention Button,Rating History,Stimulus Onset,Stimulus End,Attention Probe
110,19,Memory,2,,,,,,,00647941031fa.jpg,,,,,1.105,1.0,,,,,,,1539358721.561541,1539358724.029606,
111,19,Memory,2,,,,,,,00805941205fa.jpg,,,,,0.687,1.0,,,,,,,1539358725.463559,1539358727.930915,
112,19,Memory,2,,,,,,,00221940128fa.jpg,,,,,1.687,2.0,,,,,,,1539358729.414505,1539358731.864722,
113,19,Memory,2,,,,,,,01002960627fb.jpg,,,,,0.484,1.0,,,,,,,1539358733.317035,1539358735.833383,
114,19,Memory,2,,,,,,,sunabtrnbvpppgczjim.jpg,,,,,0.784,1.0,,,,,,,1539358737.283728,1539358739.817836,
115,19,Memory,2,,,,,,,00650941031fa.jpg,,,,,1.289,1.0,,,,,,,1539358741.217851,1539358743.70252,
116,19,Memory,2,,,,,,,00675941121fa.jpg,,,,,1.153,1.0,,,,,,,1539358745.120299,1539358747.603795,
117,19,Memory,2,,,,,,,sunapqkpqdfvxlbqwyo.jpg,,,,,0.518,1.0,,,,,,,1539358749.053944,1539358751.487876,
118,19,Memory,2,,,,,,,sunaafynehyrzpsoaml.jpg,,,,,0.468,1.0,,,,,,,1539358753.023225,1539358755.506154,
119,19,Memory,2,,,,,,,00193940928fa.jpg,,,,,1.104,1.0,,,,,,,1539358756.922592,1539358759.54114,
120,19,Memory,2,,,,,,,00086931230fa.jpg,,,,,0.522,1.0,,,,,,,1539358761.058216,1539358763.692379,
121,19,Memory,2,,,,,,,sunafhmnhsdurlvddpw.jpg,,,,,0.739,1.0,,,,,,,1539358765.109829,1539358767.727846,
122,19,Memory,2,,,,,,,00096931230fa.jpg,,,,,0.937,1.0,,,,,,,1539358769.127625,1539358771.611087,
123,19,Memory,2,,,,,,,00101931230fb.jpg,,,,,0.852,1.0,,,,,,,1539358773.04598,1539358775.612408,
124,19,Memory,2,,,,,,,sunanaacmmosxrfwmvl.jpg,,,,,0.422,1.0,,,,,,,1539358776.97923,1539358779.464218,
125,19,Memory,2,,,,,,,00966960627fa.jpg,,,,,0.003,1.0,,,,,,,1539358780.881491,1539358783.566753,
126,19,Memory,2,,,,,,,sunagwzdbtlixdhgolm.jpg,,,,,0.937,1.0,,,,,,,1539358784.965633,1539358787.650759,
127,19,Memory,2,,,,,,,00921960627fa.jpg,,,,,1.536,1.0,,,,,,,1539358789.117163,1539358791.484912,
128,19,Memory,2,,,,,,,sunabcfpwlpolnutyju.jpg,,,,,0.871,1.0,,,,,,,1539358792.935176,1539358795.268152,
129,19,Memory,2,,,,,,,sunadoxcchtmsxewsau.jpg,,,,,0.589,1.0,,,,,,,1539358796.75265,1539358799.13765,
130,19,Memory,2,,,,,,,00775941205fa.jpg,,,,,1.822,2.0,,,,,,,1539358800.554428,1539358802.937902,
131,19,Memory,2,,,,,,,00191940128fb.jpg,,,,,0.523,1.0,,,,,,,1539358804.37248,1539358806.755519,
132,19,Memory,2,,,,,,,sunawksfbacycuhbrsc.jpg,,,,,0.435,1.0,,,,,,,1539358808.274014,1539358810.740017,
133,19,Memory,2,,,,,,,00902960530fa.jpg,,,,,0.422,1.0,,,,,,,1539358812.224145,1539358814.842171,
134,19,Memory,2,,,,,,,sunaaxjpzcnxligjtjq.jpg,,,,,0.484,1.0,,,,,,,1539358816.242159,1539358818.844261,
135,19,Memory,2,,,,,,,sunadflbrkckmepztql.jpg,,,,,0.489,1.0,,,,,,,1539358820.277624,1539358822.861655,
136,19,Memory,2,,,,,,,sunbwaafjdebjzttuvq.jpg,,,,,0.554,1.0,,,,,,,1539358824.294961,1539358826.845918,
137,19,Memory,2,,,,,,,00763941205fa.jpg,,,,,0.855,1.0,,,,,,,1539358828.281297,1539358830.763967,
138,19,Memory,2,,,,,,,sunaygrtwrwfezqjizr.jpg,,,,,0.538,1.0,,,,,,,1539358832.163945,1539358834.731402,
139,19,Memory,2,,,,,,,00723941201fa.jpg,,,,,1.154,2.0,,,,,,,1539358836.147998,1539358838.532727,
140,19,Memory,2,,,,,,,00960960627fa.jpg,,,,,0.434,1.0,,,,,,,1539358839.934215,1539358842.568164,
141,19,Memory,2,,,,,,,00305940422fa.jpg,,,,,0.919,1.0,,,,,,,1539358844.001505,1539358846.401985,
142,19,Memory,2,,,,,,,sunafvwfsmqkjrutjta.jpg,,,,,0.603,1.0,,,,,,,1539358847.853718,1539358850.20255,
143,19,Memory,2,,,,,,,00913960530fa.jpg,,,,,1.938,2.0,,,,,,,1539358851.636293,1539358854.122025,
144,19,Memory,2,,,,,,,sunaedtgwjvvziytspa.jpg,,,,,0.667,1.0,,,,,,,1539358855.572195,1539358858.056245,
145,19,Memory,2,,,,,,,sunaajqmsaavkmgbsth.jpg,,,,,0.27,2.0,,,,,,,1539358859.456681,1539358861.806119,
146,19,Memory,2,,,,,,,sunaooffzffbhcpirmm.jpg,,,,,0.636,1.0,,,,,,,1539358863.225459,1539358865.575048,
147,19,Memory,2,,,,,,,sunadikxpvqeabxrvvc.jpg,,,,,0.436,1.0,,,,,,,1539358866.958779,1539358869.576113,
148,19,Memory,2,,,,,,,sunaaiqiqcggrskoqgy.jpg,,,,,0.603,1.0,,,,,,,1539358871.026195,1539358873.461241,
149,19,Memory,2,,,,,,,sunaawsdjisukbbginm.jpg,,,,,0.921,1.0,,,,,,,1539358874.845111,1539358877.362702,
