,Subject,Trial Type,Run,Cued Composite,Uncued Composite,Cued Face,Cued Place,Uncued Face,Uncued Place,Memory Image,Category,Cued Side,Cued Category,Attention Response Time (s),Familiarity Reaction Time (s),Familiarity Rating,Attention Level,Cue Validity,Post Invalid Cue,Pre Invalid Cue,Attention Button,Rating History,Stimulus Onset,Stimulus End,Attention Probe
0,25,Presentation,0,00264940128fb_sunabjzyxcjnmztdonj.jpg,00061931230fb_sunaaekxzjzrfgtkwjf.jpg,00264940128fb.jpg,sunabjzyxcjnmztdonj.jpg,00061931230fb.jpg,sunaaekxzjzrfgtkwjf.jpg,,,<,Place,,,,,1,,,,,,,o
1,25,Presentation,0,00936960627fa_sunaqgjuuwvdcyiccjt.jpg,00060931230fa_sunaaehaikpckyjsety.jpg,00936960627fa.jpg,sunaqgjuuwvdcyiccjt.jpg,00060931230fa.jpg,sunaaehaikpckyjsety.jpg,,,<,Place,,,,,1,,,,,,,o
2,25,Presentation,0,00138931230fa_sunaapfaivxqoynnwwp.jpg,00081941031fa_sunaaftlyfudyzuhqzf.jpg,00138931230fa.jpg,sunaapfaivxqoynnwwp.jpg,00081941031fa.jpg,sunaaftlyfudyzuhqzf.jpg,,,<,Place,,,,,1,,,,,,,o
3,25,Presentation,0,00498960627fa_sunabzjxlmkwnwzimua.jpg,00564941031fa_sunacsaovnjezqwbykf.jpg,00498960627fa.jpg,sunabzjxlmkwnwzimua.jpg,00564941031fa.jpg,sunacsaovnjezqwbykf.jpg,,,<,Place,,,,,1,,,,,,,x
4,25,Presentation,0,00957960627fa_sunavhxgmgrqsaptynb.jpg,00263940128fb_sunabjuovqvyfuzvqwt.jpg,00957960627fa.jpg,sunavhxgmgrqsaptynb.jpg,00263940128fb.jpg,sunabjuovqvyfuzvqwt.jpg,,,<,Place,,,,,0,,,,,,,o
5,25,Presentation,0,00260940128fa_sunabgfhvifeijihhjw.jpg,00876960620fa_sunajwqkfsykceonyig.jpg,00260940128fa.jpg,sunabgfhvifeijihhjw.jpg,00876960620fa.jpg,sunajwqkfsykceonyig.jpg,,,<,Place,,,,,1,,,,,,,x
6,25,Presentation,0,00136931230fb_sunaanptmsknhirrzed.jpg,00095931230fa_sunaahzooisqkwlxwoz.jpg,00136931230fb.jpg,sunaanptmsknhirrzed.jpg,00095931230fa.jpg,sunaahzooisqkwlxwoz.jpg,,,<,Place,,,,,1,,,,,,,x
7,25,Presentation,0,00839940307fa_sunaipyohrqlwngaqif.jpg,00746941201fa_sunaetydippjxikifsb.jpg,00839940307fa.jpg,sunaipyohrqlwngaqif.jpg,00746941201fa.jpg,sunaetydippjxikifsb.jpg,,,<,Place,,,,,1,,,,,,,x
8,25,Presentation,0,00227940128fa_sunabckqabszusgcykj.jpg,00903960620fa_sunanainkqdvktzoxyl.jpg,00227940128fa.jpg,sunabckqabszusgcykj.jpg,00903960620fa.jpg,sunanainkqdvktzoxyl.jpg,,,<,Place,,,,,1,,,,,,,o
9,25,Presentation,0,00082931230fa_sunaafvitpexrpvumsa.jpg,00938960627fa_sunaqyylsngywqzwfmx.jpg,00082931230fa.jpg,sunaafvitpexrpvumsa.jpg,00938960627fa.jpg,sunaqyylsngywqzwfmx.jpg,,,<,Place,,,,,1,,,,,,,x
10,25,Memory,0,,,,,,,00919960620fa.jpg,,,,,,,,,,,,,,,
11,25,Memory,0,,,,,,,sunaanptmsknhirrzed.jpg,,,,,,,,,,,,,,,
12,25,Memory,0,,,,,,,00936960627fa.jpg,,,,,,,,,,,,,,,
13,25,Memory,0,,,,,,,00144931230fb.jpg,,,,,,,,,,,,,,,
14,25,Memory,0,,,,,,,sunbondbduabvijnmch.jpg,,,,,,,,,,,,,,,
15,25,Memory,0,,,,,,,00663941121fa.jpg,,,,,,,,,,,,,,,
16,25,Memory,0,,,,,,,00750941201fa.jpg,,,,,,,,,,,,,,,
17,25,Memory,0,,,,,,,sunaivflshbyfrfzhqb.jpg,,,,,,,,,,,,,,,
18,25,Memory,0,,,,,,,00787960620fa.jpg,,,,,,,,,,,,,,,
19,25,Memory,0,,,,,,,sunanainkqdvktzoxyl.jpg,,,,,,,,,,,,,,,
20,25,Memory,0,,,,,,,sunaahzooisqkwlxwoz.jpg,,,,,,,,,,,,,,,
21,25,Memory,0,,,,,,,sunahiphsekjihkafsl.jpg,,,,,,,,,,,,,,,
22,25,Memory,0,,,,,,,sunaaelyvurpntclgau.jpg,,,,,,,,,,,,,,,
23,25,Memory,0,,,,,,,sunaipyohrqlwngaqif.jpg,,,,,,,,,,,,,,,
24,25,Memory,0,,,,,,,00815941205fa.jpg,,,,,,,,,,,,,,,
25,25,Memory,0,,,,,,,sunapmfmzadmosuogaz.jpg,,,,,,,,,,,,,,,
26,25,Memory,0,,,,,,,00061931230fb.jpg,,,,,,,,,,,,,,,
27,25,Memory,0,,,,,,,00803941205fa.jpg,,,,,,,,,,,,,,,
28,25,Memory,0,,,,,,,sunagoufulkpsxrmklt.jpg,,,,,,,,,,,,,,,
29,25,Memory,0,,,,,,,00903960620fa.jpg,,,,,,,,,,,,,,,
30,25,Memory,0,,,,,,,sunabckqabszusgcykj.jpg,,,,,,,,,,,,,,,
31,25,Memory,0,,,,,,,00063931230fa.jpg,,,,,,,,,,,,,,,
32,25,Memory,0,,,,,,,sunaaftlyfudyzuhqzf.jpg,,,,,,,,,,,,,,,
33,25,Memory,0,,,,,,,sunadnjjzohjhbohlwq.jpg,,,,,,,,,,,,,,,
34,25,Memory,0,,,,,,,00095931230fa.jpg,,,,,,,,,,,,,,,
35,25,Memory,0,,,,,,,sunaqyylsngywqzwfmx.jpg,,,,,,,,,,,,,,,
36,25,Memory,0,,,,,,,00851940307fa.jpg,,,,,,,,,,,,,,,
37,25,Memory,0,,,,,,,00264940128fb.jpg,,,,,,,,,,,,,,,
38,25,Memory,0,,,,,,,sunaqgjuuwvdcyiccjt.jpg,,,,,,,,,,,,,,,
39,25,Memory,0,,,,,,,00839940307fa.jpg,,,,,,,,,,,,,,,
40,25,Memory,0,,,,,,,sunaaekxzjzrfgtkwjf.jpg,,,,,,,,,,,,,,,
41,25,Memory,0,,,,,,,sunabjzyxcjnmztdonj.jpg,,,,,,,,,,,,,,,
42,25,Memory,0,,,,,,,00227940128fa.jpg,,,,,,,,,,,,,,,
43,25,Memory,0,,,,,,,00938960627fa.jpg,,,,,,,,,,,,,,,
44,25,Memory,0,,,,,,,sunaeuzwggvibufclwf.jpg,,,,,,,,,,,,,,,
45,25,Memory,0,,,,,,,00136931230fb.jpg,,,,,,,,,,,,,,,
46,25,Memory,0,,,,,,,00081941031fa.jpg,,,,,,,,,,,,,,,
47,25,Memory,0,,,,,,,sunaathajvxrgptwhoj.jpg,,,,,,,,,,,,,,,
48,25,Memory,0,,,,,,,00989960627fa.jpg,,,,,,,,,,,,,,,
49,25,Memory,0,,,,,,,sunagvxkjokqimstxpe.jpg,,,,,,,,,,,,,,,
50,25,Presentation,1,00705941205fa_sunadtlxenqqxsyjvix.jpg,00858940307fa_sunaixpqndlwhwjtjek.jpg,00705941205fa.jpg,sunadtlxenqqxsyjvix.jpg,00858940307fa.jpg,sunaixpqndlwhwjtjek.jpg,,,<,Face,,,,,1,,,,,,,o
51,25,Presentation,1,00071940128fa_sunaaexpnawiehinlpy.jpg,00111931230fb_sunaakgekhjklxmvulj.jpg,00071940128fa.jpg,sunaaexpnawiehinlpy.jpg,00111931230fb.jpg,sunaakgekhjklxmvulj.jpg,,,<,Face,,,,,1,,,,,,,o
52,25,Presentation,1,00878960530fa_sunakgbnzxmfohgehnu.jpg,00540940519fa_sunacdnquypmsshhsbk.jpg,00878960530fa.jpg,sunakgbnzxmfohgehnu.jpg,00540940519fa.jpg,sunacdnquypmsshhsbk.jpg,,,<,Face,,,,,1,,,,,,,x
53,25,Presentation,1,00741941201fa_sunaemcowdozyphwknd.jpg,00115931230fa_sunaakmxzhuceuiryah.jpg,00741941201fa.jpg,sunaemcowdozyphwknd.jpg,00115931230fa.jpg,sunaakmxzhuceuiryah.jpg,,,<,Face,,,,,1,,,,,,,x
54,25,Presentation,1,00097931230fa_sunaajayojuslbbnneg.jpg,00568940928fa_sunacsdhbbsybcyxnel.jpg,00097931230fa.jpg,sunaajayojuslbbnneg.jpg,00568940928fa.jpg,sunacsdhbbsybcyxnel.jpg,,,<,Face,,,,,0,,,,,,,x
55,25,Presentation,1,00647941031fa_sunadflbrkckmepztql.jpg,00723941201fa_sunaedtgwjvvziytspa.jpg,00647941031fa.jpg,sunadflbrkckmepztql.jpg,00723941201fa.jpg,sunaedtgwjvvziytspa.jpg,,,<,Face,,,,,1,,,,,,,o
56,25,Presentation,1,00854940307fa_sunaiwduelojtwaqeyh.jpg,00262940128fa_sunabizydfotqddlnjp.jpg,00854940307fa.jpg,sunaiwduelojtwaqeyh.jpg,00262940128fa.jpg,sunabizydfotqddlnjp.jpg,,,<,Face,,,,,1,,,,,,,x
57,25,Presentation,1,00070940307fa_sunaaeplwsfslcbtojr.jpg,00214940128fa_sunabbafjowbzcvbucc.jpg,00070940307fa.jpg,sunaaeplwsfslcbtojr.jpg,00214940128fa.jpg,sunabbafjowbzcvbucc.jpg,,,<,Face,,,,,1,,,,,,,o
58,25,Presentation,1,00893960530Fa_sunaloffvbvysigxent.jpg,00728941205fa_sunaejnvnpltdmhbcsi.jpg,00893960530Fa.jpg,sunaloffvbvysigxent.jpg,00728941205fa.jpg,sunaejnvnpltdmhbcsi.jpg,,,<,Face,,,,,1,,,,,,,o
59,25,Presentation,1,00635941031fa_sunaddsaeicthrfbkhe.jpg,00774941201fa_sunafvtpfczkzopbgue.jpg,00635941031fa.jpg,sunaddsaeicthrfbkhe.jpg,00774941201fa.jpg,sunafvtpfczkzopbgue.jpg,,,<,Face,,,,,1,,,,,,,x
60,25,Memory,1,,,,,,,00878960530fa.jpg,,,,,,,,,,,,,,,
61,25,Memory,1,,,,,,,sunapwjkcxdaeqehfql.jpg,,,,,,,,,,,,,,,
62,25,Memory,1,,,,,,,sunafkmnlytenlsywia.jpg,,,,,,,,,,,,,,,
63,25,Memory,1,,,,,,,00968960627fa.jpg,,,,,,,,,,,,,,,
64,25,Memory,1,,,,,,,sunahqldjibofgsfdgb.jpg,,,,,,,,,,,,,,,
65,25,Memory,1,,,,,,,sunaixpqndlwhwjtjek.jpg,,,,,,,,,,,,,,,
66,25,Memory,1,,,,,,,00288940422fa.jpg,,,,,,,,,,,,,,,
67,25,Memory,1,,,,,,,sunacsdhbbsybcyxnel.jpg,,,,,,,,,,,,,,,
68,25,Memory,1,,,,,,,00728941205fa.jpg,,,,,,,,,,,,,,,
69,25,Memory,1,,,,,,,00854940307fa.jpg,,,,,,,,,,,,,,,
70,25,Memory,1,,,,,,,sunaejnvnpltdmhbcsi.jpg,,,,,,,,,,,,,,,
71,25,Memory,1,,,,,,,00911960530fa.jpg,,,,,,,,,,,,,,,
72,25,Memory,1,,,,,,,sunaffstbkappprzxnv.jpg,,,,,,,,,,,,,,,
73,25,Memory,1,,,,,,,sunaooaqzputrowwbsw.jpg,,,,,,,,,,,,,,,
74,25,Memory,1,,,,,,,00115931230fa.jpg,,,,,,,,,,,,,,,
75,25,Memory,1,,,,,,,sunabppokiyglaxpcha.jpg,,,,,,,,,,,,,,,
76,25,Memory,1,,,,,,,sunaedtgwjvvziytspa.jpg,,,,,,,,,,,,,,,
77,25,Memory,1,,,,,,,sunadzuvtmtmgupotmf.jpg,,,,,,,,,,,,,,,
78,25,Memory,1,,,,,,,00723941201fa.jpg,,,,,,,,,,,,,,,
79,25,Memory,1,,,,,,,00097931230fa.jpg,,,,,,,,,,,,,,,
80,25,Memory,1,,,,,,,sunaakmxzhuceuiryah.jpg,,,,,,,,,,,,,,,
81,25,Memory,1,,,,,,,00768941205fa.jpg,,,,,,,,,,,,,,,
82,25,Memory,1,,,,,,,00568940928fa.jpg,,,,,,,,,,,,,,,
83,25,Memory,1,,,,,,,sunaddsaeicthrfbkhe.jpg,,,,,,,,,,,,,,,
84,25,Memory,1,,,,,,,sunbagfpovqwbuexqdn.jpg,,,,,,,,,,,,,,,
85,25,Memory,1,,,,,,,sunakgbnzxmfohgehnu.jpg,,,,,,,,,,,,,,,
86,25,Memory,1,,,,,,,sunaajayojuslbbnneg.jpg,,,,,,,,,,,,,,,
87,25,Memory,1,,,,,,,00933960627fa.jpg,,,,,,,,,,,,,,,
88,25,Memory,1,,,,,,,sunaauglwmctnkxyird.jpg,,,,,,,,,,,,,,,
89,25,Memory,1,,,,,,,00760960620fa.jpg,,,,,,,,,,,,,,,
90,25,Memory,1,,,,,,,00819940307fa.jpg,,,,,,,,,,,,,,,
91,25,Memory,1,,,,,,,00858940307fa.jpg,,,,,,,,,,,,,,,
92,25,Memory,1,,,,,,,00741941201fa.jpg,,,,,,,,,,,,,,,
93,25,Memory,1,,,,,,,sunapqwnqzxlsfvgsjm.jpg,,,,,,,,,,,,,,,
94,25,Memory,1,,,,,,,00925960627fa.jpg,,,,,,,,,,,,,,,
95,25,Memory,1,,,,,,,sunaiwduelojtwaqeyh.jpg,,,,,,,,,,,,,,,
96,25,Memory,1,,,,,,,00149931230fa.jpg,,,,,,,,,,,,,,,
97,25,Memory,1,,,,,,,sunaemcowdozyphwknd.jpg,,,,,,,,,,,,,,,
98,25,Memory,1,,,,,,,00635941031fa.jpg,,,,,,,,,,,,,,,
99,25,Memory,1,,,,,,,00719960620fa.jpg,,,,,,,,,,,,,,,
100,25,Presentation,2,00953960627fa_sunatstrpjxhvtbaczf.jpg,00242940128fa_sunabcuurugvxwparpk.jpg,00953960627fa.jpg,sunatstrpjxhvtbaczf.jpg,00242940128fa.jpg,sunabcuurugvxwparpk.jpg,,,<,Place,,,,,1,,,,,,,x
101,25,Presentation,2,00145931230fb_sunaatjesvdupctftmn.jpg,00700941121fa_sunadsgmtznewzyasnk.jpg,00145931230fb.jpg,sunaatjesvdupctftmn.jpg,00700941121fa.jpg,sunadsgmtznewzyasnk.jpg,,,<,Place,,,,,1,,,,,,,x
102,25,Presentation,2,00675941121fa_sunadoxcchtmsxewsau.jpg,00554940519fa_sunacfdkbsrughwqwtt.jpg,00675941121fa.jpg,sunadoxcchtmsxewsau.jpg,00554940519fa.jpg,sunacfdkbsrughwqwtt.jpg,,,<,Place,,,,,1,,,,,,,x
103,25,Presentation,2,00960960627fa_sunawksfbacycuhbrsc.jpg,01009960627fa_sunbxzweleltykebgan.jpg,00960960627fa.jpg,sunawksfbacycuhbrsc.jpg,01009960627fa.jpg,sunbxzweleltykebgan.jpg,,,<,Place,,,,,1,,,,,,,x
104,25,Presentation,2,00122931230fa_sunaakxjfbrrequcjmx.jpg,00098931230fa_sunaajpqmulidejvjsr.jpg,00122931230fa.jpg,sunaakxjfbrrequcjmx.jpg,00098931230fa.jpg,sunaajpqmulidejvjsr.jpg,,,<,Place,,,,,0,,,,,,,o
105,25,Presentation,2,00795941205fa_sunagtumacdlmciqamz.jpg,00971960627fa_sunbbegcweqnetpdlrh.jpg,00795941205fa.jpg,sunagtumacdlmciqamz.jpg,00971960627fa.jpg,sunbbegcweqnetpdlrh.jpg,,,<,Place,,,,,1,,,,,,,o
106,25,Presentation,2,01004960627fa_sunbwtlihsuptkrckid.jpg,00880960530fa_sunakmnfgklupjijsgf.jpg,01004960627fa.jpg,sunbwtlihsuptkrckid.jpg,00880960530fa.jpg,sunakmnfgklupjijsgf.jpg,,,<,Place,,,,,1,,,,,,,x
107,25,Presentation,2,00630940928fa_sunaczwgyukesaajxnx.jpg,00788941205fa_sunagountlxpzkytsmp.jpg,00630940928fa.jpg,sunaczwgyukesaajxnx.jpg,00788941205fa.jpg,sunagountlxpzkytsmp.jpg,,,<,Place,,,,,1,,,,,,,o
108,25,Presentation,2,00636941031fa_sunaddtdkycxbqlpfqa.jpg,00193940928fa_sunaaxjpzcnxligjtjq.jpg,00636941031fa.jpg,sunaddtdkycxbqlpfqa.jpg,00193940928fa.jpg,sunaaxjpzcnxligjtjq.jpg,,,<,Place,,,,,1,,,,,,,o
109,25,Presentation,2,00221940128fa_sunabcfpwlpolnutyju.jpg,00306940422fa_sunabueyoajufbkraki.jpg,00221940128fa.jpg,sunabcfpwlpolnutyju.jpg,00306940422fa.jpg,sunabueyoajufbkraki.jpg,,,<,Place,,,,,1,,,,,,,x
110,25,Memory,2,,,,,,,01004960627fa.jpg,,,,,,,,,,,,,,,
111,25,Memory,2,,,,,,,sunbtpilbhhbmhmeuzq.jpg,,,,,,,,,,,,,,,
112,25,Memory,2,,,,,,,sunabcfpwlpolnutyju.jpg,,,,,,,,,,,,,,,
113,25,Memory,2,,,,,,,00062931230fb.jpg,,,,,,,,,,,,,,,
114,25,Memory,2,,,,,,,sunaanlwnpqndclffxt.jpg,,,,,,,,,,,,,,,
115,25,Memory,2,,,,,,,sunbwtlihsuptkrckid.jpg,,,,,,,,,,,,,,,
116,25,Memory,2,,,,,,,00675941121fa.jpg,,,,,,,,,,,,,,,
117,25,Memory,2,,,,,,,00306940422fa.jpg,,,,,,,,,,,,,,,
118,25,Memory,2,,,,,,,sunbvbrvgbpanfrawft.jpg,,,,,,,,,,,,,,,
119,25,Memory,2,,,,,,,00961960627fa.jpg,,,,,,,,,,,,,,,
120,25,Memory,2,,,,,,,sunaguchqqnrtodtezq.jpg,,,,,,,,,,,,,,,
121,25,Memory,2,,,,,,,sunagountlxpzkytsmp.jpg,,,,,,,,,,,,,,,
122,25,Memory,2,,,,,,,00133931230fa.jpg,,,,,,,,,,,,,,,
123,25,Memory,2,,,,,,,00985960627fa.jpg,,,,,,,,,,,,,,,
124,25,Memory,2,,,,,,,00479940519fa.jpg,,,,,,,,,,,,,,,
125,25,Memory,2,,,,,,,00554940519fa.jpg,,,,,,,,,,,,,,,
126,25,Memory,2,,,,,,,00122931230fa.jpg,,,,,,,,,,,,,,,
127,25,Memory,2,,,,,,,00221940128fa.jpg,,,,,,,,,,,,,,,
128,25,Memory,2,,,,,,,00098931230fa.jpg,,,,,,,,,,,,,,,
129,25,Memory,2,,,,,,,sunbxzweleltykebgan.jpg,,,,,,,,,,,,,,,
130,25,Memory,2,,,,,,,sunaaelotvjgibjtjhs.jpg,,,,,,,,,,,,,,,
131,25,Memory,2,,,,,,,sunabueyoajufbkraki.jpg,,,,,,,,,,,,,,,
132,25,Memory,2,,,,,,,01009960627fa.jpg,,,,,,,,,,,,,,,
133,25,Memory,2,,,,,,,sunadoxcchtmsxewsau.jpg,,,,,,,,,,,,,,,
134,25,Memory,2,,,,,,,sunaangbuylfvckqqoo.jpg,,,,,,,,,,,,,,,
135,25,Memory,2,,,,,,,00999960627fa.jpg,,,,,,,,,,,,,,,
136,25,Memory,2,,,,,,,sunaakxjfbrrequcjmx.jpg,,,,,,,,,,,,,,,
137,25,Memory,2,,,,,,,sunabxsbfwjccqxxzxq.jpg,,,,,,,,,,,,,,,
138,25,Memory,2,,,,,,,sunatstrpjxhvtbaczf.jpg,,,,,,,,,,,,,,,
139,25,Memory,2,,,,,,,00997960627fa.jpg,,,,,,,,,,,,,,,
140,25,Memory,2,,,,,,,00953960627fa.jpg,,,,,,,,,,,,,,,
141,25,Memory,2,,,,,,,sunacfdkbsrughwqwtt.jpg,,,,,,,,,,,,,,,
142,25,Memory,2,,,,,,,00915960620fa.jpg,,,,,,,,,,,,,,,
143,25,Memory,2,,,,,,,00788941205fa.jpg,,,,,,,,,,,,,,,
144,25,Memory,2,,,,,,,sunbgklxeqjhdbyfhhy.jpg,,,,,,,,,,,,,,,
145,25,Memory,2,,,,,,,sunawotxrevnqvamsfp.jpg,,,,,,,,,,,,,,,
146,25,Memory,2,,,,,,,sunaajpqmulidejvjsr.jpg,,,,,,,,,,,,,,,
147,25,Memory,2,,,,,,,sunapileznnbbmrwoei.jpg,,,,,,,,,,,,,,,
148,25,Memory,2,,,,,,,00131931230fb.jpg,,,,,,,,,,,,,,,
149,25,Memory,2,,,,,,,00796941205fa.jpg,,,,,,,,,,,,,,,
150,25,Presentation,3,00589940928fa_sunacwggadqsfpovdjv.jpg,00235940128fb_sunabclssnoeuigtawp.jpg,00589940928fa.jpg,sunacwggadqsfpovdjv.jpg,00235940128fb.jpg,sunabclssnoeuigtawp.jpg,,,>,Face,,,,,1,,,,,,,x
151,25,Presentation,3,00694941121fa_sunadrmfzmstgdjdcod.jpg,00955960627fb_sunauburywlkjszngcq.jpg,00694941121fa.jpg,sunadrmfzmstgdjdcod.jpg,00955960627fb.jpg,sunauburywlkjszngcq.jpg,,,>,Face,,,,,1,,,,,,,x
152,25,Presentation,3,00966960627fa_sunaygrtwrwfezqjizr.jpg,00210940128fb_sunabanoxjtqxamkucc.jpg,00966960627fa.jpg,sunaygrtwrwfezqjizr.jpg,00210940128fb.jpg,sunabanoxjtqxamkucc.jpg,,,>,Face,,,,,1,,,,,,,o
153,25,Presentation,3,00126931230fb_sunaamdjwemxpmmtypi.jpg,00810941205fa_sunahctntqrunhdxhtb.jpg,00126931230fb.jpg,sunaamdjwemxpmmtypi.jpg,00810941205fa.jpg,sunahctntqrunhdxhtb.jpg,,,>,Face,,,,,1,,,,,,,x
154,25,Presentation,3,00825940307fa_sunahrltmuwbiehihpe.jpg,00902960530fa_sunanaacmmosxrfwmvl.jpg,00825940307fa.jpg,sunahrltmuwbiehihpe.jpg,00902960530fa.jpg,sunanaacmmosxrfwmvl.jpg,,,>,Face,,,,,1,,,,,,,x
155,25,Presentation,3,00979960627fa_sunbdycacjfaujxitbw.jpg,00630941031fa_sunadakkdovnuzlycvp.jpg,00979960627fa.jpg,sunbdycacjfaujxitbw.jpg,00630941031fa.jpg,sunadakkdovnuzlycvp.jpg,,,>,Face,,,,,1,,,,,,,o
156,25,Presentation,3,00662941121fa_sunadkazmlajmohnwfl.jpg,00790941205fa_sunagpjzsbltchlwvou.jpg,00662941121fa.jpg,sunadkazmlajmohnwfl.jpg,00790941205fa.jpg,sunagpjzsbltchlwvou.jpg,,,>,Face,,,,,1,,,,,,,x
157,25,Presentation,3,00973960627fa_sunbbgtoeuzierkkajt.jpg,00719941201fa_sunadvithllcgmfxsrn.jpg,00973960627fa.jpg,sunbbgtoeuzierkkajt.jpg,00719941201fa.jpg,sunadvithllcgmfxsrn.jpg,,,>,Face,,,,,0,,,,,,,o
158,25,Presentation,3,00775941205fa_sunafvwfsmqkjrutjta.jpg,00885960530fa_sunakwlvxjpddialozd.jpg,00775941205fa.jpg,sunafvwfsmqkjrutjta.jpg,00885960530fa.jpg,sunakwlvxjpddialozd.jpg,,,>,Face,,,,,1,,,,,,,o
159,25,Presentation,3,00877960530fa_sunajxpkuhbizeveguy.jpg,00086931230fa_sunaafynehyrzpsoaml.jpg,00877960530fa.jpg,sunajxpkuhbizeveguy.jpg,00086931230fa.jpg,sunaafynehyrzpsoaml.jpg,,,>,Face,,,,,1,,,,,,,o
160,25,Memory,3,,,,,,,00988960627fa.jpg,,,,,,,,,,,,,,,
161,25,Memory,3,,,,,,,sunaprnrbmgkomdbchr.jpg,,,,,,,,,,,,,,,
162,25,Memory,3,,,,,,,00775941205fa.jpg,,,,,,,,,,,,,,,
163,25,Memory,3,,,,,,,sunauburywlkjszngcq.jpg,,,,,,,,,,,,,,,
164,25,Memory,3,,,,,,,sunbbgtoeuzierkkajt.jpg,,,,,,,,,,,,,,,
165,25,Memory,3,,,,,,,00210940128fb.jpg,,,,,,,,,,,,,,,
166,25,Memory,3,,,,,,,00086931230fa.jpg,,,,,,,,,,,,,,,
167,25,Memory,3,,,,,,,00966960627fa.jpg,,,,,,,,,,,,,,,
168,25,Memory,3,,,,,,,00633940928fa.jpg,,,,,,,,,,,,,,,
169,25,Memory,3,,,,,,,00950960627fa.jpg,,,,,,,,,,,,,,,
170,25,Memory,3,,,,,,,sunadakkdovnuzlycvp.jpg,,,,,,,,,,,,,,,
171,25,Memory,3,,,,,,,suncnkvbhypnivcohyx.jpg,,,,,,,,,,,,,,,
172,25,Memory,3,,,,,,,sunacwggadqsfpovdjv.jpg,,,,,,,,,,,,,,,
173,25,Memory,3,,,,,,,00929960627fa.jpg,,,,,,,,,,,,,,,
174,25,Memory,3,,,,,,,sunabanoxjtqxamkucc.jpg,,,,,,,,,,,,,,,
175,25,Memory,3,,,,,,,00589940928fa.jpg,,,,,,,,,,,,,,,
176,25,Memory,3,,,,,,,00790941205fa.jpg,,,,,,,,,,,,,,,
177,25,Memory,3,,,,,,,00973960627fa.jpg,,,,,,,,,,,,,,,
178,25,Memory,3,,,,,,,sunaydywdmvlfddbxbk.jpg,,,,,,,,,,,,,,,
179,25,Memory,3,,,,,,,00532960627fa.jpg,,,,,,,,,,,,,,,
180,25,Memory,3,,,,,,,sunafvwfsmqkjrutjta.jpg,,,,,,,,,,,,,,,
181,25,Memory,3,,,,,,,sunasrjlmglmjzbmqxb.jpg,,,,,,,,,,,,,,,
182,25,Memory,3,,,,,,,00771941205fa.jpg,,,,,,,,,,,,,,,
183,25,Memory,3,,,,,,,00630941031fa.jpg,,,,,,,,,,,,,,,
184,25,Memory,3,,,,,,,00882960530fa.jpg,,,,,,,,,,,,,,,
185,25,Memory,3,,,,,,,00965960627fa.jpg,,,,,,,,,,,,,,,
186,25,Memory,3,,,,,,,sunbmaiocftdtvnzgap.jpg,,,,,,,,,,,,,,,
187,25,Memory,3,,,,,,,00955960627fb.jpg,,,,,,,,,,,,,,,
188,25,Memory,3,,,,,,,sunadbhmrgrrpyzglxs.jpg,,,,,,,,,,,,,,,
189,25,Memory,3,,,,,,,sunagpjzsbltchlwvou.jpg,,,,,,,,,,,,,,,
190,25,Memory,3,,,,,,,00825940307fa.jpg,,,,,,,,,,,,,,,
191,25,Memory,3,,,,,,,sunafowswglhxcsufpo.jpg,,,,,,,,,,,,,,,
192,25,Memory,3,,,,,,,sunaccdtpgenvcbcbcf.jpg,,,,,,,,,,,,,,,
193,25,Memory,3,,,,,,,sunaafynehyrzpsoaml.jpg,,,,,,,,,,,,,,,
194,25,Memory,3,,,,,,,00752960620fa.jpg,,,,,,,,,,,,,,,
195,25,Memory,3,,,,,,,01010960627fa.jpg,,,,,,,,,,,,,,,
196,25,Memory,3,,,,,,,sunafbwnojpqeyzssoe.jpg,,,,,,,,,,,,,,,
197,25,Memory,3,,,,,,,sunaknlirqjqiwbbeeg.jpg,,,,,,,,,,,,,,,
198,25,Memory,3,,,,,,,sunaygrtwrwfezqjizr.jpg,,,,,,,,,,,,,,,
199,25,Memory,3,,,,,,,sunahrltmuwbiehihpe.jpg,,,,,,,,,,,,,,,
200,25,Presentation,4,00265940128fb_sunabkmdplkdbvxriff.jpg,00576941031fa_sunacvjlsylseoghjup.jpg,00265940128fb.jpg,sunabkmdplkdbvxriff.jpg,00576941031fa.jpg,sunacvjlsylseoghjup.jpg,,,>,Place,,,,,0,,,,,,,o
201,25,Presentation,4,00969960627fa_sunbaoizrfijvhpnnjn.jpg,00978960627fa_sunbddbivbptlrlauhy.jpg,00969960627fa.jpg,sunbaoizrfijvhpnnjn.jpg,00978960627fa.jpg,sunbddbivbptlrlauhy.jpg,,,>,Place,,,,,1,,,,,,,o
202,25,Presentation,4,00191940128fb_sunaawsdjisukbbginm.jpg,00101931230fb_sunaajqmsaavkmgbsth.jpg,00191940128fb.jpg,sunaawsdjisukbbginm.jpg,00101931230fb.jpg,sunaajqmsaavkmgbsth.jpg,,,>,Place,,,,,1,,,,,,,o
203,25,Presentation,4,00571940928fa_sunacuatpqpqhyjhjqk.jpg,00829940307fa_sunahwgbqkqcrwprgvh.jpg,00571940928fa.jpg,sunacuatpqpqhyjhjqk.jpg,00829940307fa.jpg,sunahwgbqkqcrwprgvh.jpg,,,>,Place,,,,,0,,,,,,,o
204,25,Presentation,4,00543940519fa_sunacepzfrmtkiqonpy.jpg,01007960627fa_sunbxarcshsnqsefemx.jpg,00543940519fa.jpg,sunacepzfrmtkiqonpy.jpg,01007960627fa.jpg,sunbxarcshsnqsefemx.jpg,,,>,Place,,,,,1,,,,,,,o
205,25,Presentation,4,00990960627fa_sunbpflsdaxnddnwcqi.jpg,00316940422fa_sunabxmguapjekttvwm.jpg,00990960627fa.jpg,sunbpflsdaxnddnwcqi.jpg,00316940422fa.jpg,sunabxmguapjekttvwm.jpg,,,>,Place,,,,,0,,,,,,,x
206,25,Presentation,4,00245940128fa_sunabeyhmxodahoieyk.jpg,00864940307fa_sunajawzbrlrwafowen.jpg,00245940128fa.jpg,sunabeyhmxodahoieyk.jpg,00864940307fa.jpg,sunajawzbrlrwafowen.jpg,,,>,Place,,,,,1,,,,,,,o
207,25,Presentation,4,00069931230fb_sunaaeowapdkwzqpgqr.jpg,00898960530fa_sunamkmeblgteyggink.jpg,00069931230fb.jpg,sunaaeowapdkwzqpgqr.jpg,00898960530fa.jpg,sunamkmeblgteyggink.jpg,,,>,Place,,,,,1,,,,,,,x
208,25,Presentation,4,00870940307fa_sunajrgtewnualfcerj.jpg,00648941031fa_sunadfndyrtqqiasoig.jpg,00870940307fa.jpg,sunajrgtewnualfcerj.jpg,00648941031fa.jpg,sunadfndyrtqqiasoig.jpg,,,>,Place,,,,,1,,,,,,,x
209,25,Presentation,4,00096931230fa_sunaaiqiqcggrskoqgy.jpg,00780960530fa_sunagetqixeypsysbpn.jpg,00096931230fa.jpg,sunaaiqiqcggrskoqgy.jpg,00780960530fa.jpg,sunagetqixeypsysbpn.jpg,,,>,Place,,,,,1,,,,,,,o
210,25,Memory,4,,,,,,,sunaajqmsaavkmgbsth.jpg,,,,,,,,,,,,,,,
211,25,Memory,4,,,,,,,00870940307fa.jpg,,,,,,,,,,,,,,,
212,25,Memory,4,,,,,,,00807941205fa.jpg,,,,,,,,,,,,,,,
213,25,Memory,4,,,,,,,sunagcinxkccdtrjmlv.jpg,,,,,,,,,,,,,,,
214,25,Memory,4,,,,,,,sunbxarcshsnqsefemx.jpg,,,,,,,,,,,,,,,
215,25,Memory,4,,,,,,,sunamkmeblgteyggink.jpg,,,,,,,,,,,,,,,
216,25,Memory,4,,,,,,,00761960627fa.jpg,,,,,,,,,,,,,,,
217,25,Memory,4,,,,,,,00777941205fa.jpg,,,,,,,,,,,,,,,
218,25,Memory,4,,,,,,,sunafgdqbclkwfocdhg.jpg,,,,,,,,,,,,,,,
219,25,Memory,4,,,,,,,sunabrwnslxalcohfre.jpg,,,,,,,,,,,,,,,
220,25,Memory,4,,,,,,,sunagetqixeypsysbpn.jpg,,,,,,,,,,,,,,,
221,25,Memory,4,,,,,,,sunadfktsqjthoglcsm.jpg,,,,,,,,,,,,,,,
222,25,Memory,4,,,,,,,sunabyvpwkgsjtijdwj.jpg,,,,,,,,,,,,,,,
223,25,Memory,4,,,,,,,00780960530fa.jpg,,,,,,,,,,,,,,,
224,25,Memory,4,,,,,,,sunaaeowapdkwzqpgqr.jpg,,,,,,,,,,,,,,,
225,25,Memory,4,,,,,,,00483940519fa.jpg,,,,,,,,,,,,,,,
226,25,Memory,4,,,,,,,00609940928fa.jpg,,,,,,,,,,,,,,,
227,25,Memory,4,,,,,,,00191940128fb.jpg,,,,,,,,,,,,,,,
228,25,Memory,4,,,,,,,sunacepzfrmtkiqonpy.jpg,,,,,,,,,,,,,,,
229,25,Memory,4,,,,,,,00827940307fa.jpg,,,,,,,,,,,,,,,
230,25,Memory,4,,,,,,,00638941031fa.jpg,,,,,,,,,,,,,,,
231,25,Memory,4,,,,,,,00543940519fa.jpg,,,,,,,,,,,,,,,
232,25,Memory,4,,,,,,,sunacycdoztxoluxjyk.jpg,,,,,,,,,,,,,,,
233,25,Memory,4,,,,,,,00296940422fa.jpg,,,,,,,,,,,,,,,
234,25,Memory,4,,,,,,,sunahtfxgsrmkiulnwk.jpg,,,,,,,,,,,,,,,
235,25,Memory,4,,,,,,,00978960627fa.jpg,,,,,,,,,,,,,,,
236,25,Memory,4,,,,,,,00265940128fb.jpg,,,,,,,,,,,,,,,
237,25,Memory,4,,,,,,,00559940519fa.jpg,,,,,,,,,,,,,,,
238,25,Memory,4,,,,,,,sunbddbivbptlrlauhy.jpg,,,,,,,,,,,,,,,
239,25,Memory,4,,,,,,,sunabkmdplkdbvxriff.jpg,,,,,,,,,,,,,,,
240,25,Memory,4,,,,,,,00069931230fb.jpg,,,,,,,,,,,,,,,
241,25,Memory,4,,,,,,,01007960627fa.jpg,,,,,,,,,,,,,,,
242,25,Memory,4,,,,,,,sunahawfngukizslzsd.jpg,,,,,,,,,,,,,,,
243,25,Memory,4,,,,,,,00290940422fa.jpg,,,,,,,,,,,,,,,
244,25,Memory,4,,,,,,,sunajrgtewnualfcerj.jpg,,,,,,,,,,,,,,,
245,25,Memory,4,,,,,,,sunabqowuarvqqcnipn.jpg,,,,,,,,,,,,,,,
246,25,Memory,4,,,,,,,00101931230fb.jpg,,,,,,,,,,,,,,,
247,25,Memory,4,,,,,,,sunaawsdjisukbbginm.jpg,,,,,,,,,,,,,,,
248,25,Memory,4,,,,,,,sunacjkmnpawfzbyvae.jpg,,,,,,,,,,,,,,,
249,25,Memory,4,,,,,,,00898960530fa.jpg,,,,,,,,,,,,,,,
250,25,Presentation,5,00984960627fa_sunbfzchmomnvzhbxdg.jpg,00862940307fa_sunaizgnnplsvajzhkc.jpg,00984960627fa.jpg,sunbfzchmomnvzhbxdg.jpg,00862940307fa.jpg,sunaizgnnplsvajzhkc.jpg,,,<,Face,,,,,1,,,,,,,o
251,25,Presentation,5,00848940307fa_sunaivdylrawbmhryfp.jpg,00996960627fa_sunbpvgllfdejxcpjqp.jpg,00848940307fa.jpg,sunaivdylrawbmhryfp.jpg,00996960627fa.jpg,sunbpvgllfdejxcpjqp.jpg,,,<,Face,,,,,1,,,,,,,x
252,25,Presentation,5,00778941205fa_sunagcthdfirrcawoic.jpg,00314940422fa_sunabwmcbaxwioksdgw.jpg,00778941205fa.jpg,sunagcthdfirrcawoic.jpg,00314940422fa.jpg,sunabwmcbaxwioksdgw.jpg,,,<,Face,,,,,1,,,,,,,x
253,25,Presentation,5,00871940307_sunajrujcsdxmfbssmc.jpg,00574940928fa_sunacvbrcejzwmcgnoq.jpg,00871940307.jpg,sunajrujcsdxmfbssmc.jpg,00574940928fa.jpg,sunacvbrcejzwmcgnoq.jpg,,,<,Face,,,,,1,,,,,,,x
254,25,Presentation,5,00076931230fa_sunaafewhewbxmjiurz.jpg,00763941205fa_sunafhmnhsdurlvddpw.jpg,00076931230fa.jpg,sunaafewhewbxmjiurz.jpg,00763941205fa.jpg,sunafhmnhsdurlvddpw.jpg,,,<,Face,,,,,1,,,,,,,o
255,25,Presentation,5,00080931230fb_sunaafjszryxyavjzln.jpg,00267940128fb_sunablfqiwfqomjarht.jpg,00080931230fb.jpg,sunaafjszryxyavjzln.jpg,00267940128fb.jpg,sunablfqiwfqomjarht.jpg,,,<,Face,,,,,1,,,,,,,x
256,25,Presentation,5,00071941031fa_sunaaexqbtdswxrqjvz.jpg,00124931230fa_sunaalhlvzmjmitybdn.jpg,00071941031fa.jpg,sunaaexqbtdswxrqjvz.jpg,00124931230fa.jpg,sunaalhlvzmjmitybdn.jpg,,,<,Face,,,,,1,,,,,,,o
257,25,Presentation,5,00801941205fa_sunagvprlbprarvgdvj.jpg,00125931230fa_sunaalltyvjhbzhkmvg.jpg,00801941205fa.jpg,sunagvprlbprarvgdvj.jpg,00125931230fa.jpg,sunaalltyvjhbzhkmvg.jpg,,,<,Face,,,,,1,,,,,,,o
258,25,Presentation,5,00812941205fa_sunahgtbwgsmtqeodwh.jpg,00276940422fa_sunabmytpyhsgigllxu.jpg,00812941205fa.jpg,sunahgtbwgsmtqeodwh.jpg,00276940422fa.jpg,sunabmytpyhsgigllxu.jpg,,,<,Face,,,,,1,,,,,,,o
259,25,Presentation,5,00162931230fb_sunaavjinpnkappuonm.jpg,00529940519fa_sunacbeefkxpymwevpk.jpg,00162931230fb.jpg,sunaavjinpnkappuonm.jpg,00529940519fa.jpg,sunacbeefkxpymwevpk.jpg,,,<,Face,,,,,0,,,,,,,o
260,25,Memory,5,,,,,,,sunaanjcbzdvtvblsdy.jpg,,,,,,,,,,,,,,,
261,25,Memory,5,,,,,,,00959960627fa.jpg,,,,,,,,,,,,,,,
262,25,Memory,5,,,,,,,00125931230fa.jpg,,,,,,,,,,,,,,,
263,25,Memory,5,,,,,,,00812941205fa.jpg,,,,,,,,,,,,,,,
264,25,Memory,5,,,,,,,00868960307fa.jpg,,,,,,,,,,,,,,,
265,25,Memory,5,,,,,,,sunablfqiwfqomjarht.jpg,,,,,,,,,,,,,,,
266,25,Memory,5,,,,,,,sunbbxkanhzjgbwyxqs.jpg,,,,,,,,,,,,,,,
267,25,Memory,5,,,,,,,00162931230fb.jpg,,,,,,,,,,,,,,,
268,25,Memory,5,,,,,,,00239940128fa.jpg,,,,,,,,,,,,,,,
269,25,Memory,5,,,,,,,00996960627fa.jpg,,,,,,,,,,,,,,,
270,25,Memory,5,,,,,,,00073931230fa.jpg,,,,,,,,,,,,,,,
271,25,Memory,5,,,,,,,00848940307fa.jpg,,,,,,,,,,,,,,,
272,25,Memory,5,,,,,,,00076931230fa.jpg,,,,,,,,,,,,,,,
273,25,Memory,5,,,,,,,sunajjxttslobudoqbv.jpg,,,,,,,,,,,,,,,
274,25,Memory,5,,,,,,,00763941205fa.jpg,,,,,,,,,,,,,,,
275,25,Memory,5,,,,,,,00276940422fa.jpg,,,,,,,,,,,,,,,
276,25,Memory,5,,,,,,,00874940307fa.jpg,,,,,,,,,,,,,,,
277,25,Memory,5,,,,,,,sunavxokzybtomhbmvm.jpg,,,,,,,,,,,,,,,
278,25,Memory,5,,,,,,,00620940928fa.jpg,,,,,,,,,,,,,,,
279,25,Memory,5,,,,,,,00944960627fa.jpg,,,,,,,,,,,,,,,
280,25,Memory,5,,,,,,,sunabmytpyhsgigllxu.jpg,,,,,,,,,,,,,,,
281,25,Memory,5,,,,,,,sunacypmnujalygkunp.jpg,,,,,,,,,,,,,,,
282,25,Memory,5,,,,,,,00778941205fa.jpg,,,,,,,,,,,,,,,
283,25,Memory,5,,,,,,,sunaavjinpnkappuonm.jpg,,,,,,,,,,,,,,,
284,25,Memory,5,,,,,,,sunbpvgllfdejxcpjqp.jpg,,,,,,,,,,,,,,,
285,25,Memory,5,,,,,,,00089931230fa.jpg,,,,,,,,,,,,,,,
286,25,Memory,5,,,,,,,00267940128fb.jpg,,,,,,,,,,,,,,,
287,25,Memory,5,,,,,,,sunasbbntuiheekqyaq.jpg,,,,,,,,,,,,,,,
288,25,Memory,5,,,,,,,sunabctlikybqabezjv.jpg,,,,,,,,,,,,,,,
289,25,Memory,5,,,,,,,00132931230fb.jpg,,,,,,,,,,,,,,,
290,25,Memory,5,,,,,,,sunagcthdfirrcawoic.jpg,,,,,,,,,,,,,,,
291,25,Memory,5,,,,,,,00977960627fa.jpg,,,,,,,,,,,,,,,
292,25,Memory,5,,,,,,,sunahgtbwgsmtqeodwh.jpg,,,,,,,,,,,,,,,
293,25,Memory,5,,,,,,,sunaalltyvjhbzhkmvg.jpg,,,,,,,,,,,,,,,
294,25,Memory,5,,,,,,,sunaivdylrawbmhryfp.jpg,,,,,,,,,,,,,,,
295,25,Memory,5,,,,,,,sunaafewhewbxmjiurz.jpg,,,,,,,,,,,,,,,
296,25,Memory,5,,,,,,,sunajtrfunvzdfticna.jpg,,,,,,,,,,,,,,,
297,25,Memory,5,,,,,,,sunaagcpoejbuzyvddd.jpg,,,,,,,,,,,,,,,
298,25,Memory,5,,,,,,,sunaafbmtoniaasysgu.jpg,,,,,,,,,,,,,,,
299,25,Memory,5,,,,,,,sunafhmnhsdurlvddpw.jpg,,,,,,,,,,,,,,,
300,25,Presentation,6,00970960627fa_sunbasypfgzjtomktmu.jpg,00818940307fa_sunahpblecxtmuzkmxb.jpg,00970960627fa.jpg,sunbasypfgzjtomktmu.jpg,00818940307fa.jpg,sunahpblecxtmuzkmxb.jpg,,,>,Face,,,,,1,,,,,,,x
301,25,Presentation,6,00869940307fa_sunajoveqhiprwqgoco.jpg,00548940519fa_sunacerqowiaeoqkmsq.jpg,00869940307fa.jpg,sunajoveqhiprwqgoco.jpg,00548940519fa.jpg,sunacerqowiaeoqkmsq.jpg,,,>,Face,,,,,1,,,,,,,o
302,25,Presentation,6,00822940307fa_sunahqrxievfeusiqlt.jpg,00753941201fa_sunafcofuuzebuadceo.jpg,00822940307fa.jpg,sunahqrxievfeusiqlt.jpg,00753941201fa.jpg,sunafcofuuzebuadceo.jpg,,,>,Face,,,,,1,,,,,,,x
303,25,Presentation,6,00197940128fa_sunaaylzyqlqrsmfwif.jpg,00926960627Fa_sunapqwoeotxshkukbh.jpg,00197940128fa.jpg,sunaaylzyqlqrsmfwif.jpg,00926960627Fa.jpg,sunapqwoeotxshkukbh.jpg,,,>,Face,,,,,1,,,,,,,x
304,25,Presentation,6,00789960620fa_sunagpancjmxqfazssf.jpg,00208940128fa_sunaazzyhbvqjpmazjq.jpg,00789960620fa.jpg,sunagpancjmxqfazssf.jpg,00208940128fa.jpg,sunaazzyhbvqjpmazjq.jpg,,,>,Face,,,,,1,,,,,,,o
305,25,Presentation,6,00838940307fa_sunaiozxhxgtfrmoagh.jpg,00270940422fb_sunabllobxadqcyttej.jpg,00838940307fa.jpg,sunaiozxhxgtfrmoagh.jpg,00270940422fb.jpg,sunabllobxadqcyttej.jpg,,,>,Face,,,,,1,,,,,,,o
306,25,Presentation,6,00749941201fa_sunaeuvjbmdpknaqqaj.jpg,01005960627fa_sunbwyuesflwdpqtgoy.jpg,00749941201fa.jpg,sunaeuvjbmdpknaqqaj.jpg,01005960627fa.jpg,sunbwyuesflwdpqtgoy.jpg,,,>,Face,,,,,1,,,,,,,o
307,25,Presentation,6,00077931230fb_sunaafgqutfaishsxyu.jpg,00889960530fa_sunaletopenvvozhpxc.jpg,00077931230fb.jpg,sunaafgqutfaishsxyu.jpg,00889960530fa.jpg,sunaletopenvvozhpxc.jpg,,,>,Face,,,,,1,,,,,,,x
308,25,Presentation,6,00906960530fa_sunantryfbloeaomfta.jpg,00744941201fa_sunaeomlfaabhpswasy.jpg,00906960530fa.jpg,sunantryfbloeaomfta.jpg,00744941201fa.jpg,sunaeomlfaabhpswasy.jpg,,,>,Face,,,,,1,,,,,,,x
309,25,Presentation,6,00305940422fa_sunabtrnbvpppgczjim.jpg,00762941201fa_sunafgzgbisbopcyslr.jpg,00305940422fa.jpg,sunabtrnbvpppgczjim.jpg,00762941201fa.jpg,sunafgzgbisbopcyslr.jpg,,,>,Face,,,,,1,,,,,,,o
310,25,Memory,6,,,,,,,00838940307fa.jpg,,,,,,,,,,,,,,,
311,25,Memory,6,,,,,,,sunaahedjlmtqekgyvj.jpg,,,,,,,,,,,,,,,
312,25,Memory,6,,,,,,,00077931230fb.jpg,,,,,,,,,,,,,,,
313,25,Memory,6,,,,,,,00963960627fa.jpg,,,,,,,,,,,,,,,
314,25,Memory,6,,,,,,,00816941205fa.jpg,,,,,,,,,,,,,,,
315,25,Memory,6,,,,,,,sunbwaafjdebjzttuvq.jpg,,,,,,,,,,,,,,,
316,25,Memory,6,,,,,,,sunbloeoiozwjjsiamp.jpg,,,,,,,,,,,,,,,
317,25,Memory,6,,,,,,,sunapqwoeotxshkukbh.jpg,,,,,,,,,,,,,,,
318,25,Memory,6,,,,,,,sunamlotskmmsjeogby.jpg,,,,,,,,,,,,,,,
319,25,Memory,6,,,,,,,sunaazzyhbvqjpmazjq.jpg,,,,,,,,,,,,,,,
320,25,Memory,6,,,,,,,00926960627Fa.jpg,,,,,,,,,,,,,,,
321,25,Memory,6,,,,,,,00208940128fa.jpg,,,,,,,,,,,,,,,
322,25,Memory,6,,,,,,,sunahpblecxtmuzkmxb.jpg,,,,,,,,,,,,,,,
323,25,Memory,6,,,,,,,00900960530fa.jpg,,,,,,,,,,,,,,,
324,25,Memory,6,,,,,,,sunajbwkywmsqkldfml.jpg,,,,,,,,,,,,,,,
325,25,Memory,6,,,,,,,00869940307fa.jpg,,,,,,,,,,,,,,,
326,25,Memory,6,,,,,,,sunayaepykrqvenaqqy.jpg,,,,,,,,,,,,,,,
327,25,Memory,6,,,,,,,01002960627fb.jpg,,,,,,,,,,,,,,,
328,25,Memory,6,,,,,,,sunaeuvjbmdpknaqqaj.jpg,,,,,,,,,,,,,,,
329,25,Memory,6,,,,,,,sunbbfqwjpdxniyhies.jpg,,,,,,,,,,,,,,,
330,25,Memory,6,,,,,,,sunaaylzyqlqrsmfwif.jpg,,,,,,,,,,,,,,,
331,25,Memory,6,,,,,,,00889960530fa.jpg,,,,,,,,,,,,,,,
332,25,Memory,6,,,,,,,00987960627fa.jpg,,,,,,,,,,,,,,,
333,25,Memory,6,,,,,,,00818940307fa.jpg,,,,,,,,,,,,,,,
334,25,Memory,6,,,,,,,sunahmhrncocyhsjpxk.jpg,,,,,,,,,,,,,,,
335,25,Memory,6,,,,,,,00972960627fa.jpg,,,,,,,,,,,,,,,
336,25,Memory,6,,,,,,,00866940307fa.jpg,,,,,,,,,,,,,,,
337,25,Memory,6,,,,,,,00749941201fa.jpg,,,,,,,,,,,,,,,
338,25,Memory,6,,,,,,,sunafvcflzhlqloapyo.jpg,,,,,,,,,,,,,,,
339,25,Memory,6,,,,,,,sunajoveqhiprwqgoco.jpg,,,,,,,,,,,,,,,
340,25,Memory,6,,,,,,,01005960627fa.jpg,,,,,,,,,,,,,,,
341,25,Memory,6,,,,,,,sunbwyuesflwdpqtgoy.jpg,,,,,,,,,,,,,,,
342,25,Memory,6,,,,,,,sunaiozxhxgtfrmoagh.jpg,,,,,,,,,,,,,,,
343,25,Memory,6,,,,,,,00773941201fa.jpg,,,,,,,,,,,,,,,
344,25,Memory,6,,,,,,,sunaletopenvvozhpxc.jpg,,,,,,,,,,,,,,,
345,25,Memory,6,,,,,,,sunagutjvdvnhxejerz.jpg,,,,,,,,,,,,,,,
346,25,Memory,6,,,,,,,sunaafgqutfaishsxyu.jpg,,,,,,,,,,,,,,,
347,25,Memory,6,,,,,,,00799941205fa.jpg,,,,,,,,,,,,,,,
348,25,Memory,6,,,,,,,00197940128fa.jpg,,,,,,,,,,,,,,,
349,25,Memory,6,,,,,,,00090931230fa.jpg,,,,,,,,,,,,,,,
350,25,Presentation,7,00782941205fa_sunagfvluwixdsozaql.jpg,00908960530fa_sunanwjjyqqwzqrqagd.jpg,00782941205fa.jpg,sunagfvluwixdsozaql.jpg,00908960530fa.jpg,sunanwjjyqqwzqrqagd.jpg,,,>,Place,,,,,1,,,,,,,x
351,25,Presentation,7,00935960627fa_sunaqbmgkgqucajzrkp.jpg,00676941121fa_sunadpnqovzckyikrjo.jpg,00935960627fa.jpg,sunaqbmgkgqucajzrkp.jpg,00676941121fa.jpg,sunadpnqovzckyikrjo.jpg,,,>,Place,,,,,1,,,,,,,x
352,25,Presentation,7,00065931230fb_sunaaemixhfquhnxxlm.jpg,00766960620fa_sunafijbgncijwykrnl.jpg,00065931230fb.jpg,sunaaemixhfquhnxxlm.jpg,00766960620fa.jpg,sunafijbgncijwykrnl.jpg,,,>,Place,,,,,1,,,,,,,x
353,25,Presentation,7,00218940128fa_sunabbwggenhfbftyvi.jpg,00800941205fb_sunagvjurcwdbixvnyi.jpg,00218940128fa.jpg,sunabbwggenhfbftyvi.jpg,00800941205fb.jpg,sunagvjurcwdbixvnyi.jpg,,,>,Place,,,,,1,,,,,,,x
354,25,Presentation,7,00931960627fa_sunaptrqvaooxfvktvw.jpg,00786941205fa_sunagmhildamktmqjss.jpg,00931960627fa.jpg,sunaptrqvaooxfvktvw.jpg,00786941205fa.jpg,sunagmhildamktmqjss.jpg,,,>,Place,,,,,1,,,,,,,o
355,25,Presentation,7,00894960620fa_sunalqmfgeadpqsyzpd.jpg,00120931230fa_sunaakxgygjfqrzpyoz.jpg,00894960620fa.jpg,sunalqmfgeadpqsyzpd.jpg,00120931230fa.jpg,sunaakxgygjfqrzpyoz.jpg,,,>,Place,,,,,1,,,,,,,x
356,25,Presentation,7,00123931230fb_sunaalcrrdbjgdztbiz.jpg,00482940519fa_sunabyfxcxhdebvdyfd.jpg,00123931230fb.jpg,sunaalcrrdbjgdztbiz.jpg,00482940519fa.jpg,sunabyfxcxhdebvdyfd.jpg,,,>,Place,,,,,1,,,,,,,x
357,25,Presentation,7,00857940307fa_sunaiwfobocrruqznsv.jpg,00783941205fa_sunagjeesomrwjsfqie.jpg,00857940307fa.jpg,sunaiwfobocrruqznsv.jpg,00783941205fa.jpg,sunagjeesomrwjsfqie.jpg,,,>,Place,,,,,1,,,,,,,o
358,25,Presentation,7,00109931230fa_sunaajuzribjrizdshh.jpg,00598941031fa_sunacxtcahkymosigud.jpg,00109931230fa.jpg,sunaajuzribjrizdshh.jpg,00598941031fa.jpg,sunacxtcahkymosigud.jpg,,,>,Place,,,,,1,,,,,,,x
359,25,Presentation,7,00745941205fa_sunaeouogqolxvggaoq.jpg,00751960620fa_sunaezuszgtxnmsxdbk.jpg,00745941205fa.jpg,sunaeouogqolxvggaoq.jpg,00751960620fa.jpg,sunaezuszgtxnmsxdbk.jpg,,,>,Place,,,,,1,,,,,,,o
360,25,Memory,7,,,,,,,sunaofikylqtxphvdem.jpg,,,,,,,,,,,,,,,
361,25,Memory,7,,,,,,,sunagmhildamktmqjss.jpg,,,,,,,,,,,,,,,
362,25,Memory,7,,,,,,,sunabrjdpmoedcdjbpo.jpg,,,,,,,,,,,,,,,
363,25,Memory,7,,,,,,,sunbfyvfqiimvdaxlqn.jpg,,,,,,,,,,,,,,,
364,25,Memory,7,,,,,,,sunagwzdbtlixdhgolm.jpg,,,,,,,,,,,,,,,
365,25,Memory,7,,,,,,,00983960627fa.jpg,,,,,,,,,,,,,,,
366,25,Memory,7,,,,,,,sunagjzcrjvmxzqzljx.jpg,,,,,,,,,,,,,,,
367,25,Memory,7,,,,,,,sunaobtizabegtwfwul.jpg,,,,,,,,,,,,,,,
368,25,Memory,7,,,,,,,sunaeisnjeetzmkbuad.jpg,,,,,,,,,,,,,,,
369,25,Memory,7,,,,,,,00065931230fb.jpg,,,,,,,,,,,,,,,
370,25,Memory,7,,,,,,,00857940307fa.jpg,,,,,,,,,,,,,,,
371,25,Memory,7,,,,,,,00786941205fa.jpg,,,,,,,,,,,,,,,
372,25,Memory,7,,,,,,,sunaaemixhfquhnxxlm.jpg,,,,,,,,,,,,,,,
373,25,Memory,7,,,,,,,00676941121fa.jpg,,,,,,,,,,,,,,,
374,25,Memory,7,,,,,,,sunabbwggenhfbftyvi.jpg,,,,,,,,,,,,,,,
375,25,Memory,7,,,,,,,00123931230fb.jpg,,,,,,,,,,,,,,,
376,25,Memory,7,,,,,,,sunaiwfobocrruqznsv.jpg,,,,,,,,,,,,,,,
377,25,Memory,7,,,,,,,sunaavtbadenwnzeutj.jpg,,,,,,,,,,,,,,,
378,25,Memory,7,,,,,,,00218940128fa.jpg,,,,,,,,,,,,,,,
379,25,Memory,7,,,,,,,sunaptrqvaooxfvktvw.jpg,,,,,,,,,,,,,,,
380,25,Memory,7,,,,,,,00909960530.jpg,,,,,,,,,,,,,,,
381,25,Memory,7,,,,,,,00931960627fa.jpg,,,,,,,,,,,,,,,
382,25,Memory,7,,,,,,,sunadpnqovzckyikrjo.jpg,,,,,,,,,,,,,,,
383,25,Memory,7,,,,,,,00836940307fa.jpg,,,,,,,,,,,,,,,
384,25,Memory,7,,,,,,,00908960530fa.jpg,,,,,,,,,,,,,,,
385,25,Memory,7,,,,,,,sunanwjjyqqwzqrqagd.jpg,,,,,,,,,,,,,,,
386,25,Memory,7,,,,,,,00120931230fa.jpg,,,,,,,,,,,,,,,
387,25,Memory,7,,,,,,,00727941205fa.jpg,,,,,,,,,,,,,,,
388,25,Memory,7,,,,,,,00783941205fa.jpg,,,,,,,,,,,,,,,
389,25,Memory,7,,,,,,,00631940928fa.jpg,,,,,,,,,,,,,,,
390,25,Memory,7,,,,,,,sunaakxgygjfqrzpyoz.jpg,,,,,,,,,,,,,,,
391,25,Memory,7,,,,,,,00910960530fa.jpg,,,,,,,,,,,,,,,
392,25,Memory,7,,,,,,,sunadbdqzigzwipuipr.jpg,,,,,,,,,,,,,,,
393,25,Memory,7,,,,,,,00805941205fa.jpg,,,,,,,,,,,,,,,
394,25,Memory,7,,,,,,,sunainqelldeebvxtcz.jpg,,,,,,,,,,,,,,,
395,25,Memory,7,,,,,,,sunaalcrrdbjgdztbiz.jpg,,,,,,,,,,,,,,,
396,25,Memory,7,,,,,,,00292940422fb.jpg,,,,,,,,,,,,,,,
397,25,Memory,7,,,,,,,sunagjeesomrwjsfqie.jpg,,,,,,,,,,,,,,,
398,25,Memory,7,,,,,,,00184940128fa.jpg,,,,,,,,,,,,,,,
399,25,Memory,7,,,,,,,00784941205fb.jpg,,,,,,,,,,,,,,,
