,Subject,Trial Type,Run,Cued Composite,Uncued Composite,Cued Face,Cued Place,Uncued Face,Uncued Place,Memory Image,Category,Cued Side,Cued Category,Attention Reaction Time (s),Familiarity Reaction Time (s),Familiarity Rating,Attention Level,Cue Validity,Post Invalid Cue,Pre Invalid Cue,Attention Button,Rating History,Stimulus Onset,Stimulus End,Attention Probe
0,18,Presentation,0,00507940519fa_sunacacflqoyxhsqzhe.jpg,00925960627fa_sunapqwnqzxlsfvgsjm.jpg,00507940519fa.jpg,sunacacflqoyxhsqzhe.jpg,00925960627fa.jpg,sunapqwnqzxlsfvgsjm.jpg,,,<,Face,,,,,1,,,,,,,x
1,18,Presentation,0,00097931230fa_sunaajayojuslbbnneg.jpg,01009960627fa_sunbxzweleltykebgan.jpg,00097931230fa.jpg,sunaajayojuslbbnneg.jpg,01009960627fa.jpg,sunbxzweleltykebgan.jpg,,,<,Face,,,,,1,,,,,,,o
2,18,Presentation,0,00089931230fa_sunaagcpoejbuzyvddd.jpg,00498960627fa_sunabzjxlmkwnwzimua.jpg,00089931230fa.jpg,sunaagcpoejbuzyvddd.jpg,00498960627fa.jpg,sunabzjxlmkwnwzimua.jpg,,,<,Face,,,,,1,,,,,,,x
3,18,Presentation,0,00902960530fa_sunanaacmmosxrfwmvl.jpg,00933960627fa_sunapwjkcxdaeqehfql.jpg,00902960530fa.jpg,sunanaacmmosxrfwmvl.jpg,00933960627fa.jpg,sunapwjkcxdaeqehfql.jpg,,,<,Face,,,,,1,,,,,,,o
4,18,Presentation,0,00620940928fa_sunacypmnujalygkunp.jpg,00760960620fa_sunaffstbkappprzxnv.jpg,00620940928fa.jpg,sunacypmnujalygkunp.jpg,00760960620fa.jpg,sunaffstbkappprzxnv.jpg,,,<,Face,,,,,1,,,,,,,x
5,18,Presentation,0,00069931230fb_sunaaeowapdkwzqpgqr.jpg,00877960530fa_sunajxpkuhbizeveguy.jpg,00069931230fb.jpg,sunaaeowapdkwzqpgqr.jpg,00877960530fa.jpg,sunajxpkuhbizeveguy.jpg,,,<,Face,,,,,1,,,,,,,x
6,18,Presentation,0,00101931230fb_sunaajqmsaavkmgbsth.jpg,00909960530_sunaobtizabegtwfwul.jpg,00101931230fb.jpg,sunaajqmsaavkmgbsth.jpg,00909960530.jpg,sunaobtizabegtwfwul.jpg,,,<,Face,,,,,1,,,,,,,x
7,18,Presentation,0,00262940128fa_sunabizydfotqddlnjp.jpg,00294940422fb_sunabrlndkruqokhury.jpg,00262940128fa.jpg,sunabizydfotqddlnjp.jpg,00294940422fb.jpg,sunabrlndkruqokhury.jpg,,,<,Face,,,,,1,,,,,,,o
8,18,Presentation,0,00796941205fa_sunaguchqqnrtodtezq.jpg,00983960627fa_sunbfyvfqiimvdaxlqn.jpg,00796941205fa.jpg,sunaguchqqnrtodtezq.jpg,00983960627fa.jpg,sunbfyvfqiimvdaxlqn.jpg,,,<,Face,,,,,1,,,,,,,x
9,18,Presentation,0,00822940307fa_sunahqrxievfeusiqlt.jpg,00967960627fa_sunbaejotfklekvpxcz.jpg,00822940307fa.jpg,sunahqrxievfeusiqlt.jpg,00967960627fa.jpg,sunbaejotfklekvpxcz.jpg,,,<,Face,,,,,1,,,,,,,o
10,18,Memory,0,,,,,,,00262940128fa.jpg,,,,,,,,,,,,,,,
11,18,Memory,0,,,,,,,sunabizydfotqddlnjp.jpg,,,,,,,,,,,,,,,
12,18,Memory,0,,,,,,,sunaajayojuslbbnneg.jpg,,,,,,,,,,,,,,,
13,18,Memory,0,,,,,,,00720960620fa.jpg,,,,,,,,,,,,,,,
14,18,Memory,0,,,,,,,00803941205fa.jpg,,,,,,,,,,,,,,,
15,18,Memory,0,,,,,,,sunaecpkgfewqqreqwe.jpg,,,,,,,,,,,,,,,
16,18,Memory,0,,,,,,,sunaampvucecsfbdafn.jpg,,,,,,,,,,,,,,,
17,18,Memory,0,,,,,,,sunbxzweleltykebgan.jpg,,,,,,,,,,,,,,,
18,18,Memory,0,,,,,,,sunacypmnujalygkunp.jpg,,,,,,,,,,,,,,,
19,18,Memory,0,,,,,,,00650941031fa.jpg,,,,,,,,,,,,,,,
20,18,Memory,0,,,,,,,00630941031fa.jpg,,,,,,,,,,,,,,,
21,18,Memory,0,,,,,,,00983960627fa.jpg,,,,,,,,,,,,,,,
22,18,Memory,0,,,,,,,sunagvxkjokqimstxpe.jpg,,,,,,,,,,,,,,,
23,18,Memory,0,,,,,,,00788941205fa.jpg,,,,,,,,,,,,,,,
24,18,Memory,0,,,,,,,sunadikxpvqeabxrvvc.jpg,,,,,,,,,,,,,,,
25,18,Memory,0,,,,,,,00069931230fb.jpg,,,,,,,,,,,,,,,
26,18,Memory,0,,,,,,,00507940519fa.jpg,,,,,,,,,,,,,,,
27,18,Memory,0,,,,,,,sunaaeowapdkwzqpgqr.jpg,,,,,,,,,,,,,,,
28,18,Memory,0,,,,,,,00097931230fa.jpg,,,,,,,,,,,,,,,
29,18,Memory,0,,,,,,,sunaiwfobocrruqznsv.jpg,,,,,,,,,,,,,,,
30,18,Memory,0,,,,,,,sunacacflqoyxhsqzhe.jpg,,,,,,,,,,,,,,,
31,18,Memory,0,,,,,,,00127931230fa.jpg,,,,,,,,,,,,,,,
32,18,Memory,0,,,,,,,00967960627fa.jpg,,,,,,,,,,,,,,,
33,18,Memory,0,,,,,,,sunbfyvfqiimvdaxlqn.jpg,,,,,,,,,,,,,,,
34,18,Memory,0,,,,,,,01009960627fa.jpg,,,,,,,,,,,,,,,
35,18,Memory,0,,,,,,,sunaffstbkappprzxnv.jpg,,,,,,,,,,,,,,,
36,18,Memory,0,,,,,,,00857940307fa.jpg,,,,,,,,,,,,,,,
37,18,Memory,0,,,,,,,00797960620fa.jpg,,,,,,,,,,,,,,,
38,18,Memory,0,,,,,,,sunbaejotfklekvpxcz.jpg,,,,,,,,,,,,,,,
39,18,Memory,0,,,,,,,sunaatpkocdkocwxpkb.jpg,,,,,,,,,,,,,,,
40,18,Memory,0,,,,,,,sunafhmnhsdurlvddpw.jpg,,,,,,,,,,,,,,,
41,18,Memory,0,,,,,,,00760960620fa.jpg,,,,,,,,,,,,,,,
42,18,Memory,0,,,,,,,sunagufzbeteqdjxais.jpg,,,,,,,,,,,,,,,
43,18,Memory,0,,,,,,,00763941205fa.jpg,,,,,,,,,,,,,,,
44,18,Memory,0,,,,,,,00498960627fa.jpg,,,,,,,,,,,,,,,
45,18,Memory,0,,,,,,,sunagountlxpzkytsmp.jpg,,,,,,,,,,,,,,,
46,18,Memory,0,,,,,,,sunadakkdovnuzlycvp.jpg,,,,,,,,,,,,,,,
47,18,Memory,0,,,,,,,00620940928fa.jpg,,,,,,,,,,,,,,,
48,18,Memory,0,,,,,,,sunabzjxlmkwnwzimua.jpg,,,,,,,,,,,,,,,
49,18,Memory,0,,,,,,,00147931230fb.jpg,,,,,,,,,,,,,,,
50,18,Presentation,1,00815941205fa_sunahiphsekjihkafsl.jpg,00136931230fb_sunaanptmsknhirrzed.jpg,00815941205fa.jpg,sunahiphsekjihkafsl.jpg,00136931230fb.jpg,sunaanptmsknhirrzed.jpg,,,>,Face,,,,,1,,,,,,,o
51,18,Presentation,1,00947960627fa_sunasmmcxdddtmtazwx.jpg,00780960530fa_sunagetqixeypsysbpn.jpg,00947960627fa.jpg,sunasmmcxdddtmtazwx.jpg,00780960530fa.jpg,sunagetqixeypsysbpn.jpg,,,>,Face,,,,,1,,,,,,,x
52,18,Presentation,1,00768941205fa_sunafkmnlytenlsywia.jpg,00799941205fa_sunagutjvdvnhxejerz.jpg,00768941205fa.jpg,sunafkmnlytenlsywia.jpg,00799941205fa.jpg,sunagutjvdvnhxejerz.jpg,,,>,Face,,,,,1,,,,,,,o
53,18,Presentation,1,00913960530fa_sunaooffzffbhcpirmm.jpg,00073931230fa_sunaafbmtoniaasysgu.jpg,00913960530fa.jpg,sunaooffzffbhcpirmm.jpg,00073931230fa.jpg,sunaafbmtoniaasysgu.jpg,,,>,Face,,,,,1,,,,,,,x
54,18,Presentation,1,00123931230fb_sunaalcrrdbjgdztbiz.jpg,00919960620fa_sunapmfmzadmosuogaz.jpg,00123931230fb.jpg,sunaalcrrdbjgdztbiz.jpg,00919960620fa.jpg,sunapmfmzadmosuogaz.jpg,,,>,Face,,,,,1,,,,,,,o
55,18,Presentation,1,00809960620fa_sunahbvlpavurqoxdeq.jpg,01000960627fa_sunbvzmgrdvaakxusbu.jpg,00809960620fa.jpg,sunahbvlpavurqoxdeq.jpg,01000960627fa.jpg,sunbvzmgrdvaakxusbu.jpg,,,>,Face,,,,,1,,,,,,,x
56,18,Presentation,1,00634940928fa_sunadcphrizvfpljiqt.jpg,00834940307fa_sunaibnpvhkdpdnzcnz.jpg,00634940928fa.jpg,sunadcphrizvfpljiqt.jpg,00834940307fa.jpg,sunaibnpvhkdpdnzcnz.jpg,,,>,Face,,,,,1,,,,,,,x
57,18,Presentation,1,00267940128fb_sunablfqiwfqomjarht.jpg,01005960627fa_sunbwyuesflwdpqtgoy.jpg,00267940128fb.jpg,sunablfqiwfqomjarht.jpg,01005960627fa.jpg,sunbwyuesflwdpqtgoy.jpg,,,>,Face,,,,,1,,,,,,,x
58,18,Presentation,1,00270940422fb_sunabllobxadqcyttej.jpg,00076931230fa_sunaafewhewbxmjiurz.jpg,00270940422fb.jpg,sunabllobxadqcyttej.jpg,00076931230fa.jpg,sunaafewhewbxmjiurz.jpg,,,>,Face,,,,,1,,,,,,,o
59,18,Presentation,1,00090931230fa_sunaahedjlmtqekgyvj.jpg,00957960627fa_sunavhxgmgrqsaptynb.jpg,00090931230fa.jpg,sunaahedjlmtqekgyvj.jpg,00957960627fa.jpg,sunavhxgmgrqsaptynb.jpg,,,>,Face,,,,,1,,,,,,,x
60,18,Memory,1,,,,,,,sunacsaovnjezqwbykf.jpg,,,,,,,,,,,,,,,
61,18,Memory,1,,,,,,,sunaibnpvhkdpdnzcnz.jpg,,,,,,,,,,,,,,,
62,18,Memory,1,,,,,,,sunaalcrrdbjgdztbiz.jpg,,,,,,,,,,,,,,,
63,18,Memory,1,,,,,,,sunbasypfgzjtomktmu.jpg,,,,,,,,,,,,,,,
64,18,Memory,1,,,,,,,00211940128fa.jpg,,,,,,,,,,,,,,,
65,18,Memory,1,,,,,,,00076931230fa.jpg,,,,,,,,,,,,,,,
66,18,Memory,1,,,,,,,00970960627fa.jpg,,,,,,,,,,,,,,,
67,18,Memory,1,,,,,,,00834940307fa.jpg,,,,,,,,,,,,,,,
68,18,Memory,1,,,,,,,00564941031fa.jpg,,,,,,,,,,,,,,,
69,18,Memory,1,,,,,,,sunacxtcahkymosigud.jpg,,,,,,,,,,,,,,,
70,18,Memory,1,,,,,,,00221940128fa.jpg,,,,,,,,,,,,,,,
71,18,Memory,1,,,,,,,sunbvzmgrdvaakxusbu.jpg,,,,,,,,,,,,,,,
72,18,Memory,1,,,,,,,00929960627fa.jpg,,,,,,,,,,,,,,,
73,18,Memory,1,,,,,,,00809960620fa.jpg,,,,,,,,,,,,,,,
74,18,Memory,1,,,,,,,sunagutjvdvnhxejerz.jpg,,,,,,,,,,,,,,,
75,18,Memory,1,,,,,,,00276940422fa.jpg,,,,,,,,,,,,,,,
76,18,Memory,1,,,,,,,sunahiphsekjihkafsl.jpg,,,,,,,,,,,,,,,
77,18,Memory,1,,,,,,,00571940928fa.jpg,,,,,,,,,,,,,,,
78,18,Memory,1,,,,,,,sunagetqixeypsysbpn.jpg,,,,,,,,,,,,,,,
79,18,Memory,1,,,,,,,00761960627fa.jpg,,,,,,,,,,,,,,,
80,18,Memory,1,,,,,,,00947960627fa.jpg,,,,,,,,,,,,,,,
81,18,Memory,1,,,,,,,sunacuatpqpqhyjhjqk.jpg,,,,,,,,,,,,,,,
82,18,Memory,1,,,,,,,sunbtpilbhhbmhmeuzq.jpg,,,,,,,,,,,,,,,
83,18,Memory,1,,,,,,,sunahbvlpavurqoxdeq.jpg,,,,,,,,,,,,,,,
84,18,Memory,1,,,,,,,00780960530fa.jpg,,,,,,,,,,,,,,,
85,18,Memory,1,,,,,,,sunabcfpwlpolnutyju.jpg,,,,,,,,,,,,,,,
86,18,Memory,1,,,,,,,sunaahedjlmtqekgyvj.jpg,,,,,,,,,,,,,,,
87,18,Memory,1,,,,,,,00123931230fb.jpg,,,,,,,,,,,,,,,
88,18,Memory,1,,,,,,,00090931230fa.jpg,,,,,,,,,,,,,,,
89,18,Memory,1,,,,,,,00598941031fa.jpg,,,,,,,,,,,,,,,
90,18,Memory,1,,,,,,,01000960627fa.jpg,,,,,,,,,,,,,,,
91,18,Memory,1,,,,,,,00997960627fa.jpg,,,,,,,,,,,,,,,
92,18,Memory,1,,,,,,,sunafgdqbclkwfocdhg.jpg,,,,,,,,,,,,,,,
93,18,Memory,1,,,,,,,sunasmmcxdddtmtazwx.jpg,,,,,,,,,,,,,,,
94,18,Memory,1,,,,,,,sunaafewhewbxmjiurz.jpg,,,,,,,,,,,,,,,
95,18,Memory,1,,,,,,,00815941205fa.jpg,,,,,,,,,,,,,,,
96,18,Memory,1,,,,,,,sunabmytpyhsgigllxu.jpg,,,,,,,,,,,,,,,
97,18,Memory,1,,,,,,,sunaprnrbmgkomdbchr.jpg,,,,,,,,,,,,,,,
98,18,Memory,1,,,,,,,sunabasphceswhwwqvv.jpg,,,,,,,,,,,,,,,
99,18,Memory,1,,,,,,,00799941205fa.jpg,,,,,,,,,,,,,,,
100,18,Presentation,2,00965960627fa_sunaydywdmvlfddbxbk.jpg,00841940307fa_sunaisiwfgppimtnmxl.jpg,00965960627fa.jpg,sunaydywdmvlfddbxbk.jpg,00841940307fa.jpg,sunaisiwfgppimtnmxl.jpg,,,<,Place,,,,,1,,,,,,,o
101,18,Presentation,2,00115931230fa_sunaakmxzhuceuiryah.jpg,00921960627fa_sunapqkpqdfvxlbqwyo.jpg,00115931230fa.jpg,sunaakmxzhuceuiryah.jpg,00921960627fa.jpg,sunapqkpqdfvxlbqwyo.jpg,,,<,Place,,,,,1,,,,,,,o
102,18,Presentation,2,00675941121fa_sunadoxcchtmsxewsau.jpg,00723941201fa_sunaedtgwjvvziytspa.jpg,00675941121fa.jpg,sunadoxcchtmsxewsau.jpg,00723941201fa.jpg,sunaedtgwjvvziytspa.jpg,,,<,Place,,,,,1,,,,,,,o
103,18,Presentation,2,00977960627fa_sunbbxkanhzjgbwyxqs.jpg,00557940519fa_sunachtuarilwyqnvjx.jpg,00977960627fa.jpg,sunbbxkanhzjgbwyxqs.jpg,00557940519fa.jpg,sunachtuarilwyqnvjx.jpg,,,<,Place,,,,,1,,,,,,,x
104,18,Presentation,2,00968960627fa_sunbagfpovqwbuexqdn.jpg,00065931230fb_sunaaemixhfquhnxxlm.jpg,00968960627fa.jpg,sunbagfpovqwbuexqdn.jpg,00065931230fb.jpg,sunaaemixhfquhnxxlm.jpg,,,<,Place,,,,,1,,,,,,,x
105,18,Presentation,2,01004960627fa_sunbwtlihsuptkrckid.jpg,00209940128fb_sunabaergayifsgacxt.jpg,01004960627fa.jpg,sunbwtlihsuptkrckid.jpg,00209940128fb.jpg,sunabaergayifsgacxt.jpg,,,<,Place,,,,,1,,,,,,,o
106,18,Presentation,2,00807941205fa_sunahawfngukizslzsd.jpg,00745941205fa_sunaeouogqolxvggaoq.jpg,00807941205fa.jpg,sunahawfngukizslzsd.jpg,00745941205fa.jpg,sunaeouogqolxvggaoq.jpg,,,<,Place,,,,,0,,,,,,,x
107,18,Presentation,2,00266940128fb_sunabkngeblodihjvbk.jpg,00880960530fa_sunakmnfgklupjijsgf.jpg,00266940128fb.jpg,sunabkngeblodihjvbk.jpg,00880960530fa.jpg,sunakmnfgklupjijsgf.jpg,,,<,Place,,,,,1,,,,,,,o
108,18,Presentation,2,00963960627fa_sunayaepykrqvenaqqy.jpg,00750941201fa_sunaeuzwggvibufclwf.jpg,00963960627fa.jpg,sunayaepykrqvenaqqy.jpg,00750941201fa.jpg,sunaeuzwggvibufclwf.jpg,,,<,Place,,,,,1,,,,,,,o
109,18,Presentation,2,00847940307fa_sunaivdjruhkrfywfed.jpg,00792941205fa_sunagsiwrmuixqgdimb.jpg,00847940307fa.jpg,sunaivdjruhkrfywfed.jpg,00792941205fa.jpg,sunagsiwrmuixqgdimb.jpg,,,<,Place,,,,,1,,,,,,,o
110,18,Memory,2,,,,,,,00807941205fa.jpg,,,,,,,,,,,,,,,
111,18,Memory,2,,,,,,,sunayaepykrqvenaqqy.jpg,,,,,,,,,,,,,,,
112,18,Memory,2,,,,,,,00557940519fa.jpg,,,,,,,,,,,,,,,
113,18,Memory,2,,,,,,,00977960627fa.jpg,,,,,,,,,,,,,,,
114,18,Memory,2,,,,,,,00880960530fa.jpg,,,,,,,,,,,,,,,
115,18,Memory,2,,,,,,,00185940422fb.jpg,,,,,,,,,,,,,,,
116,18,Memory,2,,,,,,,sunbddbivbptlrlauhy.jpg,,,,,,,,,,,,,,,
117,18,Memory,2,,,,,,,00908960530fa.jpg,,,,,,,,,,,,,,,
118,18,Memory,2,,,,,,,00742941201fa.jpg,,,,,,,,,,,,,,,
119,18,Memory,2,,,,,,,sunaqyylsngywqzwfmx.jpg,,,,,,,,,,,,,,,
120,18,Memory,2,,,,,,,00115931230fa.jpg,,,,,,,,,,,,,,,
121,18,Memory,2,,,,,,,sunagsiwrmuixqgdimb.jpg,,,,,,,,,,,,,,,
122,18,Memory,2,,,,,,,00971960627fa.jpg,,,,,,,,,,,,,,,
123,18,Memory,2,,,,,,,00978960627fa.jpg,,,,,,,,,,,,,,,
124,18,Memory,2,,,,,,,sunaawqdbpihmlbwyyn.jpg,,,,,,,,,,,,,,,
125,18,Memory,2,,,,,,,00481940519fa.jpg,,,,,,,,,,,,,,,
126,18,Memory,2,,,,,,,00750941201fa.jpg,,,,,,,,,,,,,,,
127,18,Memory,2,,,,,,,sunaakmxzhuceuiryah.jpg,,,,,,,,,,,,,,,
128,18,Memory,2,,,,,,,sunaenwuebvlpdmntju.jpg,,,,,,,,,,,,,,,
129,18,Memory,2,,,,,,,00065931230fb.jpg,,,,,,,,,,,,,,,
130,18,Memory,2,,,,,,,00878960530fa.jpg,,,,,,,,,,,,,,,
131,18,Memory,2,,,,,,,00963960627fa.jpg,,,,,,,,,,,,,,,
132,18,Memory,2,,,,,,,sunaeuzwggvibufclwf.jpg,,,,,,,,,,,,,,,
133,18,Memory,2,,,,,,,sunabxsuqbleluwczoy.jpg,,,,,,,,,,,,,,,
134,18,Memory,2,,,,,,,sunaaftlyfudyzuhqzf.jpg,,,,,,,,,,,,,,,
135,18,Memory,2,,,,,,,sunadsgmtznewzyasnk.jpg,,,,,,,,,,,,,,,
136,18,Memory,2,,,,,,,00700941121fa.jpg,,,,,,,,,,,,,,,
137,18,Memory,2,,,,,,,sunachtuarilwyqnvjx.jpg,,,,,,,,,,,,,,,
138,18,Memory,2,,,,,,,sunaaemixhfquhnxxlm.jpg,,,,,,,,,,,,,,,
139,18,Memory,2,,,,,,,sunakmnfgklupjijsgf.jpg,,,,,,,,,,,,,,,
140,18,Memory,2,,,,,,,sunbbxkanhzjgbwyxqs.jpg,,,,,,,,,,,,,,,
141,18,Memory,2,,,,,,,sunbbegcweqnetpdlrh.jpg,,,,,,,,,,,,,,,
142,18,Memory,2,,,,,,,00938960627fa.jpg,,,,,,,,,,,,,,,
143,18,Memory,2,,,,,,,sunanwjjyqqwzqrqagd.jpg,,,,,,,,,,,,,,,
144,18,Memory,2,,,,,,,00081941031fa.jpg,,,,,,,,,,,,,,,
145,18,Memory,2,,,,,,,sunahawfngukizslzsd.jpg,,,,,,,,,,,,,,,
146,18,Memory,2,,,,,,,00847940307fa.jpg,,,,,,,,,,,,,,,
147,18,Memory,2,,,,,,,sunaivdjruhkrfywfed.jpg,,,,,,,,,,,,,,,
148,18,Memory,2,,,,,,,00792941205fa.jpg,,,,,,,,,,,,,,,
149,18,Memory,2,,,,,,,sunakgbnzxmfohgehnu.jpg,,,,,,,,,,,,,,,
150,18,Presentation,3,00108960530fa_sunaajtnvzzpsjdzres.jpg,00811960530fa_sunahedfrhtcwpneund.jpg,00108960530fa.jpg,sunaajtnvzzpsjdzres.jpg,00811960530fa.jpg,sunahedfrhtcwpneund.jpg,,,<,Face,,,,,1,,,,,,,o
151,18,Presentation,3,00866940307fa_sunajbwkywmsqkldfml.jpg,00882960530fa_sunaknlirqjqiwbbeeg.jpg,00866940307fa.jpg,sunajbwkywmsqkldfml.jpg,00882960530fa.jpg,sunaknlirqjqiwbbeeg.jpg,,,<,Face,,,,,1,,,,,,,x
152,18,Presentation,3,00559940519fa_sunacjkmnpawfzbyvae.jpg,00280940422fb_sunabohxbskznglnrhv.jpg,00559940519fa.jpg,sunacjkmnpawfzbyvae.jpg,00280940422fb.jpg,sunabohxbskznglnrhv.jpg,,,<,Face,,,,,1,,,,,,,x
153,18,Presentation,3,00719960620fa_sunadzuvtmtmgupotmf.jpg,00705960530fa_sunaduslxfzlbxlllnz.jpg,00719960620fa.jpg,sunadzuvtmtmgupotmf.jpg,00705960530fa.jpg,sunaduslxfzlbxlllnz.jpg,,,<,Face,,,,,0,,,,,,,x
154,18,Presentation,3,00972960627fa_sunbbfqwjpdxniyhies.jpg,00581940928fa_sunacvzhvcksnwqcqbw.jpg,00972960627fa.jpg,sunbbfqwjpdxniyhies.jpg,00581940928fa.jpg,sunacvzhvcksnwqcqbw.jpg,,,<,Face,,,,,1,,,,,,,x
155,18,Presentation,3,00776941205fa_sunafxokyavhgptyfye.jpg,00944960627fa_sunasbbntuiheekqyaq.jpg,00776941205fa.jpg,sunafxokyavhgptyfye.jpg,00944960627fa.jpg,sunasbbntuiheekqyaq.jpg,,,<,Face,,,,,1,,,,,,,o
156,18,Presentation,3,00126931230fb_sunaamdjwemxpmmtypi.jpg,00860940307fa_sunaizeyhvjzknwjudw.jpg,00126931230fb.jpg,sunaamdjwemxpmmtypi.jpg,00860940307fa.jpg,sunaizeyhvjzknwjudw.jpg,,,<,Face,,,,,1,,,,,,,x
157,18,Presentation,3,00752960620fa_sunafbwnojpqeyzssoe.jpg,00973960627fa_sunbbgtoeuzierkkajt.jpg,00752960620fa.jpg,sunafbwnojpqeyzssoe.jpg,00973960627fa.jpg,sunbbgtoeuzierkkajt.jpg,,,<,Face,,,,,1,,,,,,,o
158,18,Presentation,3,00774941201fa_sunafvtpfczkzopbgue.jpg,00719941201fa_sunadvithllcgmfxsrn.jpg,00774941201fa.jpg,sunafvtpfczkzopbgue.jpg,00719941201fa.jpg,sunadvithllcgmfxsrn.jpg,,,<,Face,,,,,1,,,,,,,o
159,18,Presentation,3,00762941201fa_sunafgzgbisbopcyslr.jpg,00133931230fa_sunaanlwnpqndclffxt.jpg,00762941201fa.jpg,sunafgzgbisbopcyslr.jpg,00133931230fa.jpg,sunaanlwnpqndclffxt.jpg,,,<,Face,,,,,1,,,,,,,o
160,18,Memory,3,,,,,,,sunabcuurugvxwparpk.jpg,,,,,,,,,,,,,,,
161,18,Memory,3,,,,,,,00130931230fa.jpg,,,,,,,,,,,,,,,
162,18,Memory,3,,,,,,,00559940519fa.jpg,,,,,,,,,,,,,,,
163,18,Memory,3,,,,,,,sunafvtpfczkzopbgue.jpg,,,,,,,,,,,,,,,
164,18,Memory,3,,,,,,,00242940128fa.jpg,,,,,,,,,,,,,,,
165,18,Memory,3,,,,,,,sunaajuzribjrizdshh.jpg,,,,,,,,,,,,,,,
166,18,Memory,3,,,,,,,sunadvithllcgmfxsrn.jpg,,,,,,,,,,,,,,,
167,18,Memory,3,,,,,,,sunaknlirqjqiwbbeeg.jpg,,,,,,,,,,,,,,,
168,18,Memory,3,,,,,,,00944960627fa.jpg,,,,,,,,,,,,,,,
169,18,Memory,3,,,,,,,sunaizeyhvjzknwjudw.jpg,,,,,,,,,,,,,,,
170,18,Memory,3,,,,,,,00694941121fa.jpg,,,,,,,,,,,,,,,
171,18,Memory,3,,,,,,,sunaajtnvzzpsjdzres.jpg,,,,,,,,,,,,,,,
172,18,Memory,3,,,,,,,sunadrmfzmstgdjdcod.jpg,,,,,,,,,,,,,,,
173,18,Memory,3,,,,,,,00895960530fa.jpg,,,,,,,,,,,,,,,
174,18,Memory,3,,,,,,,sunaemcowdozyphwknd.jpg,,,,,,,,,,,,,,,
175,18,Memory,3,,,,,,,sunacfdkbsrughwqwtt.jpg,,,,,,,,,,,,,,,
176,18,Memory,3,,,,,,,sunaezuszgtxnmsxdbk.jpg,,,,,,,,,,,,,,,
177,18,Memory,3,,,,,,,00773960620fa.jpg,,,,,,,,,,,,,,,
178,18,Memory,3,,,,,,,00751960620fa.jpg,,,,,,,,,,,,,,,
179,18,Memory,3,,,,,,,00109931230fa.jpg,,,,,,,,,,,,,,,
180,18,Memory,3,,,,,,,00973960627fa.jpg,,,,,,,,,,,,,,,
181,18,Memory,3,,,,,,,00554940519fa.jpg,,,,,,,,,,,,,,,
182,18,Memory,3,,,,,,,sunbbgtoeuzierkkajt.jpg,,,,,,,,,,,,,,,
183,18,Memory,3,,,,,,,sunamczizlzavhzhpay.jpg,,,,,,,,,,,,,,,
184,18,Memory,3,,,,,,,sunaamvxnvouicstkjb.jpg,,,,,,,,,,,,,,,
185,18,Memory,3,,,,,,,sunaamsdyakblkfoydx.jpg,,,,,,,,,,,,,,,
186,18,Memory,3,,,,,,,sunafgzgbisbopcyslr.jpg,,,,,,,,,,,,,,,
187,18,Memory,3,,,,,,,sunadzuvtmtmgupotmf.jpg,,,,,,,,,,,,,,,
188,18,Memory,3,,,,,,,00882960530fa.jpg,,,,,,,,,,,,,,,
189,18,Memory,3,,,,,,,00719941201fa.jpg,,,,,,,,,,,,,,,
190,18,Memory,3,,,,,,,00741941201fa.jpg,,,,,,,,,,,,,,,
191,18,Memory,3,,,,,,,sunacjkmnpawfzbyvae.jpg,,,,,,,,,,,,,,,
192,18,Memory,3,,,,,,,00108960530fa.jpg,,,,,,,,,,,,,,,
193,18,Memory,3,,,,,,,sunafvsxtzaizojicxx.jpg,,,,,,,,,,,,,,,
194,18,Memory,3,,,,,,,sunasbbntuiheekqyaq.jpg,,,,,,,,,,,,,,,
195,18,Memory,3,,,,,,,00774941201fa.jpg,,,,,,,,,,,,,,,
196,18,Memory,3,,,,,,,00129931230fb.jpg,,,,,,,,,,,,,,,
197,18,Memory,3,,,,,,,00719960620fa.jpg,,,,,,,,,,,,,,,
198,18,Memory,3,,,,,,,00762941201fa.jpg,,,,,,,,,,,,,,,
199,18,Memory,3,,,,,,,00860940307fa.jpg,,,,,,,,,,,,,,,
200,18,Presentation,4,00598940928fa_sunacxeheuiigkcgquf.jpg,00296940422fa_sunabrwnslxalcohfre.jpg,00598940928fa.jpg,sunacxeheuiigkcgquf.jpg,00296940422fa.jpg,sunabrwnslxalcohfre.jpg,,,>,Place,,,,,1,,,,,,,o
201,18,Presentation,4,00848940307fa_sunaivdylrawbmhryfp.jpg,00543940519fa_sunacepzfrmtkiqonpy.jpg,00848940307fa.jpg,sunaivdylrawbmhryfp.jpg,00543940519fa.jpg,sunacepzfrmtkiqonpy.jpg,,,>,Place,,,,,1,,,,,,,o
202,18,Presentation,4,00906960530fa_sunantryfbloeaomfta.jpg,00263940128fb_sunabjuovqvyfuzvqwt.jpg,00906960530fa.jpg,sunantryfbloeaomfta.jpg,00263940128fb.jpg,sunabjuovqvyfuzvqwt.jpg,,,>,Place,,,,,1,,,,,,,x
203,18,Presentation,4,00158931230fb_sunaavchcbptaerhcfy.jpg,01007960627fa_sunbxarcshsnqsefemx.jpg,00158931230fb.jpg,sunaavchcbptaerhcfy.jpg,01007960627fa.jpg,sunbxarcshsnqsefemx.jpg,,,>,Place,,,,,1,,,,,,,x
204,18,Presentation,4,00939960627fa_sunarceibpcyacbmfga.jpg,00630940928fa_sunaczwgyukesaajxnx.jpg,00939960627fa.jpg,sunarceibpcyacbmfga.jpg,00630940928fa.jpg,sunaczwgyukesaajxnx.jpg,,,>,Place,,,,,1,,,,,,,o
205,18,Presentation,4,00727941205fa_sunaeisnjeetzmkbuad.jpg,00777941205fa_sunagcinxkccdtrjmlv.jpg,00727941205fa.jpg,sunaeisnjeetzmkbuad.jpg,00777941205fa.jpg,sunagcinxkccdtrjmlv.jpg,,,>,Place,,,,,1,,,,,,,o
206,18,Presentation,4,00198940128fb_sunaazezcsunmhttzxz.jpg,00869940307fa_sunajoveqhiprwqgoco.jpg,00198940128fb.jpg,sunaazezcsunmhttzxz.jpg,00869940307fa.jpg,sunajoveqhiprwqgoco.jpg,,,>,Place,,,,,1,,,,,,,x
207,18,Presentation,4,00062931230fb_sunaaelotvjgibjtjhs.jpg,01207940128fa_sundbixjudsgeuuehrn.jpg,00062931230fb.jpg,sunaaelotvjgibjtjhs.jpg,01207940128fa.jpg,sundbixjudsgeuuehrn.jpg,,,>,Place,,,,,1,,,,,,,o
208,18,Presentation,4,00743941201fa_sunaeoghzrjarigmwua.jpg,00893960530Fa_sunaloffvbvysigxent.jpg,00743941201fa.jpg,sunaeoghzrjarigmwua.jpg,00893960530Fa.jpg,sunaloffvbvysigxent.jpg,,,>,Place,,,,,1,,,,,,,o
209,18,Presentation,4,00885960530fa_sunakwlvxjpddialozd.jpg,00705941205fa_sunadtlxenqqxsyjvix.jpg,00885960530fa.jpg,sunakwlvxjpddialozd.jpg,00705941205fa.jpg,sunadtlxenqqxsyjvix.jpg,,,>,Place,,,,,1,,,,,,,x
210,18,Memory,4,,,,,,,00835940307fa.jpg,,,,,,,,,,,,,,,
211,18,Memory,4,,,,,,,00142931230fb.jpg,,,,,,,,,,,,,,,
212,18,Memory,4,,,,,,,sunaaelotvjgibjtjhs.jpg,,,,,,,,,,,,,,,
213,18,Memory,4,,,,,,,sunaatjesvdupctftmn.jpg,,,,,,,,,,,,,,,
214,18,Memory,4,,,,,,,sunalkiibhqpxfamlll.jpg,,,,,,,,,,,,,,,
215,18,Memory,4,,,,,,,00062931230fb.jpg,,,,,,,,,,,,,,,
216,18,Memory,4,,,,,,,sunaiwduelojtwaqeyh.jpg,,,,,,,,,,,,,,,
217,18,Memory,4,,,,,,,01007960627fa.jpg,,,,,,,,,,,,,,,
218,18,Memory,4,,,,,,,00263940128fb.jpg,,,,,,,,,,,,,,,
219,18,Memory,4,,,,,,,00793941205fa.jpg,,,,,,,,,,,,,,,
220,18,Memory,4,,,,,,,00158931230fb.jpg,,,,,,,,,,,,,,,
221,18,Memory,4,,,,,,,sunalqmfgeadpqsyzpd.jpg,,,,,,,,,,,,,,,
222,18,Memory,4,,,,,,,sunaeoghzrjarigmwua.jpg,,,,,,,,,,,,,,,
223,18,Memory,4,,,,,,,00630940928fa.jpg,,,,,,,,,,,,,,,
224,18,Memory,4,,,,,,,sunaauhozyxzeeqstxi.jpg,,,,,,,,,,,,,,,
225,18,Memory,4,,,,,,,sunbxarcshsnqsefemx.jpg,,,,,,,,,,,,,,,
226,18,Memory,4,,,,,,,sunakwlvxjpddialozd.jpg,,,,,,,,,,,,,,,
227,18,Memory,4,,,,,,,sunaijsqpvodplbwxkf.jpg,,,,,,,,,,,,,,,
228,18,Memory,4,,,,,,,sunaivdylrawbmhryfp.jpg,,,,,,,,,,,,,,,
229,18,Memory,4,,,,,,,00894960620fa.jpg,,,,,,,,,,,,,,,
230,18,Memory,4,,,,,,,sunaczwgyukesaajxnx.jpg,,,,,,,,,,,,,,,
231,18,Memory,4,,,,,,,00153931230fa.jpg,,,,,,,,,,,,,,,
232,18,Memory,4,,,,,,,sunajoveqhiprwqgoco.jpg,,,,,,,,,,,,,,,
233,18,Memory,4,,,,,,,sunaavchcbptaerhcfy.jpg,,,,,,,,,,,,,,,
234,18,Memory,4,,,,,,,00145931230fb.jpg,,,,,,,,,,,,,,,
235,18,Memory,4,,,,,,,00705941205fa.jpg,,,,,,,,,,,,,,,
236,18,Memory,4,,,,,,,00943960627fa.jpg,,,,,,,,,,,,,,,
237,18,Memory,4,,,,,,,sunagtjwilqjvxohypn.jpg,,,,,,,,,,,,,,,
238,18,Memory,4,,,,,,,00827940307fa.jpg,,,,,,,,,,,,,,,
239,18,Memory,4,,,,,,,00854940307fa.jpg,,,,,,,,,,,,,,,
240,18,Memory,4,,,,,,,00869940307fa.jpg,,,,,,,,,,,,,,,
241,18,Memory,4,,,,,,,00891960530fa.jpg,,,,,,,,,,,,,,,
242,18,Memory,4,,,,,,,00885960530fa.jpg,,,,,,,,,,,,,,,
243,18,Memory,4,,,,,,,sunaapxkpvrhpjplsok.jpg,,,,,,,,,,,,,,,
244,18,Memory,4,,,,,,,00848940307fa.jpg,,,,,,,,,,,,,,,
245,18,Memory,4,,,,,,,sunarpsxqkduedrrzyi.jpg,,,,,,,,,,,,,,,
246,18,Memory,4,,,,,,,sunahtfxgsrmkiulnwk.jpg,,,,,,,,,,,,,,,
247,18,Memory,4,,,,,,,00743941201fa.jpg,,,,,,,,,,,,,,,
248,18,Memory,4,,,,,,,sunabjuovqvyfuzvqwt.jpg,,,,,,,,,,,,,,,
249,18,Memory,4,,,,,,,sunadtlxenqqxsyjvix.jpg,,,,,,,,,,,,,,,
250,18,Presentation,5,00149931230fa_sunaauglwmctnkxyird.jpg,00131931230fb_sunaangbuylfvckqqoo.jpg,00149931230fa.jpg,sunaauglwmctnkxyird.jpg,00131931230fb.jpg,sunaangbuylfvckqqoo.jpg,,,<,Place,,,,,1,,,,,,,o
251,18,Presentation,5,00636941031fa_sunaddtdkycxbqlpfqa.jpg,00810941205fa_sunahctntqrunhdxhtb.jpg,00636941031fa.jpg,sunaddtdkycxbqlpfqa.jpg,00810941205fa.jpg,sunahctntqrunhdxhtb.jpg,,,<,Place,,,,,0,,,,,,,o
252,18,Presentation,5,00482940519fa_sunabyfxcxhdebvdyfd.jpg,00805941205fa_sunagwzdbtlixdhgolm.jpg,00482940519fa.jpg,sunabyfxcxhdebvdyfd.jpg,00805941205fa.jpg,sunagwzdbtlixdhgolm.jpg,,,<,Place,,,,,1,,,,,,,x
253,18,Presentation,5,00985960627fa_sunbgklxeqjhdbyfhhy.jpg,00124931230fa_sunaalhlvzmjmitybdn.jpg,00985960627fa.jpg,sunbgklxeqjhdbyfhhy.jpg,00124931230fa.jpg,sunaalhlvzmjmitybdn.jpg,,,<,Place,,,,,1,,,,,,,o
254,18,Presentation,5,00116931230fa_sunaakqepfoeqomfgxf.jpg,00271940422fa_sunabmbnddafmywtjjj.jpg,00116931230fa.jpg,sunaakqepfoeqomfgxf.jpg,00271940422fa.jpg,sunabmbnddafmywtjjj.jpg,,,<,Place,,,,,1,,,,,,,o
255,18,Presentation,5,00794960620fa_sunagtqhhwxjeuxdebe.jpg,00766960620fa_sunafijbgncijwykrnl.jpg,00794960620fa.jpg,sunagtqhhwxjeuxdebe.jpg,00766960620fa.jpg,sunafijbgncijwykrnl.jpg,,,<,Place,,,,,1,,,,,,,o
256,18,Presentation,5,00862940307fa_sunaizgnnplsvajzhkc.jpg,00096931230fa_sunaaiqiqcggrskoqgy.jpg,00862940307fa.jpg,sunaizgnnplsvajzhkc.jpg,00096931230fa.jpg,sunaaiqiqcggrskoqgy.jpg,,,<,Place,,,,,1,,,,,,,x
257,18,Presentation,5,00060931230fa_sunaaehaikpckyjsety.jpg,00874940307fa_sunajtrfunvzdfticna.jpg,00060931230fa.jpg,sunaaehaikpckyjsety.jpg,00874940307fa.jpg,sunajtrfunvzdfticna.jpg,,,<,Place,,,,,1,,,,,,,o
258,18,Presentation,5,00288940422fa_sunabppokiyglaxpcha.jpg,00782941205fa_sunagfvluwixdsozaql.jpg,00288940422fa.jpg,sunabppokiyglaxpcha.jpg,00782941205fa.jpg,sunagfvluwixdsozaql.jpg,,,<,Place,,,,,1,,,,,,,o
259,18,Presentation,5,00955960627fb_sunauburywlkjszngcq.jpg,00305940422fa_sunabtrnbvpppgczjim.jpg,00955960627fb.jpg,sunauburywlkjszngcq.jpg,00305940422fa.jpg,sunabtrnbvpppgczjim.jpg,,,<,Place,,,,,1,,,,,,,x
260,18,Memory,5,,,,,,,sunagfvluwixdsozaql.jpg,,,,,,,,,,,,,,,
261,18,Memory,5,,,,,,,sunagpjzsbltchlwvou.jpg,,,,,,,,,,,,,,,
262,18,Memory,5,,,,,,,sunagcthdfirrcawoic.jpg,,,,,,,,,,,,,,,
263,18,Memory,5,,,,,,,00782941205fa.jpg,,,,,,,,,,,,,,,
264,18,Memory,5,,,,,,,00197940128fa.jpg,,,,,,,,,,,,,,,
265,18,Memory,5,,,,,,,00892960530fa.jpg,,,,,,,,,,,,,,,
266,18,Memory,5,,,,,,,sunaafjszryxyavjzln.jpg,,,,,,,,,,,,,,,
267,18,Memory,5,,,,,,,00271940422fa.jpg,,,,,,,,,,,,,,,
268,18,Memory,5,,,,,,,00116931230fa.jpg,,,,,,,,,,,,,,,
269,18,Memory,5,,,,,,,00060931230fa.jpg,,,,,,,,,,,,,,,
270,18,Memory,5,,,,,,,00805941205fa.jpg,,,,,,,,,,,,,,,
271,18,Memory,5,,,,,,,00131931230fb.jpg,,,,,,,,,,,,,,,
272,18,Memory,5,,,,,,,sunalntxqqadigcletd.jpg,,,,,,,,,,,,,,,
273,18,Memory,5,,,,,,,00868960307fa.jpg,,,,,,,,,,,,,,,
274,18,Memory,5,,,,,,,sunaaheqzstzxuadglu.jpg,,,,,,,,,,,,,,,
275,18,Memory,5,,,,,,,sunaddtdkycxbqlpfqa.jpg,,,,,,,,,,,,,,,
276,18,Memory,5,,,,,,,sunaaylzyqlqrsmfwif.jpg,,,,,,,,,,,,,,,
277,18,Memory,5,,,,,,,00086931230fa.jpg,,,,,,,,,,,,,,,
278,18,Memory,5,,,,,,,sunaaehaikpckyjsety.jpg,,,,,,,,,,,,,,,
279,18,Memory,5,,,,,,,sunagwzdbtlixdhgolm.jpg,,,,,,,,,,,,,,,
280,18,Memory,5,,,,,,,00092931230fa.jpg,,,,,,,,,,,,,,,
281,18,Memory,5,,,,,,,00898960530fa.jpg,,,,,,,,,,,,,,,
282,18,Memory,5,,,,,,,sunaakqepfoeqomfgxf.jpg,,,,,,,,,,,,,,,
283,18,Memory,5,,,,,,,00096931230fa.jpg,,,,,,,,,,,,,,,
284,18,Memory,5,,,,,,,sunabyfxcxhdebvdyfd.jpg,,,,,,,,,,,,,,,
285,18,Memory,5,,,,,,,00789960620fa.jpg,,,,,,,,,,,,,,,
286,18,Memory,5,,,,,,,00482940519fa.jpg,,,,,,,,,,,,,,,
287,18,Memory,5,,,,,,,00985960627fa.jpg,,,,,,,,,,,,,,,
288,18,Memory,5,,,,,,,00636941031fa.jpg,,,,,,,,,,,,,,,
289,18,Memory,5,,,,,,,sunajjxttslobudoqbv.jpg,,,,,,,,,,,,,,,
290,18,Memory,5,,,,,,,sunamkmeblgteyggink.jpg,,,,,,,,,,,,,,,
291,18,Memory,5,,,,,,,sunaafynehyrzpsoaml.jpg,,,,,,,,,,,,,,,
292,18,Memory,5,,,,,,,00080931230fb.jpg,,,,,,,,,,,,,,,
293,18,Memory,5,,,,,,,00790941205fa.jpg,,,,,,,,,,,,,,,
294,18,Memory,5,,,,,,,sunaangbuylfvckqqoo.jpg,,,,,,,,,,,,,,,
295,18,Memory,5,,,,,,,sunagpancjmxqfazssf.jpg,,,,,,,,,,,,,,,
296,18,Memory,5,,,,,,,sunabmbnddafmywtjjj.jpg,,,,,,,,,,,,,,,
297,18,Memory,5,,,,,,,00778941205fa.jpg,,,,,,,,,,,,,,,
298,18,Memory,5,,,,,,,sunaaiqiqcggrskoqgy.jpg,,,,,,,,,,,,,,,
299,18,Memory,5,,,,,,,sunbgklxeqjhdbyfhhy.jpg,,,,,,,,,,,,,,,
300,18,Presentation,6,00061931230fb_sunaaekxzjzrfgtkwjf.jpg,00290940422fa_sunabqowuarvqqcnipn.jpg,00061931230fb.jpg,sunaaekxzjzrfgtkwjf.jpg,00290940422fa.jpg,sunabqowuarvqqcnipn.jpg,,,>,Place,,,,,0,,,,,,,x
301,18,Presentation,6,00990960627fa_sunbpflsdaxnddnwcqi.jpg,00239940128fa_sunabctlikybqabezjv.jpg,00990960627fa.jpg,sunbpflsdaxnddnwcqi.jpg,00239940128fa.jpg,sunabctlikybqabezjv.jpg,,,>,Place,,,,,1,,,,,,,o
302,18,Presentation,6,00112931230fa_sunaakjaacuzulqckgl.jpg,00996960627fa_sunbpvgllfdejxcpjqp.jpg,00112931230fa.jpg,sunaakjaacuzulqckgl.jpg,00996960627fa.jpg,sunbpvgllfdejxcpjqp.jpg,,,>,Place,,,,,1,,,,,,,x
303,18,Presentation,6,00915960620fa_sunapileznnbbmrwoei.jpg,00870940307fa_sunajrgtewnualfcerj.jpg,00915960620fa.jpg,sunapileznnbbmrwoei.jpg,00870940307fa.jpg,sunajrgtewnualfcerj.jpg,,,>,Place,,,,,0,,,,,,,x
304,18,Presentation,6,00771941205fa_sunafowswglhxcsufpo.jpg,00784941205fb_sunagjzcrjvmxzqzljx.jpg,00771941205fa.jpg,sunafowswglhxcsufpo.jpg,00784941205fb.jpg,sunagjzcrjvmxzqzljx.jpg,,,>,Place,,,,,1,,,,,,,x
305,18,Presentation,6,00791941205fa_sunagrmyoovzukhxmlo.jpg,00070940307fa_sunaaeplwsfslcbtojr.jpg,00791941205fa.jpg,sunagrmyoovzukhxmlo.jpg,00070940307fa.jpg,sunaaeplwsfslcbtojr.jpg,,,>,Place,,,,,1,,,,,,,o
306,18,Presentation,6,00936960627fa_sunaqgjuuwvdcyiccjt.jpg,00812941205fa_sunahgtbwgsmtqeodwh.jpg,00936960627fa.jpg,sunaqgjuuwvdcyiccjt.jpg,00812941205fa.jpg,sunahgtbwgsmtqeodwh.jpg,,,>,Place,,,,,1,,,,,,,x
307,18,Presentation,6,00775941205fa_sunafvwfsmqkjrutjta.jpg,00772941201fa_sunafpfpiiujzoesnqg.jpg,00775941205fa.jpg,sunafvwfsmqkjrutjta.jpg,00772941201fa.jpg,sunafpfpiiujzoesnqg.jpg,,,>,Place,,,,,0,,,,,,,x
308,18,Presentation,6,00576941031fa_sunacvjlsylseoghjup.jpg,01011960627fa_sundahdxwmcdluscvot.jpg,00576941031fa.jpg,sunacvjlsylseoghjup.jpg,01011960627fa.jpg,sundahdxwmcdluscvot.jpg,,,>,Place,,,,,1,,,,,,,o
309,18,Presentation,6,00922960627fa_sunapqkyghktgtosuuk.jpg,00903960620fa_sunanainkqdvktzoxyl.jpg,00922960627fa.jpg,sunapqkyghktgtosuuk.jpg,00903960620fa.jpg,sunanainkqdvktzoxyl.jpg,,,>,Place,,,,,0,,,,,,,o
310,18,Memory,6,,,,,,,00775941205fa.jpg,,,,,,,,,,,,,,,
311,18,Memory,6,,,,,,,sunaayehfdqcyxggsej.jpg,,,,,,,,,,,,,,,
312,18,Memory,6,,,,,,,00982960627fa.jpg,,,,,,,,,,,,,,,
313,18,Memory,6,,,,,,,sunagjzcrjvmxzqzljx.jpg,,,,,,,,,,,,,,,
314,18,Memory,6,,,,,,,sunaccdtpgenvcbcbcf.jpg,,,,,,,,,,,,,,,
315,18,Memory,6,,,,,,,sunahgtbwgsmtqeodwh.jpg,,,,,,,,,,,,,,,
316,18,Memory,6,,,,,,,00730960620fa.jpg,,,,,,,,,,,,,,,
317,18,Memory,6,,,,,,,00791941205fa.jpg,,,,,,,,,,,,,,,
318,18,Memory,6,,,,,,,00290940422fa.jpg,,,,,,,,,,,,,,,
319,18,Memory,6,,,,,,,00676941121fa.jpg,,,,,,,,,,,,,,,
320,18,Memory,6,,,,,,,sunafvwfsmqkjrutjta.jpg,,,,,,,,,,,,,,,
321,18,Memory,6,,,,,,,00812941205fa.jpg,,,,,,,,,,,,,,,
322,18,Memory,6,,,,,,,sunbpflsdaxnddnwcqi.jpg,,,,,,,,,,,,,,,
323,18,Memory,6,,,,,,,sunagvprlbprarvgdvj.jpg,,,,,,,,,,,,,,,
324,18,Memory,6,,,,,,,00194940128fb.jpg,,,,,,,,,,,,,,,
325,18,Memory,6,,,,,,,00903960620fa.jpg,,,,,,,,,,,,,,,
326,18,Memory,6,,,,,,,sunabctlikybqabezjv.jpg,,,,,,,,,,,,,,,
327,18,Memory,6,,,,,,,00990960627fa.jpg,,,,,,,,,,,,,,,
328,18,Memory,6,,,,,,,00647941031fa.jpg,,,,,,,,,,,,,,,
329,18,Memory,6,,,,,,,sunaekgzpfilgjxpeyq.jpg,,,,,,,,,,,,,,,
330,18,Memory,6,,,,,,,00922960627fa.jpg,,,,,,,,,,,,,,,
331,18,Memory,6,,,,,,,sunadflbrkckmepztql.jpg,,,,,,,,,,,,,,,
332,18,Memory,6,,,,,,,sunaiycurtqsfkvcaso.jpg,,,,,,,,,,,,,,,
333,18,Memory,6,,,,,,,00989960627fa.jpg,,,,,,,,,,,,,,,
334,18,Memory,6,,,,,,,00915960620fa.jpg,,,,,,,,,,,,,,,
335,18,Memory,6,,,,,,,00784941205fb.jpg,,,,,,,,,,,,,,,
336,18,Memory,6,,,,,,,sunapqkyghktgtosuuk.jpg,,,,,,,,,,,,,,,
337,18,Memory,6,,,,,,,00532960627fa.jpg,,,,,,,,,,,,,,,
338,18,Memory,6,,,,,,,sunabqowuarvqqcnipn.jpg,,,,,,,,,,,,,,,
339,18,Memory,6,,,,,,,sunanmoqeyprjjjfxjt.jpg,,,,,,,,,,,,,,,
340,18,Memory,6,,,,,,,sunanainkqdvktzoxyl.jpg,,,,,,,,,,,,,,,
341,18,Memory,6,,,,,,,sunadpnqovzckyikrjo.jpg,,,,,,,,,,,,,,,
342,18,Memory,6,,,,,,,sunagrmyoovzukhxmlo.jpg,,,,,,,,,,,,,,,
343,18,Memory,6,,,,,,,00801941205fa.jpg,,,,,,,,,,,,,,,
344,18,Memory,6,,,,,,,00859940307fa.jpg,,,,,,,,,,,,,,,
345,18,Memory,6,,,,,,,00905960530fa.jpg,,,,,,,,,,,,,,,
346,18,Memory,6,,,,,,,sunapileznnbbmrwoei.jpg,,,,,,,,,,,,,,,
347,18,Memory,6,,,,,,,sunbesrwkdsffeogeqq.jpg,,,,,,,,,,,,,,,
348,18,Memory,6,,,,,,,00239940128fa.jpg,,,,,,,,,,,,,,,
349,18,Memory,6,,,,,,,sunbondbduabvijnmch.jpg,,,,,,,,,,,,,,,
350,18,Presentation,7,00804960530fa_sunagwswhkvnsmuszlz.jpg,00662941121fa_sunadkazmlajmohnwfl.jpg,00804960530fa.jpg,sunagwswhkvnsmuszlz.jpg,00662941121fa.jpg,sunadkazmlajmohnwfl.jpg,,,>,Face,,,,,1,,,,,,,o
351,18,Presentation,7,00999960627fa_sunbvbrvgbpanfrawft.jpg,00725941201fa_sunaefgzwiramypjvtd.jpg,00999960627fa.jpg,sunbvbrvgbpanfrawft.jpg,00725941201fa.jpg,sunaefgzwiramypjvtd.jpg,,,>,Face,,,,,1,,,,,,,x
352,18,Presentation,7,00138931230fa_sunaapfaivxqoynnwwp.jpg,00144931230fb_sunaathajvxrgptwhoj.jpg,00138931230fa.jpg,sunaapfaivxqoynnwwp.jpg,00144931230fb.jpg,sunaathajvxrgptwhoj.jpg,,,>,Face,,,,,1,,,,,,,x
353,18,Presentation,7,00265940128fb_sunabkmdplkdbvxriff.jpg,00795941205fa_sunagtumacdlmciqamz.jpg,00265940128fb.jpg,sunabkmdplkdbvxriff.jpg,00795941205fa.jpg,sunagtumacdlmciqamz.jpg,,,>,Face,,,,,1,,,,,,,x
354,18,Presentation,7,00670941121fa_sunadochqcucscehsgk.jpg,00663941121fa_sunadnjjzohjhbohlwq.jpg,00670941121fa.jpg,sunadochqcucscehsgk.jpg,00663941121fa.jpg,sunadnjjzohjhbohlwq.jpg,,,>,Face,,,,,1,,,,,,,x
355,18,Presentation,7,00071941031fa_sunaaexqbtdswxrqjvz.jpg,00306940422fa_sunabueyoajufbkraki.jpg,00071941031fa.jpg,sunaaexqbtdswxrqjvz.jpg,00306940422fa.jpg,sunabueyoajufbkraki.jpg,,,>,Face,,,,,1,,,,,,,x
356,18,Presentation,7,00887960530_sunalcrtwiycqobgelp.jpg,00949960627fb_sunasnqkkyhilqkxiqm.jpg,00887960530.jpg,sunalcrtwiycqobgelp.jpg,00949960627fb.jpg,sunasnqkkyhilqkxiqm.jpg,,,>,Face,,,,,0,,,,,,,o
357,18,Presentation,7,00783941205fa_sunagjeesomrwjsfqie.jpg,00961960627fa_sunawotxrevnqvamsfp.jpg,00783941205fa.jpg,sunagjeesomrwjsfqie.jpg,00961960627fa.jpg,sunawotxrevnqvamsfp.jpg,,,>,Face,,,,,1,,,,,,,o
358,18,Presentation,7,00828940307fa_sunahuynahneraqftyz.jpg,00884960530fa_sunakodkcslgqhqlgwl.jpg,00828940307fa.jpg,sunahuynahneraqftyz.jpg,00884960530fa.jpg,sunakodkcslgqhqlgwl.jpg,,,>,Face,,,,,1,,,,,,,x
359,18,Presentation,7,00979960627fa_sunbdycacjfaujxitbw.jpg,00260940128fa_sunabgfhvifeijihhjw.jpg,00979960627fa.jpg,sunbdycacjfaujxitbw.jpg,00260940128fa.jpg,sunabgfhvifeijihhjw.jpg,,,>,Face,,,,,1,,,,,,,x
360,18,Memory,7,,,,,,,01010960627fa.jpg,,,,,,,,,,,,,,,
361,18,Memory,7,,,,,,,00663941121fa.jpg,,,,,,,,,,,,,,,
362,18,Memory,7,,,,,,,sunaazzyhbvqjpmazjq.jpg,,,,,,,,,,,,,,,
363,18,Memory,7,,,,,,,sunbloeoiozwjjsiamp.jpg,,,,,,,,,,,,,,,
364,18,Memory,7,,,,,,,sunaefgzwiramypjvtd.jpg,,,,,,,,,,,,,,,
365,18,Memory,7,,,,,,,sunahuynahneraqftyz.jpg,,,,,,,,,,,,,,,
366,18,Memory,7,,,,,,,00887960530.jpg,,,,,,,,,,,,,,,
367,18,Memory,7,,,,,,,00144931230fb.jpg,,,,,,,,,,,,,,,
368,18,Memory,7,,,,,,,sunabckqabszusgcykj.jpg,,,,,,,,,,,,,,,
369,18,Memory,7,,,,,,,sunaakvmbftkrgqhjun.jpg,,,,,,,,,,,,,,,
370,18,Memory,7,,,,,,,00071941031fa.jpg,,,,,,,,,,,,,,,
371,18,Memory,7,,,,,,,00725941201fa.jpg,,,,,,,,,,,,,,,
372,18,Memory,7,,,,,,,00208940128fa.jpg,,,,,,,,,,,,,,,
373,18,Memory,7,,,,,,,sunakodkcslgqhqlgwl.jpg,,,,,,,,,,,,,,,
374,18,Memory,7,,,,,,,suncnkvbhypnivcohyx.jpg,,,,,,,,,,,,,,,
375,18,Memory,7,,,,,,,00218940128fa.jpg,,,,,,,,,,,,,,,
376,18,Memory,7,,,,,,,00779941205fa.jpg,,,,,,,,,,,,,,,
377,18,Memory,7,,,,,,,sunagwswhkvnsmuszlz.jpg,,,,,,,,,,,,,,,
378,18,Memory,7,,,,,,,00670941121fa.jpg,,,,,,,,,,,,,,,
379,18,Memory,7,,,,,,,sunagdzlvkqtpnfxfcg.jpg,,,,,,,,,,,,,,,
380,18,Memory,7,,,,,,,sunagmhildamktmqjss.jpg,,,,,,,,,,,,,,,
381,18,Memory,7,,,,,,,sunacmpqqfbsvlzinzl.jpg,,,,,,,,,,,,,,,
382,18,Memory,7,,,,,,,00949960627fb.jpg,,,,,,,,,,,,,,,
383,18,Memory,7,,,,,,,00828940307fa.jpg,,,,,,,,,,,,,,,
384,18,Memory,7,,,,,,,sunasnqkkyhilqkxiqm.jpg,,,,,,,,,,,,,,,
385,18,Memory,7,,,,,,,00786941205fa.jpg,,,,,,,,,,,,,,,
386,18,Memory,7,,,,,,,00804960530fa.jpg,,,,,,,,,,,,,,,
387,18,Memory,7,,,,,,,sunaathajvxrgptwhoj.jpg,,,,,,,,,,,,,,,
388,18,Memory,7,,,,,,,sunalcrtwiycqobgelp.jpg,,,,,,,,,,,,,,,
389,18,Memory,7,,,,,,,sunaqsolmfydodnakub.jpg,,,,,,,,,,,,,,,
390,18,Memory,7,,,,,,,00227940128fa.jpg,,,,,,,,,,,,,,,
391,18,Memory,7,,,,,,,sunabbwggenhfbftyvi.jpg,,,,,,,,,,,,,,,
392,18,Memory,7,,,,,,,sunadochqcucscehsgk.jpg,,,,,,,,,,,,,,,
393,18,Memory,7,,,,,,,00884960530fa.jpg,,,,,,,,,,,,,,,
394,18,Memory,7,,,,,,,00937960627fa.jpg,,,,,,,,,,,,,,,
395,18,Memory,7,,,,,,,00119931230fb.jpg,,,,,,,,,,,,,,,
396,18,Memory,7,,,,,,,sunaaexqbtdswxrqjvz.jpg,,,,,,,,,,,,,,,
397,18,Memory,7,,,,,,,sunadnjjzohjhbohlwq.jpg,,,,,,,,,,,,,,,
398,18,Memory,7,,,,,,,00564940928fa.jpg,,,,,,,,,,,,,,,
399,18,Memory,7,,,,,,,00987960627fa.jpg,,,,,,,,,,,,,,,
