,Subject,Trial Type,Run,Cued Composite,Uncued Composite,Cued Face,Cued Place,Uncued Face,Uncued Place,Memory Image,Category,Cued Side,Cued Category,Attention Reaction Time (s),Familiarity Reaction Time (s),Familiarity Rating,Attention Level,Cue Validity,Post Invalid Cue,Pre Invalid Cue,Attention Button,Rating History,Stimulus Onset,Stimulus End,Attention Probe
260,27,Memory,5,,,,,,,sunbasypfgzjtomktmu.jpg,,,,,1.949,2.0,,,,,,,1539802887.750132,1539802889.799093,
261,27,Memory,5,,,,,,,sunaiozxhxgtfrmoagh.jpg,,,,,0.933,3.0,,,,,,,1539802891.079355,1539802893.067553,
262,27,Memory,5,,,,,,,sunablfqiwfqomjarht.jpg,,,,,0.966,2.0,,,,,,,1539802894.330123,1539802896.319895,
263,27,Memory,5,,,,,,,sunaloffvbvysigxent.jpg,,,,,0.648,2.0,,,,,,,1539802897.564973,1539802899.55175,
264,27,Memory,5,,,,,,,sunafbwnojpqeyzssoe.jpg,,,,,1.071,3.0,,,,,,,1539802900.815143,1539802902.805029,
265,27,Memory,5,,,,,,,00267940128fb.jpg,,,,,1.132,2.0,,,,,,,1539802904.06634,1539802906.054957,
266,27,Memory,5,,,,,,,00092931230fa.jpg,,,,,1.866,2.0,,,,,,,1539802907.323334,1539802909.304816,
267,27,Memory,5,,,,,,,sunaczwgyukesaajxnx.jpg,,,,,1.087,2.0,,,,,,,1539802910.569342,1539802912.554222,
268,27,Memory,5,,,,,,,00825940307fa.jpg,,,,,0.898,2.0,,,,,,,1539802913.820059,1539802915.804548,
269,27,Memory,5,,,,,,,01010960627fa.jpg,,,,,0.749,3.0,,,,,,,1539802917.054963,1539802919.071985,
270,27,Memory,5,,,,,,,sunahmhrncocyhsjpxk.jpg,,,,,1.037,2.0,,,,,,,1539802920.322695,1539802922.30778,
271,27,Memory,5,,,,,,,00851940307fa.jpg,,,,,1.204,3.0,,,,,,,1539802923.557134,1539802925.540243,
272,27,Memory,5,,,,,,,00124931230fa.jpg,,,,,0.769,1.0,,,,,,,1539802926.808517,1539802928.792317,
273,27,Memory,5,,,,,,,sunaanlwnpqndclffxt.jpg,,,,,1.754,2.0,,,,,,,1539802930.059476,1539802932.043576,
274,27,Memory,5,,,,,,,00752960620fa.jpg,,,,,1.085,2.0,,,,,,,1539802933.294605,1539802935.277904,
275,27,Memory,5,,,,,,,00147931230fb.jpg,,,,,0.62,2.0,,,,,,,1539802936.529645,1539802938.511816,
276,27,Memory,5,,,,,,,sunaatpkocdkocwxpkb.jpg,,,,,1.453,1.0,,,,,,,1539802939.762032,1539802941.74709,
277,27,Memory,5,,,,,,,00877960530fa.jpg,,,,,0.936,2.0,,,,,,,1539802942.997029,1539802944.981277,
278,27,Memory,5,,,,,,,00893960530Fa.jpg,,,,,0.887,3.0,,,,,,,1539802946.231294,1539802948.215437,
279,27,Memory,5,,,,,,,00786941205fa.jpg,,,,,0.804,2.0,,,,,,,1539802949.481734,1539802951.466627,
280,27,Memory,5,,,,,,,00970960627fa.jpg,,,,,1.619,1.0,,,,,,,1539802952.717633,1539802954.700945,
281,27,Memory,5,,,,,,,sunajxpkuhbizeveguy.jpg,,,,,1.288,2.0,,,,,,,1539802955.967892,1539802957.951946,
282,27,Memory,5,,,,,,,sunagmhildamktmqjss.jpg,,,,,0.0,,,,,,,,1539802959.218209,1539802961.202175,
283,27,Memory,5,,,,,,,sunainqelldeebvxtcz.jpg,,,,,1.369,3.0,,,,,,,1539802962.453481,1539802964.437478,
284,27,Memory,5,,,,,,,00218940128fa.jpg,,,,,0.654,2.0,,,,,,,1539802965.687327,1539802967.671358,
285,27,Memory,5,,,,,,,sunaivflshbyfrfzhqb.jpg,,,,,0.904,1.0,,,,,,,1539802968.922593,1539802970.905668,
286,27,Memory,5,,,,,,,00133931230fa.jpg,,,,,0.853,2.0,,,,,,,1539802972.156925,1539802974.140765,
287,27,Memory,5,,,,,,,sunabbwggenhfbftyvi.jpg,,,,,0.671,1.0,,,,,,,1539802975.390965,1539802977.375198,
288,27,Memory,5,,,,,,,sunahrltmuwbiehihpe.jpg,,,,,0.753,1.0,,,,,,,1539802978.658447,1539802980.642367,
289,27,Memory,5,,,,,,,00630940928fa.jpg,,,,,0.735,1.0,,,,,,,1539802981.893473,1539802983.877167,
290,27,Memory,5,,,,,,,00816941205fa.jpg,,,,,0.0,,,,,,,,1539802985.127429,1539802987.111751,
291,27,Memory,5,,,,,,,sunarfdklgdnjgeqfjg.jpg,,,,,0.854,2.0,,,,,,,1539802988.361635,1539802990.345776,
292,27,Memory,5,,,,,,,suncnkvbhypnivcohyx.jpg,,,,,0.969,1.0,,,,,,,1539802991.596733,1539802993.580076,
293,27,Memory,5,,,,,,,sunaaheqzstzxuadglu.jpg,,,,,0.77,1.0,,,,,,,1539802994.830847,1539802996.815101,
294,27,Memory,5,,,,,,,sunaalhlvzmjmitybdn.jpg,,,,,0.77,2.0,,,,,,,1539802998.081393,1539803000.065187,
295,27,Memory,5,,,,,,,00942960627fa.jpg,,,,,0.886,1.0,,,,,,,1539803001.315522,1539803003.299686,
296,27,Memory,5,,,,,,,00836940307fa.jpg,,,,,0.787,2.0,,,,,,,1539803004.550297,1539803006.534767,
297,27,Memory,5,,,,,,,00093931230fa.jpg,,,,,1.202,2.0,,,,,,,1539803007.801594,1539803009.78496,
298,27,Memory,5,,,,,,,00838940307fa.jpg,,,,,1.253,3.0,,,,,,,1539803011.05191,1539803013.037071,
299,27,Memory,5,,,,,,,sunaahwnmtqsrhocysw.jpg,,,,,1.087,2.0,,,,,,,1539803014.303141,1539803016.28725,
