,Subject,Trial Type,Run,Cued Composite,Uncued Composite,Cued Face,Cued Place,Uncued Face,Uncued Place,Memory Image,Category,Cued Side,Cued Category,Attention Response Time (s),Familiarity Reaction Time (s),Familiarity Rating,Attention Level,Cue Validity,Post Invalid Cue,Pre Invalid Cue,Attention Button,Rating History,Stimulus Onset,Stimulus End,Attention Probe
0,12,Presentation,0,00316940422fa_sunabxmguapjekttvwm.jpg,00790941205fa_sunagpjzsbltchlwvou.jpg,,,,,,,<,Place,,,,,1,,,,,,,o
1,12,Presentation,0,00773941201fa_sunafvcflzhlqloapyo.jpg,00990960627fa_sunbpflsdaxnddnwcqi.jpg,,,,,,,>,Face,,,,,1,,,,,,,x
2,12,Presentation,0,00129931230fb_sunaamsdyakblkfoydx.jpg,00676941121fa_sunadpnqovzckyikrjo.jpg,,,,,,,<,Place,,,,,1,,,,,,,o
3,12,Presentation,0,00302940422fa_sunabtlfmiwtljmoues.jpg,00996960627fa_sunbpvgllfdejxcpjqp.jpg,,,,,,,<,Face,,,,,1,,,,,,,o
4,12,Presentation,0,00221940128fa_sunabcfpwlpolnutyju.jpg,00900960530fa_sunamlotskmmsjeogby.jpg,,,,,,,>,Face,,,,,1,,,,,,,x
5,12,Presentation,0,00789960620fa_sunagpancjmxqfazssf.jpg,00747941201fa_sunaeutbrtswvsozxyk.jpg,,,,,,,>,Place,,,,,1,,,,,,,o
6,12,Presentation,0,00306940422fa_sunabueyoajufbkraki.jpg,00681941121fa_sunadqmjrhfjyuzyvdd.jpg,,,,,,,<,Place,,,,,1,,,,,,,x
7,12,Presentation,0,00194940128fb_sunaayehfdqcyxggsej.jpg,00880960530fa_sunakmnfgklupjijsgf.jpg,,,,,,,<,Face,,,,,1,,,,,,,x
8,12,Presentation,0,00630941031fa_sunadakkdovnuzlycvp.jpg,00120931230fa_sunaakxgygjfqrzpyoz.jpg,,,,,,,>,Place,,,,,1,,,,,,,o
9,12,Presentation,0,00972960627fa_sunbbfqwjpdxniyhies.jpg,00795941205fa_sunagtumacdlmciqamz.jpg,,,,,,,>,Face,,,,,1,,,,,,,o
10,12,Memory,0,,,,,,,01009960627fa.jpg,,,,,,,,,,,,,,,
11,12,Memory,0,,,,,,,00960960627fa.jpg,,,,,,,,,,,,,,,
12,12,Memory,0,,,,,,,00747941201fa.jpg,,,,,,,,,,,,,,,
13,12,Memory,0,,,,,,,sunbpflsdaxnddnwcqi.jpg,,,,,,,,,,,,,,,
14,12,Memory,0,,,,,,,sunabxmguapjekttvwm.jpg,,,,,,,,,,,,,,,
15,12,Memory,0,,,,,,,sunbwtlihsuptkrckid.jpg,,,,,,,,,,,,,,,
16,12,Memory,0,,,,,,,sunbxzweleltykebgan.jpg,,,,,,,,,,,,,,,
17,12,Memory,0,,,,,,,00725941201fa.jpg,,,,,,,,,,,,,,,
18,12,Memory,0,,,,,,,sunabcfpwlpolnutyju.jpg,,,,,,,,,,,,,,,
19,12,Memory,0,,,,,,,sunagpjzsbltchlwvou.jpg,,,,,,,,,,,,,,,
20,12,Memory,0,,,,,,,00316940422fa.jpg,,,,,,,,,,,,,,,
21,12,Memory,0,,,,,,,00795941205fa.jpg,,,,,,,,,,,,,,,
22,12,Memory,0,,,,,,,00138931230fa.jpg,,,,,,,,,,,,,,,
23,12,Memory,0,,,,,,,sunaapfaivxqoynnwwp.jpg,,,,,,,,,,,,,,,
24,12,Memory,0,,,,,,,00990960627fa.jpg,,,,,,,,,,,,,,,
25,12,Memory,0,,,,,,,00996960627fa.jpg,,,,,,,,,,,,,,,
26,12,Memory,0,,,,,,,00306940422fa.jpg,,,,,,,,,,,,,,,
27,12,Memory,0,,,,,,,sunaccdtpgenvcbcbcf.jpg,,,,,,,,,,,,,,,
28,12,Memory,0,,,,,,,00790941205fa.jpg,,,,,,,,,,,,,,,
29,12,Memory,0,,,,,,,00211940128fa.jpg,,,,,,,,,,,,,,,
30,12,Memory,0,,,,,,,sunawksfbacycuhbrsc.jpg,,,,,,,,,,,,,,,
31,12,Memory,0,,,,,,,00221940128fa.jpg,,,,,,,,,,,,,,,
32,12,Memory,0,,,,,,,sunaeutbrtswvsozxyk.jpg,,,,,,,,,,,,,,,
33,12,Memory,0,,,,,,,sunaayehfdqcyxggsej.jpg,,,,,,,,,,,,,,,
34,12,Memory,0,,,,,,,sunaiwfobocrruqznsv.jpg,,,,,,,,,,,,,,,
35,12,Memory,0,,,,,,,sunabrjdpmoedcdjbpo.jpg,,,,,,,,,,,,,,,
36,12,Memory,0,,,,,,,sunaeuzwggvibufclwf.jpg,,,,,,,,,,,,,,,
37,12,Memory,0,,,,,,,sunaefgzwiramypjvtd.jpg,,,,,,,,,,,,,,,
38,12,Memory,0,,,,,,,00532960627fa.jpg,,,,,,,,,,,,,,,
39,12,Memory,0,,,,,,,00857940307fa.jpg,,,,,,,,,,,,,,,
40,12,Memory,0,,,,,,,00750941201fa.jpg,,,,,,,,,,,,,,,
41,12,Memory,0,,,,,,,00129931230fb.jpg,,,,,,,,,,,,,,,
42,12,Memory,0,,,,,,,sunbpvgllfdejxcpjqp.jpg,,,,,,,,,,,,,,,
43,12,Memory,0,,,,,,,sunabasphceswhwwqvv.jpg,,,,,,,,,,,,,,,
44,12,Memory,0,,,,,,,00292940422fb.jpg,,,,,,,,,,,,,,,
45,12,Memory,0,,,,,,,sunaamsdyakblkfoydx.jpg,,,,,,,,,,,,,,,
46,12,Memory,0,,,,,,,01004960627fa.jpg,,,,,,,,,,,,,,,
47,12,Memory,0,,,,,,,sunabueyoajufbkraki.jpg,,,,,,,,,,,,,,,
48,12,Memory,0,,,,,,,00194940128fb.jpg,,,,,,,,,,,,,,,
49,12,Memory,0,,,,,,,sunagtumacdlmciqamz.jpg,,,,,,,,,,,,,,,
50,12,Presentation,1,00908960530fa_sunanwjjyqqwzqrqagd.jpg,00557940519fa_sunachtuarilwyqnvjx.jpg,,,,,,,>,Place,,,,,1,,,,,,,x
51,12,Presentation,1,00062931230fb_sunaaelotvjgibjtjhs.jpg,00098931230fa_sunaajpqmulidejvjsr.jpg,,,,,,,<,Face,,,,,1,,,,,,,o
52,12,Presentation,1,00977960627fa_sunbbxkanhzjgbwyxqs.jpg,00760960620fa_sunaffstbkappprzxnv.jpg,,,,,,,>,Place,,,,,1,,,,,,,o
53,12,Presentation,1,00984960627fa_sunbfzchmomnvzhbxdg.jpg,00938960627fa_sunaqyylsngywqzwfmx.jpg,,,,,,,<,Place,,,,,1,,,,,,,o
54,12,Presentation,1,00634940928fa_sunadcphrizvfpljiqt.jpg,00965960627fa_sunaydywdmvlfddbxbk.jpg,,,,,,,>,Face,,,,,1,,,,,,,o
55,12,Presentation,1,00882960530fa_sunaknlirqjqiwbbeeg.jpg,00540940519fa_sunacdnquypmsshhsbk.jpg,,,,,,,<,Place,,,,,1,,,,,,,x
56,12,Presentation,1,00723941201fa_sunaedtgwjvvziytspa.jpg,00070940307fa_sunaaeplwsfslcbtojr.jpg,,,,,,,<,Face,,,,,1,,,,,,,x
57,12,Presentation,1,00136931230fb_sunaanptmsknhirrzed.jpg,00885960530fa_sunakwlvxjpddialozd.jpg,,,,,,,>,Place,,,,,1,,,,,,,x
58,12,Presentation,1,00305940422fa_sunabtrnbvpppgczjim.jpg,00982960627fa_sunbesrwkdsffeogeqq.jpg,,,,,,,<,Face,,,,,1,,,,,,,o
59,12,Presentation,1,00146960620fb_sunaatpeezlljqaxlhj.jpg,00889960530fa_sunaletopenvvozhpxc.jpg,,,,,,,>,Face,,,,,0,,,,,,,x
60,12,Memory,1,,,,,,,sunadcphrizvfpljiqt.jpg,,,,,,,,,,,,,,,
61,12,Memory,1,,,,,,,00803941205fa.jpg,,,,,,,,,,,,,,,
62,12,Memory,1,,,,,,,sunaletopenvvozhpxc.jpg,,,,,,,,,,,,,,,
63,12,Memory,1,,,,,,,sunapileznnbbmrwoei.jpg,,,,,,,,,,,,,,,
64,12,Memory,1,,,,,,,sunadfndyrtqqiasoig.jpg,,,,,,,,,,,,,,,
65,12,Memory,1,,,,,,,sunakwlvxjpddialozd.jpg,,,,,,,,,,,,,,,
66,12,Memory,1,,,,,,,sunbbxkanhzjgbwyxqs.jpg,,,,,,,,,,,,,,,
67,12,Memory,1,,,,,,,sunabgfhvifeijihhjw.jpg,,,,,,,,,,,,,,,
68,12,Memory,1,,,,,,,sunaakqepfoeqomfgxf.jpg,,,,,,,,,,,,,,,
69,12,Memory,1,,,,,,,sunaauueuhhvklldjik.jpg,,,,,,,,,,,,,,,
70,12,Memory,1,,,,,,,00825940307fa.jpg,,,,,,,,,,,,,,,
71,12,Memory,1,,,,,,,00885960530fa.jpg,,,,,,,,,,,,,,,
72,12,Memory,1,,,,,,,00915960620fa.jpg,,,,,,,,,,,,,,,
73,12,Memory,1,,,,,,,00723941201fa.jpg,,,,,,,,,,,,,,,
74,12,Memory,1,,,,,,,sunaatpeezlljqaxlhj.jpg,,,,,,,,,,,,,,,
75,12,Memory,1,,,,,,,sunagvprlbprarvgdvj.jpg,,,,,,,,,,,,,,,
76,12,Memory,1,,,,,,,sunaajpqmulidejvjsr.jpg,,,,,,,,,,,,,,,
77,12,Memory,1,,,,,,,sunapqkyghktgtosuuk.jpg,,,,,,,,,,,,,,,
78,12,Memory,1,,,,,,,00154931230fa.jpg,,,,,,,,,,,,,,,
79,12,Memory,1,,,,,,,sunbvzmgrdvaakxusbu.jpg,,,,,,,,,,,,,,,
80,12,Memory,1,,,,,,,00938960627fa.jpg,,,,,,,,,,,,,,,
81,12,Memory,1,,,,,,,00136931230fb.jpg,,,,,,,,,,,,,,,
82,12,Memory,1,,,,,,,00801941205fa.jpg,,,,,,,,,,,,,,,
83,12,Memory,1,,,,,,,00922960627fa.jpg,,,,,,,,,,,,,,,
84,12,Memory,1,,,,,,,01000960627fa.jpg,,,,,,,,,,,,,,,
85,12,Memory,1,,,,,,,00634940928fa.jpg,,,,,,,,,,,,,,,
86,12,Memory,1,,,,,,,00260940128fa.jpg,,,,,,,,,,,,,,,
87,12,Memory,1,,,,,,,sunagvxkjokqimstxpe.jpg,,,,,,,,,,,,,,,
88,12,Memory,1,,,,,,,00116931230fa.jpg,,,,,,,,,,,,,,,
89,12,Memory,1,,,,,,,00648941031fa.jpg,,,,,,,,,,,,,,,
90,12,Memory,1,,,,,,,00889960530fa.jpg,,,,,,,,,,,,,,,
91,12,Memory,1,,,,,,,sunaedtgwjvvziytspa.jpg,,,,,,,,,,,,,,,
92,12,Memory,1,,,,,,,00098931230fa.jpg,,,,,,,,,,,,,,,
93,12,Memory,1,,,,,,,sunaanptmsknhirrzed.jpg,,,,,,,,,,,,,,,
94,12,Memory,1,,,,,,,sunaqyylsngywqzwfmx.jpg,,,,,,,,,,,,,,,
95,12,Memory,1,,,,,,,00146960620fb.jpg,,,,,,,,,,,,,,,
96,12,Memory,1,,,,,,,sunacdnquypmsshhsbk.jpg,,,,,,,,,,,,,,,
97,12,Memory,1,,,,,,,00977960627fa.jpg,,,,,,,,,,,,,,,
98,12,Memory,1,,,,,,,sunahrltmuwbiehihpe.jpg,,,,,,,,,,,,,,,
99,12,Memory,1,,,,,,,00540940519fa.jpg,,,,,,,,,,,,,,,
100,12,Presentation,2,00876960620fa_sunajwqkfsykceonyig.jpg,00218940128fa_sunabbwggenhfbftyvi.jpg,,,,,,,<,Place,,,,,1,,,,,,,o
101,12,Presentation,2,00314940422fa_sunabwmcbaxwioksdgw.jpg,00931960627fa_sunaptrqvaooxfvktvw.jpg,,,,,,,>,Place,,,,,1,,,,,,,o
102,12,Presentation,2,00581940928fa_sunacvzhvcksnwqcqbw.jpg,00771941205fa_sunafowswglhxcsufpo.jpg,,,,,,,<,Face,,,,,1,,,,,,,x
103,12,Presentation,2,00864940307fa_sunajawzbrlrwafowen.jpg,00663941121fa_sunadnjjzohjhbohlwq.jpg,,,,,,,>,Face,,,,,1,,,,,,,o
104,12,Presentation,2,00638941031fa_sunadfktsqjthoglcsm.jpg,00983960627fa_sunbfyvfqiimvdaxlqn.jpg,,,,,,,>,Place,,,,,1,,,,,,,x
105,12,Presentation,2,00635941031fa_sunaddsaeicthrfbkhe.jpg,00819940307fa_sunahqldjibofgsfdgb.jpg,,,,,,,<,Face,,,,,1,,,,,,,x
106,12,Presentation,2,00877960530fa_sunajxpkuhbizeveguy.jpg,00762941201fa_sunafgzgbisbopcyslr.jpg,,,,,,,>,Place,,,,,1,,,,,,,x
107,12,Presentation,2,00564941031fa_sunacsaovnjezqwbykf.jpg,00859940307fa_sunaiycurtqsfkvcaso.jpg,,,,,,,<,Face,,,,,1,,,,,,,o
108,12,Presentation,2,00700941121fa_sunadsgmtznewzyasnk.jpg,00787941205fa_sunagmwxxwymwojbvgi.jpg,,,,,,,>,Face,,,,,1,,,,,,,o
109,12,Presentation,2,00126931230fb_sunaamdjwemxpmmtypi.jpg,00851940307fa_sunaivflshbyfrfzhqb.jpg,,,,,,,<,Place,,,,,1,,,,,,,o
110,12,Memory,2,,,,,,,sunacvbrcejzwmcgnoq.jpg,,,,,,,,,,,,,,,
111,12,Memory,2,,,,,,,00574940928fa.jpg,,,,,,,,,,,,,,,
112,12,Memory,2,,,,,,,sunaahzooisqkwlxwoz.jpg,,,,,,,,,,,,,,,
113,12,Memory,2,,,,,,,00095931230fa.jpg,,,,,,,,,,,,,,,
114,12,Memory,2,,,,,,,sunaeoghzrjarigmwua.jpg,,,,,,,,,,,,,,,
115,12,Memory,2,,,,,,,sunajxpkuhbizeveguy.jpg,,,,,,,,,,,,,,,
116,12,Memory,2,,,,,,,sunahqldjibofgsfdgb.jpg,,,,,,,,,,,,,,,
117,12,Memory,2,,,,,,,sunagrmyoovzukhxmlo.jpg,,,,,,,,,,,,,,,
118,12,Memory,2,,,,,,,00663941121fa.jpg,,,,,,,,,,,,,,,
119,12,Memory,2,,,,,,,00197940128fa.jpg,,,,,,,,,,,,,,,
120,12,Memory,2,,,,,,,00705960530fa.jpg,,,,,,,,,,,,,,,
121,12,Memory,2,,,,,,,00314940422fa.jpg,,,,,,,,,,,,,,,
122,12,Memory,2,,,,,,,sunadnjjzohjhbohlwq.jpg,,,,,,,,,,,,,,,
123,12,Memory,2,,,,,,,sunaapllqyqlykszopd.jpg,,,,,,,,,,,,,,,
124,12,Memory,2,,,,,,,00581940928fa.jpg,,,,,,,,,,,,,,,
125,12,Memory,2,,,,,,,sunathzzbcwjykldrem.jpg,,,,,,,,,,,,,,,
126,12,Memory,2,,,,,,,sunagmwxxwymwojbvgi.jpg,,,,,,,,,,,,,,,
127,12,Memory,2,,,,,,,sunaizeyhvjzknwjudw.jpg,,,,,,,,,,,,,,,
128,12,Memory,2,,,,,,,00952960627fa.jpg,,,,,,,,,,,,,,,
129,12,Memory,2,,,,,,,00793941205fa.jpg,,,,,,,,,,,,,,,
130,12,Memory,2,,,,,,,sunaduslxfzlbxlllnz.jpg,,,,,,,,,,,,,,,
131,12,Memory,2,,,,,,,00876960620fa.jpg,,,,,,,,,,,,,,,
132,12,Memory,2,,,,,,,00787941205fa.jpg,,,,,,,,,,,,,,,
133,12,Memory,2,,,,,,,00762941201fa.jpg,,,,,,,,,,,,,,,
134,12,Memory,2,,,,,,,sunajawzbrlrwafowen.jpg,,,,,,,,,,,,,,,
135,12,Memory,2,,,,,,,00140931230fb.jpg,,,,,,,,,,,,,,,
136,12,Memory,2,,,,,,,00819940307fa.jpg,,,,,,,,,,,,,,,
137,12,Memory,2,,,,,,,00743941201fa.jpg,,,,,,,,,,,,,,,
138,12,Memory,2,,,,,,,00791941205fa.jpg,,,,,,,,,,,,,,,
139,12,Memory,2,,,,,,,sunafgzgbisbopcyslr.jpg,,,,,,,,,,,,,,,
140,12,Memory,2,,,,,,,sunacvzhvcksnwqcqbw.jpg,,,,,,,,,,,,,,,
141,12,Memory,2,,,,,,,00864940307fa.jpg,,,,,,,,,,,,,,,
142,12,Memory,2,,,,,,,sunaaylzyqlqrsmfwif.jpg,,,,,,,,,,,,,,,
143,12,Memory,2,,,,,,,00860940307fa.jpg,,,,,,,,,,,,,,,
144,12,Memory,2,,,,,,,sunbfyvfqiimvdaxlqn.jpg,,,,,,,,,,,,,,,
145,12,Memory,2,,,,,,,sunagtjwilqjvxohypn.jpg,,,,,,,,,,,,,,,
146,12,Memory,2,,,,,,,sunabwmcbaxwioksdgw.jpg,,,,,,,,,,,,,,,
147,12,Memory,2,,,,,,,00877960530fa.jpg,,,,,,,,,,,,,,,
148,12,Memory,2,,,,,,,00983960627fa.jpg,,,,,,,,,,,,,,,
149,12,Memory,2,,,,,,,sunajwqkfsykceonyig.jpg,,,,,,,,,,,,,,,
150,12,Presentation,3,00620940928fa_sunacypmnujalygkunp.jpg,00543940519fa_sunacepzfrmtkiqonpy.jpg,,,,,,,>,Face,,,,,1,,,,,,,o
151,12,Presentation,3,00149931230fa_sunaauglwmctnkxyird.jpg,00841940307fa_sunaisiwfgppimtnmxl.jpg,,,,,,,<,Place,,,,,1,,,,,,,x
152,12,Presentation,3,00267940128fb_sunablfqiwfqomjarht.jpg,00153931230fa_sunaauhozyxzeeqstxi.jpg,,,,,,,>,Place,,,,,0,,,,,,,x
153,12,Presentation,3,00633940928fa_sunadbhmrgrrpyzglxs.jpg,00479940519fa_sunabxsbfwjccqxxzxq.jpg,,,,,,,>,Face,,,,,1,,,,,,,x
154,12,Presentation,3,00720960620fa_sunaecpkgfewqqreqwe.jpg,00290940422fa_sunabqowuarvqqcnipn.jpg,,,,,,,>,Place,,,,,1,,,,,,,o
155,12,Presentation,3,00754941201fa_sunaffgsyyvoqdlkmnk.jpg,00675941121fa_sunadoxcchtmsxewsau.jpg,,,,,,,>,Face,,,,,1,,,,,,,o
156,12,Presentation,3,00662941121fa_sunadkazmlajmohnwfl.jpg,00741941201fa_sunaemcowdozyphwknd.jpg,,,,,,,<,Face,,,,,1,,,,,,,x
157,12,Presentation,3,00498960627fa_sunabzjxlmkwnwzimua.jpg,00745941205fa_sunaeouogqolxvggaoq.jpg,,,,,,,<,Place,,,,,1,,,,,,,o
158,12,Presentation,3,00112931230fa_sunaakjaacuzulqckgl.jpg,00978960627fa_sunbddbivbptlrlauhy.jpg,,,,,,,<,Face,,,,,1,,,,,,,o
159,12,Presentation,3,00089931230fa_sunaagcpoejbuzyvddd.jpg,00911960530fa_sunaooaqzputrowwbsw.jpg,,,,,,,<,Place,,,,,1,,,,,,,o
160,12,Memory,3,,,,,,,00662941121fa.jpg,,,,,,,,,,,,,,,
161,12,Memory,3,,,,,,,sunaaexpnawiehinlpy.jpg,,,,,,,,,,,,,,,
162,12,Memory,3,,,,,,,00988960627fa.jpg,,,,,,,,,,,,,,,
163,12,Memory,3,,,,,,,sunahbvlpavurqoxdeq.jpg,,,,,,,,,,,,,,,
164,12,Memory,3,,,,,,,sunabxsbfwjccqxxzxq.jpg,,,,,,,,,,,,,,,
165,12,Memory,3,,,,,,,00267940128fb.jpg,,,,,,,,,,,,,,,
166,12,Memory,3,,,,,,,00675941121fa.jpg,,,,,,,,,,,,,,,
167,12,Memory,3,,,,,,,00089931230fa.jpg,,,,,,,,,,,,,,,
168,12,Memory,3,,,,,,,00911960530fa.jpg,,,,,,,,,,,,,,,
169,12,Memory,3,,,,,,,00479940519fa.jpg,,,,,,,,,,,,,,,
170,12,Memory,3,,,,,,,sunablfqiwfqomjarht.jpg,,,,,,,,,,,,,,,
171,12,Memory,3,,,,,,,sunaauglwmctnkxyird.jpg,,,,,,,,,,,,,,,
172,12,Memory,3,,,,,,,sunaajayojuslbbnneg.jpg,,,,,,,,,,,,,,,
173,12,Memory,3,,,,,,,sunaakxjfbrrequcjmx.jpg,,,,,,,,,,,,,,,
174,12,Memory,3,,,,,,,00097931230fa.jpg,,,,,,,,,,,,,,,
175,12,Memory,3,,,,,,,00848940307fa.jpg,,,,,,,,,,,,,,,
176,12,Memory,3,,,,,,,00122931230fa.jpg,,,,,,,,,,,,,,,
177,12,Memory,3,,,,,,,sunaaexqbtdswxrqjvz.jpg,,,,,,,,,,,,,,,
178,12,Memory,3,,,,,,,sunadkazmlajmohnwfl.jpg,,,,,,,,,,,,,,,
179,12,Memory,3,,,,,,,01002960627fb.jpg,,,,,,,,,,,,,,,
180,12,Memory,3,,,,,,,sunapwjkcxdaeqehfql.jpg,,,,,,,,,,,,,,,
181,12,Memory,3,,,,,,,sunaafynehyrzpsoaml.jpg,,,,,,,,,,,,,,,
182,12,Memory,3,,,,,,,sunbmaiocftdtvnzgap.jpg,,,,,,,,,,,,,,,
183,12,Memory,3,,,,,,,00153931230fa.jpg,,,,,,,,,,,,,,,
184,12,Memory,3,,,,,,,sunbwaafjdebjzttuvq.jpg,,,,,,,,,,,,,,,
185,12,Memory,3,,,,,,,sunaagcpoejbuzyvddd.jpg,,,,,,,,,,,,,,,
186,12,Memory,3,,,,,,,00149931230fa.jpg,,,,,,,,,,,,,,,
187,12,Memory,3,,,,,,,00071941031fa.jpg,,,,,,,,,,,,,,,
188,12,Memory,3,,,,,,,sunaooaqzputrowwbsw.jpg,,,,,,,,,,,,,,,
189,12,Memory,3,,,,,,,sunabqowuarvqqcnipn.jpg,,,,,,,,,,,,,,,
190,12,Memory,3,,,,,,,00290940422fa.jpg,,,,,,,,,,,,,,,
191,12,Memory,3,,,,,,,00086931230fa.jpg,,,,,,,,,,,,,,,
192,12,Memory,3,,,,,,,00933960627fa.jpg,,,,,,,,,,,,,,,
193,12,Memory,3,,,,,,,00809960620fa.jpg,,,,,,,,,,,,,,,
194,12,Memory,3,,,,,,,00071940128fa.jpg,,,,,,,,,,,,,,,
195,12,Memory,3,,,,,,,sunaivdylrawbmhryfp.jpg,,,,,,,,,,,,,,,
196,12,Memory,3,,,,,,,sunabzjxlmkwnwzimua.jpg,,,,,,,,,,,,,,,
197,12,Memory,3,,,,,,,sunadoxcchtmsxewsau.jpg,,,,,,,,,,,,,,,
198,12,Memory,3,,,,,,,sunaauhozyxzeeqstxi.jpg,,,,,,,,,,,,,,,
199,12,Memory,3,,,,,,,00498960627fa.jpg,,,,,,,,,,,,,,,
200,12,Presentation,4,00787960620fa_sunagoufulkpsxrmklt.jpg,00807941205fa_sunahawfngukizslzsd.jpg,,,,,,,<,Place,,,,,1,,,,,,,x
201,12,Presentation,4,00829940307fa_sunahwgbqkqcrwprgvh.jpg,00061931230fb_sunaaekxzjzrfgtkwjf.jpg,,,,,,,<,Face,,,,,1,,,,,,,x
202,12,Presentation,4,00812941205fa_sunahgtbwgsmtqeodwh.jpg,00862940307fa_sunaizgnnplsvajzhkc.jpg,,,,,,,<,Place,,,,,1,,,,,,,o
203,12,Presentation,4,00081941031fa_sunaaftlyfudyzuhqzf.jpg,00947960627fa_sunasmmcxdddtmtazwx.jpg,,,,,,,>,Place,,,,,0,,,,,,,x
204,12,Presentation,4,00564940928fa_sunacmpqqfbsvlzinzl.jpg,00185940422fb_sunaawqdbpihmlbwyyn.jpg,,,,,,,>,Face,,,,,1,,,,,,,x
205,12,Presentation,4,00102931230fa_sunaajspcoepticvplv.jpg,00096931230fa_sunaaiqiqcggrskoqgy.jpg,,,,,,,<,Place,,,,,1,,,,,,,x
206,12,Presentation,4,00971960627fa_sunbbegcweqnetpdlrh.jpg,01207940128fa_sundbixjudsgeuuehrn.jpg,,,,,,,>,Place,,,,,1,,,,,,,o
207,12,Presentation,4,00193940928fa_sunaaxjpzcnxligjtjq.jpg,00694941121fa_sunadrmfzmstgdjdcod.jpg,,,,,,,>,Face,,,,,1,,,,,,,x
208,12,Presentation,4,00909960530_sunaobtizabegtwfwul.jpg,00887960530_sunalcrtwiycqobgelp.jpg,,,,,,,<,Face,,,,,0,,,,,,,o
209,12,Presentation,4,00761960627fa_sunafgdqbclkwfocdhg.jpg,00870940307fa_sunajrgtewnualfcerj.jpg,,,,,,,>,Face,,,,,1,,,,,,,x
210,12,Memory,4,,,,,,,sunabckqabszusgcykj.jpg,,,,,,,,,,,,,,,
211,12,Memory,4,,,,,,,sunahawfngukizslzsd.jpg,,,,,,,,,,,,,,,
212,12,Memory,4,,,,,,,00061931230fb.jpg,,,,,,,,,,,,,,,
213,12,Memory,4,,,,,,,00862940307fa.jpg,,,,,,,,,,,,,,,
214,12,Memory,4,,,,,,,00947960627fa.jpg,,,,,,,,,,,,,,,
215,12,Memory,4,,,,,,,sunasmmcxdddtmtazwx.jpg,,,,,,,,,,,,,,,
216,12,Memory,4,,,,,,,sunaobtizabegtwfwul.jpg,,,,,,,,,,,,,,,
217,12,Memory,4,,,,,,,00838940307fa.jpg,,,,,,,,,,,,,,,
218,12,Memory,4,,,,,,,sunadbdqzigzwipuipr.jpg,,,,,,,,,,,,,,,
219,12,Memory,4,,,,,,,00694941121fa.jpg,,,,,,,,,,,,,,,
220,12,Memory,4,,,,,,,sunaakmxzhuceuiryah.jpg,,,,,,,,,,,,,,,
221,12,Memory,4,,,,,,,00807941205fa.jpg,,,,,,,,,,,,,,,
222,12,Memory,4,,,,,,,00800941205fb.jpg,,,,,,,,,,,,,,,
223,12,Memory,4,,,,,,,sunacwggadqsfpovdjv.jpg,,,,,,,,,,,,,,,
224,12,Memory,4,,,,,,,sunbbhqyyzmsxhsbjmp.jpg,,,,,,,,,,,,,,,
225,12,Memory,4,,,,,,,00631940928fa.jpg,,,,,,,,,,,,,,,
226,12,Memory,4,,,,,,,00571940928fa.jpg,,,,,,,,,,,,,,,
227,12,Memory,4,,,,,,,00963960627fa.jpg,,,,,,,,,,,,,,,
228,12,Memory,4,,,,,,,sunaaxjpzcnxligjtjq.jpg,,,,,,,,,,,,,,,
229,12,Memory,4,,,,,,,00589940928fa.jpg,,,,,,,,,,,,,,,
230,12,Memory,4,,,,,,,00909960530.jpg,,,,,,,,,,,,,,,
231,12,Memory,4,,,,,,,sunaaekxzjzrfgtkwjf.jpg,,,,,,,,,,,,,,,
232,12,Memory,4,,,,,,,00115931230fa.jpg,,,,,,,,,,,,,,,
233,12,Memory,4,,,,,,,sunaaftlyfudyzuhqzf.jpg,,,,,,,,,,,,,,,
234,12,Memory,4,,,,,,,suncnkvbhypnivcohyx.jpg,,,,,,,,,,,,,,,
235,12,Memory,4,,,,,,,sunacmpqqfbsvlzinzl.jpg,,,,,,,,,,,,,,,
236,12,Memory,4,,,,,,,sunagvjurcwdbixvnyi.jpg,,,,,,,,,,,,,,,
237,12,Memory,4,,,,,,,00081941031fa.jpg,,,,,,,,,,,,,,,
238,12,Memory,4,,,,,,,00227940128fa.jpg,,,,,,,,,,,,,,,
239,12,Memory,4,,,,,,,00976960627fa.jpg,,,,,,,,,,,,,,,
240,12,Memory,4,,,,,,,sunadrmfzmstgdjdcod.jpg,,,,,,,,,,,,,,,
241,12,Memory,4,,,,,,,sunayaepykrqvenaqqy.jpg,,,,,,,,,,,,,,,
242,12,Memory,4,,,,,,,sunaiozxhxgtfrmoagh.jpg,,,,,,,,,,,,,,,
243,12,Memory,4,,,,,,,sunafgdqbclkwfocdhg.jpg,,,,,,,,,,,,,,,
244,12,Memory,4,,,,,,,sunacuatpqpqhyjhjqk.jpg,,,,,,,,,,,,,,,
245,12,Memory,4,,,,,,,00193940928fa.jpg,,,,,,,,,,,,,,,
246,12,Memory,4,,,,,,,00564940928fa.jpg,,,,,,,,,,,,,,,
247,12,Memory,4,,,,,,,sunaizgnnplsvajzhkc.jpg,,,,,,,,,,,,,,,
248,12,Memory,4,,,,,,,01010960627fa.jpg,,,,,,,,,,,,,,,
249,12,Memory,4,,,,,,,00761960627fa.jpg,,,,,,,,,,,,,,,
250,12,Presentation,5,00905960530fa_sunanmoqeyprjjjfxjt.jpg,00942960627fa_sunarfdklgdnjgeqfjg.jpg,,,,,,,>,Face,,,,,1,,,,,,,o
251,12,Presentation,5,00123931230fb_sunaalcrrdbjgdztbiz.jpg,00835940307fa_sunaijsqpvodplbwxkf.jpg,,,,,,,<,Face,,,,,1,,,,,,,x
252,12,Presentation,5,00967960627fa_sunbaejotfklekvpxcz.jpg,00955960627fb_sunauburywlkjszngcq.jpg,,,,,,,<,Place,,,,,1,,,,,,,x
253,12,Presentation,5,00208940128fa_sunaazzyhbvqjpmazjq.jpg,00937960627fa_sunaqsolmfydodnakub.jpg,,,,,,,<,Face,,,,,1,,,,,,,x
254,12,Presentation,5,00548940519fa_sunacerqowiaeoqkmsq.jpg,00705941205fa_sunadtlxenqqxsyjvix.jpg,,,,,,,>,Place,,,,,1,,,,,,,x
255,12,Presentation,5,00481940519fa_sunabxsuqbleluwczoy.jpg,00839940307fa_sunaipyohrqlwngaqif.jpg,,,,,,,<,Place,,,,,1,,,,,,,o
256,12,Presentation,5,00939960627fa_sunarceibpcyacbmfga.jpg,00144931230fb_sunaathajvxrgptwhoj.jpg,,,,,,,>,Face,,,,,1,,,,,,,x
257,12,Presentation,5,00191940128fb_sunaawsdjisukbbginm.jpg,00280940422fb_sunabohxbskznglnrhv.jpg,,,,,,,>,Place,,,,,1,,,,,,,o
258,12,Presentation,5,00080931230fb_sunaafjszryxyavjzln.jpg,00779941205fa_sunagdzlvkqtpnfxfcg.jpg,,,,,,,<,Place,,,,,0,,,,,,,o
259,12,Presentation,5,00894960620fa_sunalqmfgeadpqsyzpd.jpg,01007960627fa_sunbxarcshsnqsefemx.jpg,,,,,,,>,Face,,,,,1,,,,,,,o
260,12,Memory,5,,,,,,,00828940307fa.jpg,,,,,,,,,,,,,,,
261,12,Memory,5,,,,,,,sunaofikylqtxphvdem.jpg,,,,,,,,,,,,,,,
262,12,Memory,5,,,,,,,00985960627fa.jpg,,,,,,,,,,,,,,,
263,12,Memory,5,,,,,,,sunahuynahneraqftyz.jpg,,,,,,,,,,,,,,,
264,12,Memory,5,,,,,,,00967960627fa.jpg,,,,,,,,,,,,,,,
265,12,Memory,5,,,,,,,sunajoveqhiprwqgoco.jpg,,,,,,,,,,,,,,,
266,12,Memory,5,,,,,,,sunbxarcshsnqsefemx.jpg,,,,,,,,,,,,,,,
267,12,Memory,5,,,,,,,00749941201fa.jpg,,,,,,,,,,,,,,,
268,12,Memory,5,,,,,,,00894960620fa.jpg,,,,,,,,,,,,,,,
269,12,Memory,5,,,,,,,sunajtrfunvzdfticna.jpg,,,,,,,,,,,,,,,
270,12,Memory,5,,,,,,,00874940307fa.jpg,,,,,,,,,,,,,,,
271,12,Memory,5,,,,,,,00869940307fa.jpg,,,,,,,,,,,,,,,
272,12,Memory,5,,,,,,,sunaaemixhfquhnxxlm.jpg,,,,,,,,,,,,,,,
273,12,Memory,5,,,,,,,00910960530fa.jpg,,,,,,,,,,,,,,,
274,12,Memory,5,,,,,,,00905960530fa.jpg,,,,,,,,,,,,,,,
275,12,Memory,5,,,,,,,sunalqmfgeadpqsyzpd.jpg,,,,,,,,,,,,,,,
276,12,Memory,5,,,,,,,00914960620fa.jpg,,,,,,,,,,,,,,,
277,12,Memory,5,,,,,,,sunarceibpcyacbmfga.jpg,,,,,,,,,,,,,,,
278,12,Memory,5,,,,,,,sunaalcrrdbjgdztbiz.jpg,,,,,,,,,,,,,,,
279,12,Memory,5,,,,,,,sunaqsolmfydodnakub.jpg,,,,,,,,,,,,,,,
280,12,Memory,5,,,,,,,00554940519fa.jpg,,,,,,,,,,,,,,,
281,12,Memory,5,,,,,,,00835940307fa.jpg,,,,,,,,,,,,,,,
282,12,Memory,5,,,,,,,00937960627fa.jpg,,,,,,,,,,,,,,,
283,12,Memory,5,,,,,,,sunbgklxeqjhdbyfhhy.jpg,,,,,,,,,,,,,,,
284,12,Memory,5,,,,,,,00839940307fa.jpg,,,,,,,,,,,,,,,
285,12,Memory,5,,,,,,,sunaeuvjbmdpknaqqaj.jpg,,,,,,,,,,,,,,,
286,12,Memory,5,,,,,,,sunamczizlzavhzhpay.jpg,,,,,,,,,,,,,,,
287,12,Memory,5,,,,,,,00065931230fb.jpg,,,,,,,,,,,,,,,
288,12,Memory,5,,,,,,,00939960627fa.jpg,,,,,,,,,,,,,,,
289,12,Memory,5,,,,,,,sunaozisvwfbmlkfhzv.jpg,,,,,,,,,,,,,,,
290,12,Memory,5,,,,,,,01007960627fa.jpg,,,,,,,,,,,,,,,
291,12,Memory,5,,,,,,,sunacfdkbsrughwqwtt.jpg,,,,,,,,,,,,,,,
292,12,Memory,5,,,,,,,sunaipyohrqlwngaqif.jpg,,,,,,,,,,,,,,,
293,12,Memory,5,,,,,,,00895960530fa.jpg,,,,,,,,,,,,,,,
294,12,Memory,5,,,,,,,sunanmoqeyprjjjfxjt.jpg,,,,,,,,,,,,,,,
295,12,Memory,5,,,,,,,00955960627fb.jpg,,,,,,,,,,,,,,,
296,12,Memory,5,,,,,,,sunauburywlkjszngcq.jpg,,,,,,,,,,,,,,,
297,12,Memory,5,,,,,,,00123931230fb.jpg,,,,,,,,,,,,,,,
298,12,Memory,5,,,,,,,sunaijsqpvodplbwxkf.jpg,,,,,,,,,,,,,,,
299,12,Memory,5,,,,,,,sunbaejotfklekvpxcz.jpg,,,,,,,,,,,,,,,
300,12,Presentation,6,00263940128fb_sunabjuovqvyfuzvqwt.jpg,00060931230fa_sunaaehaikpckyjsety.jpg,,,,,,,<,Face,,,,,1,,,,,,,o
301,12,Presentation,6,00858940307fa_sunaixpqndlwhwjtjek.jpg,01011960627fa_sundahdxwmcdluscvot.jpg,,,,,,,>,Place,,,,,1,,,,,,,x
302,12,Presentation,6,00746941201fa_sunaetydippjxikifsb.jpg,00727941205fa_sunaeisnjeetzmkbuad.jpg,,,,,,,<,Place,,,,,1,,,,,,,x
303,12,Presentation,6,00968960627fa_sunbagfpovqwbuexqdn.jpg,00576941031fa_sunacvjlsylseoghjup.jpg,,,,,,,<,Face,,,,,1,,,,,,,o
304,12,Presentation,6,00742941201fa_sunaenwuebvlpdmntju.jpg,00892960530fa_sunalntxqqadigcletd.jpg,,,,,,,>,Place,,,,,0,,,,,,,x
305,12,Presentation,6,00728941205fa_sunaejnvnpltdmhbcsi.jpg,00288940422fa_sunabppokiyglaxpcha.jpg,,,,,,,>,Face,,,,,1,,,,,,,x
306,12,Presentation,6,00953960627fa_sunatstrpjxhvtbaczf.jpg,00903960620fa_sunanainkqdvktzoxyl.jpg,,,,,,,>,Place,,,,,1,,,,,,,x
307,12,Presentation,6,00792941205fa_sunagsiwrmuixqgdimb.jpg,00775941205fa_sunafvwfsmqkjrutjta.jpg,,,,,,,<,Place,,,,,1,,,,,,,o
308,12,Presentation,6,00827940307fa_sunahtfxgsrmkiulnwk.jpg,00276940422fa_sunabmytpyhsgigllxu.jpg,,,,,,,>,Face,,,,,1,,,,,,,x
309,12,Presentation,6,00313940422fa_sunabwjvmoaddlyxfjr.jpg,00198940128fb_sunaazezcsunmhttzxz.jpg,,,,,,,<,Face,,,,,1,,,,,,,x
310,12,Memory,6,,,,,,,sunaavodbcpygkggnfp.jpg,,,,,,,,,,,,,,,
311,12,Memory,6,,,,,,,00313940422fa.jpg,,,,,,,,,,,,,,,
312,12,Memory,6,,,,,,,00919960620fa.jpg,,,,,,,,,,,,,,,
313,12,Memory,6,,,,,,,00792941205fa.jpg,,,,,,,,,,,,,,,
314,12,Memory,6,,,,,,,sunabkmdplkdbvxriff.jpg,,,,,,,,,,,,,,,
315,12,Memory,6,,,,,,,sunabmytpyhsgigllxu.jpg,,,,,,,,,,,,,,,
316,12,Memory,6,,,,,,,sunacycdoztxoluxjyk.jpg,,,,,,,,,,,,,,,
317,12,Memory,6,,,,,,,00609940928fa.jpg,,,,,,,,,,,,,,,
318,12,Memory,6,,,,,,,00786941205fa.jpg,,,,,,,,,,,,,,,
319,12,Memory,6,,,,,,,sunaeisnjeetzmkbuad.jpg,,,,,,,,,,,,,,,
320,12,Memory,6,,,,,,,sunalntxqqadigcletd.jpg,,,,,,,,,,,,,,,
321,12,Memory,6,,,,,,,sunaeomlfaabhpswasy.jpg,,,,,,,,,,,,,,,
322,12,Memory,6,,,,,,,sunaazezcsunmhttzxz.jpg,,,,,,,,,,,,,,,
323,12,Memory,6,,,,,,,00892960530fa.jpg,,,,,,,,,,,,,,,
324,12,Memory,6,,,,,,,sunaixpqndlwhwjtjek.jpg,,,,,,,,,,,,,,,
325,12,Memory,6,,,,,,,00968960627fa.jpg,,,,,,,,,,,,,,,
326,12,Memory,6,,,,,,,00727941205fa.jpg,,,,,,,,,,,,,,,
327,12,Memory,6,,,,,,,sunaaheqzstzxuadglu.jpg,,,,,,,,,,,,,,,
328,12,Memory,6,,,,,,,00858940307fa.jpg,,,,,,,,,,,,,,,
329,12,Memory,6,,,,,,,sunagmhildamktmqjss.jpg,,,,,,,,,,,,,,,
330,12,Memory,6,,,,,,,00109931230fa.jpg,,,,,,,,,,,,,,,
331,12,Memory,6,,,,,,,sunbagfpovqwbuexqdn.jpg,,,,,,,,,,,,,,,
332,12,Memory,6,,,,,,,00903960620fa.jpg,,,,,,,,,,,,,,,
333,12,Memory,6,,,,,,,sunanainkqdvktzoxyl.jpg,,,,,,,,,,,,,,,
334,12,Memory,6,,,,,,,00092931230fa.jpg,,,,,,,,,,,,,,,
335,12,Memory,6,,,,,,,sunabjuovqvyfuzvqwt.jpg,,,,,,,,,,,,,,,
336,12,Memory,6,,,,,,,00719941201fa.jpg,,,,,,,,,,,,,,,
337,12,Memory,6,,,,,,,sunaajuzribjrizdshh.jpg,,,,,,,,,,,,,,,
338,12,Memory,6,,,,,,,00265940128fb.jpg,,,,,,,,,,,,,,,
339,12,Memory,6,,,,,,,sunajbwkywmsqkldfml.jpg,,,,,,,,,,,,,,,
340,12,Memory,6,,,,,,,00198940128fb.jpg,,,,,,,,,,,,,,,
341,12,Memory,6,,,,,,,00866940307fa.jpg,,,,,,,,,,,,,,,
342,12,Memory,6,,,,,,,sunagsiwrmuixqgdimb.jpg,,,,,,,,,,,,,,,
343,12,Memory,6,,,,,,,sunapmfmzadmosuogaz.jpg,,,,,,,,,,,,,,,
344,12,Memory,6,,,,,,,sunadvithllcgmfxsrn.jpg,,,,,,,,,,,,,,,
345,12,Memory,6,,,,,,,00744941201fa.jpg,,,,,,,,,,,,,,,
346,12,Memory,6,,,,,,,00263940128fb.jpg,,,,,,,,,,,,,,,
347,12,Memory,6,,,,,,,00163931230fb.jpg,,,,,,,,,,,,,,,
348,12,Memory,6,,,,,,,00276940422fa.jpg,,,,,,,,,,,,,,,
349,12,Memory,6,,,,,,,sunabwjvmoaddlyxfjr.jpg,,,,,,,,,,,,,,,
350,12,Presentation,7,00559940519fa_sunacjkmnpawfzbyvae.jpg,00507940519fa_sunacacflqoyxhsqzhe.jpg,,,,,,,<,Face,,,,,1,,,,,,,o
351,12,Presentation,7,00778941205fa_sunagcthdfirrcawoic.jpg,00868960307fa_sunajjxttslobudoqbv.jpg,,,,,,,>,Place,,,,,1,,,,,,,x
352,12,Presentation,7,00805941205fa_sunagwzdbtlixdhgolm.jpg,00893960530Fa_sunaloffvbvysigxent.jpg,,,,,,,>,Face,,,,,0,,,,,,,x
353,12,Presentation,7,00630940928fa_sunaczwgyukesaajxnx.jpg,00077931230fb_sunaafgqutfaishsxyu.jpg,,,,,,,>,Place,,,,,1,,,,,,,o
354,12,Presentation,7,00770941201fa_sunaflojskatpeqyzqp.jpg,00076931230fa_sunaafewhewbxmjiurz.jpg,,,,,,,<,Place,,,,,0,,,,,,,o
355,12,Presentation,7,00811960530fa_sunahedfrhtcwpneund.jpg,00090931230fa_sunaahedjlmtqekgyvj.jpg,,,,,,,<,Face,,,,,1,,,,,,,x
356,12,Presentation,7,00125931230fa_sunaalltyvjhbzhkmvg.jpg,00245940128fa_sunabeyhmxodahoieyk.jpg,,,,,,,<,Place,,,,,1,,,,,,,x
357,12,Presentation,7,00562941031fa_sunacjnahdmqfnjfwqx.jpg,00763941205fa_sunafhmnhsdurlvddpw.jpg,,,,,,,>,Place,,,,,1,,,,,,,o
358,12,Presentation,7,00145931230fb_sunaatjesvdupctftmn.jpg,00901960530fa_sunammbnoambmhdxdwd.jpg,,,,,,,>,Face,,,,,1,,,,,,,o
359,12,Presentation,7,00127931230fa_sunaampvucecsfbdafn.jpg,00943960627fa_sunarpsxqkduedrrzyi.jpg,,,,,,,<,Face,,,,,1,,,,,,,o
360,12,Memory,7,,,,,,,sunabmbnddafmywtjjj.jpg,,,,,,,,,,,,,,,
361,12,Memory,7,,,,,,,sunaflojskatpeqyzqp.jpg,,,,,,,,,,,,,,,
362,12,Memory,7,,,,,,,sunabeyhmxodahoieyk.jpg,,,,,,,,,,,,,,,
363,12,Memory,7,,,,,,,00751960620fa.jpg,,,,,,,,,,,,,,,
364,12,Memory,7,,,,,,,00770941201fa.jpg,,,,,,,,,,,,,,,
365,12,Memory,7,,,,,,,00245940128fa.jpg,,,,,,,,,,,,,,,
366,12,Memory,7,,,,,,,00482940519fa.jpg,,,,,,,,,,,,,,,
367,12,Memory,7,,,,,,,00294940422fb.jpg,,,,,,,,,,,,,,,
368,12,Memory,7,,,,,,,sunaajqmsaavkmgbsth.jpg,,,,,,,,,,,,,,,
369,12,Memory,7,,,,,,,00811960530fa.jpg,,,,,,,,,,,,,,,
370,12,Memory,7,,,,,,,sunammbnoambmhdxdwd.jpg,,,,,,,,,,,,,,,
371,12,Memory,7,,,,,,,sunbtpilbhhbmhmeuzq.jpg,,,,,,,,,,,,,,,
372,12,Memory,7,,,,,,,sunahedfrhtcwpneund.jpg,,,,,,,,,,,,,,,
373,12,Memory,7,,,,,,,sunavxokzybtomhbmvm.jpg,,,,,,,,,,,,,,,
374,12,Memory,7,,,,,,,sunaguchqqnrtodtezq.jpg,,,,,,,,,,,,,,,
375,12,Memory,7,,,,,,,sunaezuszgtxnmsxdbk.jpg,,,,,,,,,,,,,,,
376,12,Memory,7,,,,,,,sunaafgqutfaishsxyu.jpg,,,,,,,,,,,,,,,
377,12,Memory,7,,,,,,,00959960627fa.jpg,,,,,,,,,,,,,,,
378,12,Memory,7,,,,,,,00796941205fa.jpg,,,,,,,,,,,,,,,
379,12,Memory,7,,,,,,,sunarpsxqkduedrrzyi.jpg,,,,,,,,,,,,,,,
380,12,Memory,7,,,,,,,00901960530fa.jpg,,,,,,,,,,,,,,,
381,12,Memory,7,,,,,,,00766960620fa.jpg,,,,,,,,,,,,,,,
382,12,Memory,7,,,,,,,00893960530Fa.jpg,,,,,,,,,,,,,,,
383,12,Memory,7,,,,,,,00943960627fa.jpg,,,,,,,,,,,,,,,
384,12,Memory,7,,,,,,,00778941205fa.jpg,,,,,,,,,,,,,,,
385,12,Memory,7,,,,,,,00950960627fa.jpg,,,,,,,,,,,,,,,
386,12,Memory,7,,,,,,,sunagwzdbtlixdhgolm.jpg,,,,,,,,,,,,,,,
387,12,Memory,7,,,,,,,00271940422fa.jpg,,,,,,,,,,,,,,,
388,12,Memory,7,,,,,,,sunabyfxcxhdebvdyfd.jpg,,,,,,,,,,,,,,,
389,12,Memory,7,,,,,,,00125931230fa.jpg,,,,,,,,,,,,,,,
390,12,Memory,7,,,,,,,sunasrjlmglmjzbmqxb.jpg,,,,,,,,,,,,,,,
391,12,Memory,7,,,,,,,00077931230fb.jpg,,,,,,,,,,,,,,,
392,12,Memory,7,,,,,,,sunabrlndkruqokhury.jpg,,,,,,,,,,,,,,,
393,12,Memory,7,,,,,,,00101931230fb.jpg,,,,,,,,,,,,,,,
394,12,Memory,7,,,,,,,sunaalltyvjhbzhkmvg.jpg,,,,,,,,,,,,,,,
395,12,Memory,7,,,,,,,00997960627fa.jpg,,,,,,,,,,,,,,,
396,12,Memory,7,,,,,,,00805941205fa.jpg,,,,,,,,,,,,,,,
397,12,Memory,7,,,,,,,sunagcthdfirrcawoic.jpg,,,,,,,,,,,,,,,
398,12,Memory,7,,,,,,,sunaloffvbvysigxent.jpg,,,,,,,,,,,,,,,
399,12,Memory,7,,,,,,,sunafijbgncijwykrnl.jpg,,,,,,,,,,,,,,,
