,Subject,Trial Type,Run,Cued Composite,Uncued Composite,Cued Face,Cued Place,Uncued Face,Uncued Place,Memory Image,Category,Cued Side,Cued Category,Attention Reaction Time (s),Familiarity Reaction Time (s),Familiarity Rating,Attention Level,Cue Validity,Post Invalid Cue,Pre Invalid Cue,Attention Button,Rating History,Stimulus Onset,Stimulus End,Attention Probe
210,327,Memory,4,,,,,,,00819940307fa.jpg,,,,,1.77,1.0,,,,,,,1553698387.400118,1553698389.480208,
211,327,Memory,4,,,,,,,sunafvsxtzaizojicxx.jpg,,,,,1.467,1.0,,,,,,,1553698390.829071,1553698392.813337,
212,327,Memory,4,,,,,,,00221940128fa.jpg,,,,,0.798,1.0,,,,,,,1553698394.102415,1553698396.090225,
213,327,Memory,4,,,,,,,00915960620fa.jpg,,,,,1.307,1.0,,,,,,,1553698397.348322,1553698399.33294,
214,327,Memory,4,,,,,,,sunagjzcrjvmxzqzljx.jpg,,,,,1.124,3.0,,,,,,,1553698400.603875,1553698402.599749,
215,327,Memory,4,,,,,,,00949960627fb.jpg,,,,,0.0,,,,,,,,1553698403.88921,1553698405.884302,
216,327,Memory,4,,,,,,,sunabcfpwlpolnutyju.jpg,,,,,1.14,2.0,,,,,,,1553698407.15103,1553698409.139327,
217,327,Memory,4,,,,,,,00859940307fa.jpg,,,,,1.922,1.0,,,,,,,1553698410.42386,1553698412.411938,
218,327,Memory,4,,,,,,,00119931230fb.jpg,,,,,0.849,2.0,,,,,,,1553698413.775491,1553698415.758931,
219,327,Memory,4,,,,,,,sunacsdhbbsybcyxnel.jpg,,,,,1.825,1.0,,,,,,,1553698417.059634,1553698419.123443,
220,327,Memory,4,,,,,,,sunasnqkkyhilqkxiqm.jpg,,,,,1.408,3.0,,,,,,,1553698420.411056,1553698422.423042,
221,327,Memory,4,,,,,,,sunaiycurtqsfkvcaso.jpg,,,,,3.0,,,,,,,,1553698423.729078,1553698427.69564,
222,327,Memory,4,,,,,,,00751960620fa.jpg,,,,,1.844,2.0,,,,,,,1553698429.013522,1553698432.980948,
223,327,Memory,4,,,,,,,sunaakvmbftkrgqhjun.jpg,,,,,1.812,4.0,,,,,,,1553698434.299838,1553698438.266767,
224,327,Memory,4,,,,,,,sunahqldjibofgsfdgb.jpg,,,,,1.478,3.0,,,,,,,1553698439.585015,1553698443.551295,
225,327,Memory,4,,,,,,,sunapileznnbbmrwoei.jpg,,,,,1.745,1.0,,,,,,,1553698444.869385,1553698448.837401,
226,327,Memory,4,,,,,,,01009960627fa.jpg,,,,,1.944,1.0,,,,,,,1553698450.170627,1553698454.13887,
227,327,Memory,4,,,,,,,00922960627fa.jpg,,,,,2.144,2.0,,,,,,,1553698455.45602,1553698459.42432,
228,327,Memory,4,,,,,,,sunabjzyxcjnmztdonj.jpg,,,,,1.145,3.0,,,,,,,1553698460.741195,1553698464.709288,
229,327,Memory,4,,,,,,,00554940519fa.jpg,,,,,1.145,2.0,,,,,,,1553698466.025816,1553698470.060781,
230,327,Memory,4,,,,,,,00609940928fa.jpg,,,,,1.878,2.0,,,,,,,1553698471.376866,1553698475.345834,
231,327,Memory,4,,,,,,,00788941205fa.jpg,,,,,1.778,2.0,,,,,,,1553698476.66225,1553698480.63035,
232,327,Memory,4,,,,,,,sunadfktsqjthoglcsm.jpg,,,,,1.61,3.0,,,,,,,1553698481.964566,1553698485.931738,
233,327,Memory,4,,,,,,,sunacycdoztxoluxjyk.jpg,,,,,1.411,4.0,,,,,,,1553698487.265726,1553698491.233821,
234,327,Memory,4,,,,,,,sunapqkyghktgtosuuk.jpg,,,,,0.877,4.0,,,,,,,1553698492.567018,1553698496.535406,
235,327,Memory,4,,,,,,,00810941205fa.jpg,,,,,2.178,3.0,,,,,,,1553698497.852456,1553698501.820422,
236,327,Memory,4,,,,,,,sunbpvgllfdejxcpjqp.jpg,,,,,1.779,2.0,,,,,,,1553698503.154862,1553698507.121759,
237,327,Memory,4,,,,,,,00773960620fa.jpg,,,,,0.845,2.0,,,,,,,1553698508.43879,1553698512.407763,
238,327,Memory,4,,,,,,,sunakgbnzxmfohgehnu.jpg,,,,,2.211,4.0,,,,,,,1553698513.708248,1553698517.675573,
239,327,Memory,4,,,,,,,00638941031fa.jpg,,,,,3.001,,,,,,,,1553698519.009531,1553698522.977689,
240,327,Memory,4,,,,,,,00264940128fb.jpg,,,,,0.745,1.0,,,,,,,1553698524.362876,1553698528.329167,
241,327,Memory,4,,,,,,,sunagountlxpzkytsmp.jpg,,,,,0.911,1.0,,,,,,,1553698529.663975,1553698533.631255,
242,327,Memory,4,,,,,,,sunaezuszgtxnmsxdbk.jpg,,,,,2.577,3.0,,,,,,,1553698534.948145,1553698538.916407,
243,327,Memory,4,,,,,,,sunahctntqrunhdxhtb.jpg,,,,,2.81,2.0,,,,,,,1553698540.217364,1553698544.185009,
244,327,Memory,4,,,,,,,00996960627fa.jpg,,,,,1.579,4.0,,,,,,,1553698545.518111,1553698549.487061,
245,327,Memory,4,,,,,,,00784941205fb.jpg,,,,,0.911,3.0,,,,,,,1553698550.803339,1553698554.788347,
246,327,Memory,4,,,,,,,sunbxzweleltykebgan.jpg,,,,,2.178,2.0,,,,,,,1553698556.138699,1553698560.10699,
247,327,Memory,4,,,,,,,sunacfdkbsrughwqwtt.jpg,,,,,1.545,1.0,,,,,,,1553698561.423176,1553698565.392109,
248,327,Memory,4,,,,,,,00568940928fa.jpg,,,,,1.944,3.0,,,,,,,1553698566.726097,1553698570.693516,
249,327,Memory,4,,,,,,,00878960530fa.jpg,,,,,1.678,2.0,,,,,,,1553698572.010526,1553698575.978443,
