,Subject,Trial Type,Run,Cued Composite,Uncued Composite,Cued Face,Cued Place,Uncued Face,Uncued Place,Memory Image,Category,Cued Side,Cued Category,Attention Response Time (s),Familiarity Reaction Time (s),Familiarity Rating,Attention Level,Cue Validity,Post Invalid Cue,Pre Invalid Cue,Attention Button,Rating History,Stimulus Onset,Stimulus End,Attention Probe
0,1,Presentation,0,00532960627fa_sunaccdtpgenvcbcbcf.jpg,00859940307fa_sunaiycurtqsfkvcaso.jpg,,,,,,,<,Face,,,,,1,,,,,,,x
1,1,Presentation,0,00119931230fb_sunaakvmbftkrgqhjun.jpg,00968960627fa_sunbagfpovqwbuexqdn.jpg,,,,,,,>,Face,,,,,1,,,,,,,o
2,1,Presentation,0,00719941201fa_sunadvithllcgmfxsrn.jpg,00925960627fa_sunapqwnqzxlsfvgsjm.jpg,,,,,,,<,Face,,,,,1,,,,,,,o
3,1,Presentation,0,00876960620fa_sunajwqkfsykceonyig.jpg,00125931230fa_sunaalltyvjhbzhkmvg.jpg,,,,,,,<,Place,,,,,1,,,,,,,o
4,1,Presentation,0,00885960530fa_sunakwlvxjpddialozd.jpg,00938960627fa_sunaqyylsngywqzwfmx.jpg,,,,,,,>,Place,,,,,1,,,,,,,x
5,1,Presentation,0,00308940422fb_sunabwfvcqqidycwypa.jpg,00648941031fa_sunadfndyrtqqiasoig.jpg,,,,,,,>,Face,,,,,1,,,,,,,o
6,1,Presentation,0,00889960530fa_sunaletopenvvozhpxc.jpg,00996960627fa_sunbpvgllfdejxcpjqp.jpg,,,,,,,<,Place,,,,,1,,,,,,,x
7,1,Presentation,0,00111931230fb_sunaakgekhjklxmvulj.jpg,00634940928fa_sunadcphrizvfpljiqt.jpg,,,,,,,>,Place,,,,,1,,,,,,,o
8,1,Presentation,0,00797960620fa_sunagufzbeteqdjxais.jpg,00902960530fa_sunanaacmmosxrfwmvl.jpg,,,,,,,<,Place,,,,,1,,,,,,,o
9,1,Presentation,0,00589940928fa_sunacwggadqsfpovdjv.jpg,00958960627fa_sunavspxmxubqaeidjt.jpg,,,,,,,>,Face,,,,,1,,,,,,,x
10,1,Memory,0,,,,,,,00902960530fa.jpg,,,,,,,,,,,,,,,
11,1,Memory,0,,,,,,,00648941031fa.jpg,,,,,,,,,,,,,,,
12,1,Memory,0,,,,,,,00968960627fa.jpg,,,,,,,,,,,,,,,
13,1,Memory,0,,,,,,,00562941031fa.jpg,,,,,,,,,,,,,,,
14,1,Memory,0,,,,,,,00308940422fb.jpg,,,,,,,,,,,,,,,
15,1,Memory,0,,,,,,,00797960620fa.jpg,,,,,,,,,,,,,,,
16,1,Memory,0,,,,,,,sunabckqabszusgcykj.jpg,,,,,,,,,,,,,,,
17,1,Memory,0,,,,,,,sunagdzlvkqtpnfxfcg.jpg,,,,,,,,,,,,,,,
18,1,Memory,0,,,,,,,sunanainkqdvktzoxyl.jpg,,,,,,,,,,,,,,,
19,1,Memory,0,,,,,,,sunaamvxnvouicstkjb.jpg,,,,,,,,,,,,,,,
20,1,Memory,0,,,,,,,sunaakgekhjklxmvulj.jpg,,,,,,,,,,,,,,,
21,1,Memory,0,,,,,,,00885960530fa.jpg,,,,,,,,,,,,,,,
22,1,Memory,0,,,,,,,00780960530fa.jpg,,,,,,,,,,,,,,,
23,1,Memory,0,,,,,,,sunacwggadqsfpovdjv.jpg,,,,,,,,,,,,,,,
24,1,Memory,0,,,,,,,sunapqwnqzxlsfvgsjm.jpg,,,,,,,,,,,,,,,
25,1,Memory,0,,,,,,,00925960627fa.jpg,,,,,,,,,,,,,,,
26,1,Memory,0,,,,,,,sunanaacmmosxrfwmvl.jpg,,,,,,,,,,,,,,,
27,1,Memory,0,,,,,,,00589940928fa.jpg,,,,,,,,,,,,,,,
28,1,Memory,0,,,,,,,sunabwfvcqqidycwypa.jpg,,,,,,,,,,,,,,,
29,1,Memory,0,,,,,,,sunaaelotvjgibjtjhs.jpg,,,,,,,,,,,,,,,
30,1,Memory,0,,,,,,,sunagetqixeypsysbpn.jpg,,,,,,,,,,,,,,,
31,1,Memory,0,,,,,,,sunbagfpovqwbuexqdn.jpg,,,,,,,,,,,,,,,
32,1,Memory,0,,,,,,,00130931230fa.jpg,,,,,,,,,,,,,,,
33,1,Memory,0,,,,,,,sunacjnahdmqfnjfwqx.jpg,,,,,,,,,,,,,,,
34,1,Memory,0,,,,,,,00634940928fa.jpg,,,,,,,,,,,,,,,
35,1,Memory,0,,,,,,,sunadcphrizvfpljiqt.jpg,,,,,,,,,,,,,,,
36,1,Memory,0,,,,,,,00903960620fa.jpg,,,,,,,,,,,,,,,
37,1,Memory,0,,,,,,,01004960627fa.jpg,,,,,,,,,,,,,,,
38,1,Memory,0,,,,,,,00779941205fa.jpg,,,,,,,,,,,,,,,
39,1,Memory,0,,,,,,,sunaangbuylfvckqqoo.jpg,,,,,,,,,,,,,,,
40,1,Memory,0,,,,,,,00111931230fb.jpg,,,,,,,,,,,,,,,
41,1,Memory,0,,,,,,,sunakwlvxjpddialozd.jpg,,,,,,,,,,,,,,,
42,1,Memory,0,,,,,,,01000960627fa.jpg,,,,,,,,,,,,,,,
43,1,Memory,0,,,,,,,sunbwtlihsuptkrckid.jpg,,,,,,,,,,,,,,,
44,1,Memory,0,,,,,,,sunbvzmgrdvaakxusbu.jpg,,,,,,,,,,,,,,,
45,1,Memory,0,,,,,,,sunagufzbeteqdjxais.jpg,,,,,,,,,,,,,,,
46,1,Memory,0,,,,,,,00062931230fb.jpg,,,,,,,,,,,,,,,
47,1,Memory,0,,,,,,,00131931230fb.jpg,,,,,,,,,,,,,,,
48,1,Memory,0,,,,,,,sunadfndyrtqqiasoig.jpg,,,,,,,,,,,,,,,
49,1,Memory,0,,,,,,,00227940128fa.jpg,,,,,,,,,,,,,,,
50,1,Presentation,1,00993960627fa_sunbprywzqxjcezkbch.jpg,00630941031fa_sunadakkdovnuzlycvp.jpg,,,,,,,>,Place,,,,,0,,,,,,,x
51,1,Presentation,1,00793941205fa_sunagtjwilqjvxohypn.jpg,00548940519fa_sunacerqowiaeoqkmsq.jpg,,,,,,,>,Face,,,,,1,,,,,,,o
52,1,Presentation,1,00887960530_sunalcrtwiycqobgelp.jpg,00296940422fa_sunabrwnslxalcohfre.jpg,,,,,,,<,Place,,,,,1,,,,,,,o
53,1,Presentation,1,00543940519fa_sunacepzfrmtkiqonpy.jpg,00752960620fa_sunafbwnojpqeyzssoe.jpg,,,,,,,<,Face,,,,,1,,,,,,,o
54,1,Presentation,1,00638941031fa_sunadfktsqjthoglcsm.jpg,00908960530fa_sunanwjjyqqwzqrqagd.jpg,,,,,,,<,Place,,,,,1,,,,,,,o
55,1,Presentation,1,00081941031fa_sunaaftlyfudyzuhqzf.jpg,00816941205fa_sunahmhrncocyhsjpxk.jpg,,,,,,,>,Face,,,,,1,,,,,,,x
56,1,Presentation,1,00145931230fb_sunaatjesvdupctftmn.jpg,00750941201fa_sunaeuzwggvibufclwf.jpg,,,,,,,<,Place,,,,,1,,,,,,,o
57,1,Presentation,1,01009960627fa_sunbxzweleltykebgan.jpg,00264940128fb_sunabjzyxcjnmztdonj.jpg,,,,,,,>,Face,,,,,1,,,,,,,x
58,1,Presentation,1,00834940307fa_sunaibnpvhkdpdnzcnz.jpg,00670941121fa_sunadochqcucscehsgk.jpg,,,,,,,>,Place,,,,,1,,,,,,,x
59,1,Presentation,1,00774941201fa_sunafvtpfczkzopbgue.jpg,00070940307fa_sunaaeplwsfslcbtojr.jpg,,,,,,,<,Face,,,,,1,,,,,,,o
60,1,Memory,1,,,,,,,00776941205fa.jpg,,,,,,,,,,,,,,,
61,1,Memory,1,,,,,,,sunabrwnslxalcohfre.jpg,,,,,,,,,,,,,,,
62,1,Memory,1,,,,,,,00296940422fa.jpg,,,,,,,,,,,,,,,
63,1,Memory,1,,,,,,,sunabxmguapjekttvwm.jpg,,,,,,,,,,,,,,,
64,1,Memory,1,,,,,,,sunaafvitpexrpvumsa.jpg,,,,,,,,,,,,,,,
65,1,Memory,1,,,,,,,sunalcrtwiycqobgelp.jpg,,,,,,,,,,,,,,,
66,1,Memory,1,,,,,,,sunaqsolmfydodnakub.jpg,,,,,,,,,,,,,,,
67,1,Memory,1,,,,,,,00245940128fa.jpg,,,,,,,,,,,,,,,
68,1,Memory,1,,,,,,,sunabeyhmxodahoieyk.jpg,,,,,,,,,,,,,,,
69,1,Memory,1,,,,,,,00082931230fa.jpg,,,,,,,,,,,,,,,
70,1,Memory,1,,,,,,,00316940422fa.jpg,,,,,,,,,,,,,,,
71,1,Memory,1,,,,,,,00789960620fa.jpg,,,,,,,,,,,,,,,
72,1,Memory,1,,,,,,,sunaazzyhbvqjpmazjq.jpg,,,,,,,,,,,,,,,
73,1,Memory,1,,,,,,,00887960530.jpg,,,,,,,,,,,,,,,
74,1,Memory,1,,,,,,,01009960627fa.jpg,,,,,,,,,,,,,,,
75,1,Memory,1,,,,,,,00788941205fa.jpg,,,,,,,,,,,,,,,
76,1,Memory,1,,,,,,,sunapileznnbbmrwoei.jpg,,,,,,,,,,,,,,,
77,1,Memory,1,,,,,,,sunadfktsqjthoglcsm.jpg,,,,,,,,,,,,,,,
78,1,Memory,1,,,,,,,00752960620fa.jpg,,,,,,,,,,,,,,,
79,1,Memory,1,,,,,,,00793941205fa.jpg,,,,,,,,,,,,,,,
80,1,Memory,1,,,,,,,sunafxokyavhgptyfye.jpg,,,,,,,,,,,,,,,
81,1,Memory,1,,,,,,,sunbxzweleltykebgan.jpg,,,,,,,,,,,,,,,
82,1,Memory,1,,,,,,,sunafbwnojpqeyzssoe.jpg,,,,,,,,,,,,,,,
83,1,Memory,1,,,,,,,sunaeuzwggvibufclwf.jpg,,,,,,,,,,,,,,,
84,1,Memory,1,,,,,,,sunaathajvxrgptwhoj.jpg,,,,,,,,,,,,,,,
85,1,Memory,1,,,,,,,00915960620fa.jpg,,,,,,,,,,,,,,,
86,1,Memory,1,,,,,,,00670941121fa.jpg,,,,,,,,,,,,,,,
87,1,Memory,1,,,,,,,sunagpancjmxqfazssf.jpg,,,,,,,,,,,,,,,
88,1,Memory,1,,,,,,,00630941031fa.jpg,,,,,,,,,,,,,,,
89,1,Memory,1,,,,,,,00638941031fa.jpg,,,,,,,,,,,,,,,
90,1,Memory,1,,,,,,,00208940128fa.jpg,,,,,,,,,,,,,,,
91,1,Memory,1,,,,,,,sunagtjwilqjvxohypn.jpg,,,,,,,,,,,,,,,
92,1,Memory,1,,,,,,,sunaibnpvhkdpdnzcnz.jpg,,,,,,,,,,,,,,,
93,1,Memory,1,,,,,,,00937960627fa.jpg,,,,,,,,,,,,,,,
94,1,Memory,1,,,,,,,sunagountlxpzkytsmp.jpg,,,,,,,,,,,,,,,
95,1,Memory,1,,,,,,,00834940307fa.jpg,,,,,,,,,,,,,,,
96,1,Memory,1,,,,,,,00144931230fb.jpg,,,,,,,,,,,,,,,
97,1,Memory,1,,,,,,,sunadochqcucscehsgk.jpg,,,,,,,,,,,,,,,
98,1,Memory,1,,,,,,,00750941201fa.jpg,,,,,,,,,,,,,,,
99,1,Memory,1,,,,,,,sunadakkdovnuzlycvp.jpg,,,,,,,,,,,,,,,
100,1,Presentation,2,00807941205fa_sunahawfngukizslzsd.jpg,00235940128fb_sunabclssnoeuigtawp.jpg,,,,,,,>,Place,,,,,0,,,,,,,x
101,1,Presentation,2,00893960530Fa_sunaloffvbvysigxent.jpg,00971960627fa_sunbbegcweqnetpdlrh.jpg,,,,,,,>,Face,,,,,1,,,,,,,o
102,1,Presentation,2,00481940519fa_sunabxsuqbleluwczoy.jpg,00805941205fa_sunagwzdbtlixdhgolm.jpg,,,,,,,<,Place,,,,,0,,,,,,,o
103,1,Presentation,2,00976960627fa_sunbbhqyyzmsxhsbjmp.jpg,00871940307_sunajrujcsdxmfbssmc.jpg,,,,,,,>,Face,,,,,1,,,,,,,x
104,1,Presentation,2,00827940307fa_sunahtfxgsrmkiulnwk.jpg,00564941031fa_sunacsaovnjezqwbykf.jpg,,,,,,,>,Place,,,,,1,,,,,,,x
105,1,Presentation,2,01011960627fa_sundahdxwmcdluscvot.jpg,00744941201fa_sunaeomlfaabhpswasy.jpg,,,,,,,<,Place,,,,,1,,,,,,,o
106,1,Presentation,2,00540940519fa_sunacdnquypmsshhsbk.jpg,00778941205fa_sunagcthdfirrcawoic.jpg,,,,,,,<,Face,,,,,1,,,,,,,o
107,1,Presentation,2,00650941031fa_sunadikxpvqeabxrvvc.jpg,00211940128fa_sunabasphceswhwwqvv.jpg,,,,,,,>,Face,,,,,1,,,,,,,x
108,1,Presentation,2,00786941205fa_sunagmhildamktmqjss.jpg,00884960530fa_sunakodkcslgqhqlgwl.jpg,,,,,,,<,Face,,,,,1,,,,,,,o
109,1,Presentation,2,00950960627fa_sunasrjlmglmjzbmqxb.jpg,00126931230fb_sunaamdjwemxpmmtypi.jpg,,,,,,,<,Place,,,,,1,,,,,,,x
110,1,Memory,2,,,,,,,sunaazezcsunmhttzxz.jpg,,,,,,,,,,,,,,,
111,1,Memory,2,,,,,,,sunaamdjwemxpmmtypi.jpg,,,,,,,,,,,,,,,
112,1,Memory,2,,,,,,,sunadikxpvqeabxrvvc.jpg,,,,,,,,,,,,,,,
113,1,Memory,2,,,,,,,00987960627fa.jpg,,,,,,,,,,,,,,,
114,1,Memory,2,,,,,,,sunbbfqwjpdxniyhies.jpg,,,,,,,,,,,,,,,
115,1,Memory,2,,,,,,,00972960627fa.jpg,,,,,,,,,,,,,,,
116,1,Memory,2,,,,,,,00102931230fa.jpg,,,,,,,,,,,,,,,
117,1,Memory,2,,,,,,,00235940128fb.jpg,,,,,,,,,,,,,,,
118,1,Memory,2,,,,,,,00481940519fa.jpg,,,,,,,,,,,,,,,
119,1,Memory,2,,,,,,,00650941031fa.jpg,,,,,,,,,,,,,,,
120,1,Memory,2,,,,,,,00745941205fa.jpg,,,,,,,,,,,,,,,
121,1,Memory,2,,,,,,,sunaivdjruhkrfywfed.jpg,,,,,,,,,,,,,,,
122,1,Memory,2,,,,,,,sunagutjvdvnhxejerz.jpg,,,,,,,,,,,,,,,
123,1,Memory,2,,,,,,,sunbloeoiozwjjsiamp.jpg,,,,,,,,,,,,,,,
124,1,Memory,2,,,,,,,sunajrujcsdxmfbssmc.jpg,,,,,,,,,,,,,,,
125,1,Memory,2,,,,,,,sunasrjlmglmjzbmqxb.jpg,,,,,,,,,,,,,,,
126,1,Memory,2,,,,,,,00211940128fa.jpg,,,,,,,,,,,,,,,
127,1,Memory,2,,,,,,,00944960627fa.jpg,,,,,,,,,,,,,,,
128,1,Memory,2,,,,,,,sunabxsuqbleluwczoy.jpg,,,,,,,,,,,,,,,
129,1,Memory,2,,,,,,,sundahdxwmcdluscvot.jpg,,,,,,,,,,,,,,,
130,1,Memory,2,,,,,,,00126931230fb.jpg,,,,,,,,,,,,,,,
131,1,Memory,2,,,,,,,00847940307fa.jpg,,,,,,,,,,,,,,,
132,1,Memory,2,,,,,,,sunaeouogqolxvggaoq.jpg,,,,,,,,,,,,,,,
133,1,Memory,2,,,,,,,00786941205fa.jpg,,,,,,,,,,,,,,,
134,1,Memory,2,,,,,,,00939960627fa.jpg,,,,,,,,,,,,,,,
135,1,Memory,2,,,,,,,sunasbbntuiheekqyaq.jpg,,,,,,,,,,,,,,,
136,1,Memory,2,,,,,,,sunabasphceswhwwqvv.jpg,,,,,,,,,,,,,,,
137,1,Memory,2,,,,,,,sunaajspcoepticvplv.jpg,,,,,,,,,,,,,,,
138,1,Memory,2,,,,,,,00950960627fa.jpg,,,,,,,,,,,,,,,
139,1,Memory,2,,,,,,,00507940519fa.jpg,,,,,,,,,,,,,,,
140,1,Memory,2,,,,,,,sunakodkcslgqhqlgwl.jpg,,,,,,,,,,,,,,,
141,1,Memory,2,,,,,,,sunabclssnoeuigtawp.jpg,,,,,,,,,,,,,,,
142,1,Memory,2,,,,,,,00198940128fb.jpg,,,,,,,,,,,,,,,
143,1,Memory,2,,,,,,,sunagmhildamktmqjss.jpg,,,,,,,,,,,,,,,
144,1,Memory,2,,,,,,,sunarceibpcyacbmfga.jpg,,,,,,,,,,,,,,,
145,1,Memory,2,,,,,,,00871940307.jpg,,,,,,,,,,,,,,,
146,1,Memory,2,,,,,,,00884960530fa.jpg,,,,,,,,,,,,,,,
147,1,Memory,2,,,,,,,01011960627fa.jpg,,,,,,,,,,,,,,,
148,1,Memory,2,,,,,,,sunacacflqoyxhsqzhe.jpg,,,,,,,,,,,,,,,
149,1,Memory,2,,,,,,,00799941205fa.jpg,,,,,,,,,,,,,,,
150,1,Presentation,3,00914960620fa_sunaozisvwfbmlkfhzv.jpg,00270940422fb_sunabllobxadqcyttej.jpg,,,,,,,<,Place,,,,,1,,,,,,,x
151,1,Presentation,3,00949960627fb_sunasnqkkyhilqkxiqm.jpg,00184940128fa_sunaavtbadenwnzeutj.jpg,,,,,,,<,Face,,,,,1,,,,,,,x
152,1,Presentation,3,00663941121fa_sunadnjjzohjhbohlwq.jpg,00935960627fa_sunaqbmgkgqucajzrkp.jpg,,,,,,,>,Face,,,,,1,,,,,,,x
153,1,Presentation,3,00828940307fa_sunahuynahneraqftyz.jpg,00313940422fa_sunabwjvmoaddlyxfjr.jpg,,,,,,,>,Place,,,,,0,,,,,,,x
154,1,Presentation,3,00116931230fa_sunaakqepfoeqomfgxf.jpg,00905960530fa_sunanmoqeyprjjjfxjt.jpg,,,,,,,>,Face,,,,,0,,,,,,,o
155,1,Presentation,3,00221940128fa_sunabcfpwlpolnutyju.jpg,00819940307fa_sunahqldjibofgsfdgb.jpg,,,,,,,<,Place,,,,,1,,,,,,,o
156,1,Presentation,3,00836940307fa_sunainqelldeebvxtcz.jpg,00860940307fa_sunaizeyhvjzknwjudw.jpg,,,,,,,<,Face,,,,,1,,,,,,,x
157,1,Presentation,3,00953960627fa_sunatstrpjxhvtbaczf.jpg,00262940128fa_sunabizydfotqddlnjp.jpg,,,,,,,>,Place,,,,,0,,,,,,,x
158,1,Presentation,3,00866940307fa_sunajbwkywmsqkldfml.jpg,00149931230fa_sunaauglwmctnkxyird.jpg,,,,,,,<,Place,,,,,1,,,,,,,x
159,1,Presentation,3,00630940928fa_sunaczwgyukesaajxnx.jpg,00647941031fa_sunadflbrkckmepztql.jpg,,,,,,,>,Face,,,,,1,,,,,,,x
160,1,Memory,3,,,,,,,sunaczwgyukesaajxnx.jpg,,,,,,,,,,,,,,,
161,1,Memory,3,,,,,,,00754941201fa.jpg,,,,,,,,,,,,,,,
162,1,Memory,3,,,,,,,sunahqldjibofgsfdgb.jpg,,,,,,,,,,,,,,,
163,1,Memory,3,,,,,,,sunbesrwkdsffeogeqq.jpg,,,,,,,,,,,,,,,
164,1,Memory,3,,,,,,,00483940519fa.jpg,,,,,,,,,,,,,,,
165,1,Memory,3,,,,,,,00184940128fa.jpg,,,,,,,,,,,,,,,
166,1,Memory,3,,,,,,,sunaaemixhfquhnxxlm.jpg,,,,,,,,,,,,,,,
167,1,Memory,3,,,,,,,sunaauglwmctnkxyird.jpg,,,,,,,,,,,,,,,
168,1,Memory,3,,,,,,,sunabizydfotqddlnjp.jpg,,,,,,,,,,,,,,,
169,1,Memory,3,,,,,,,sunabcfpwlpolnutyju.jpg,,,,,,,,,,,,,,,
170,1,Memory,3,,,,,,,00982960627fa.jpg,,,,,,,,,,,,,,,
171,1,Memory,3,,,,,,,00988960627fa.jpg,,,,,,,,,,,,,,,
172,1,Memory,3,,,,,,,00065931230fb.jpg,,,,,,,,,,,,,,,
173,1,Memory,3,,,,,,,sunaglqunwuycxydmyu.jpg,,,,,,,,,,,,,,,
174,1,Memory,3,,,,,,,00609940928fa.jpg,,,,,,,,,,,,,,,
175,1,Memory,3,,,,,,,sunbmaiocftdtvnzgap.jpg,,,,,,,,,,,,,,,
176,1,Memory,3,,,,,,,sunaffgsyyvoqdlkmnk.jpg,,,,,,,,,,,,,,,
177,1,Memory,3,,,,,,,00630940928fa.jpg,,,,,,,,,,,,,,,
178,1,Memory,3,,,,,,,sunavxokzybtomhbmvm.jpg,,,,,,,,,,,,,,,
179,1,Memory,3,,,,,,,sunainqelldeebvxtcz.jpg,,,,,,,,,,,,,,,
180,1,Memory,3,,,,,,,00218940128fa.jpg,,,,,,,,,,,,,,,
181,1,Memory,3,,,,,,,sunadnjjzohjhbohlwq.jpg,,,,,,,,,,,,,,,
182,1,Memory,3,,,,,,,00819940307fa.jpg,,,,,,,,,,,,,,,
183,1,Memory,3,,,,,,,00986960627fa.jpg,,,,,,,,,,,,,,,
184,1,Memory,3,,,,,,,00262940128fa.jpg,,,,,,,,,,,,,,,
185,1,Memory,3,,,,,,,00221940128fa.jpg,,,,,,,,,,,,,,,
186,1,Memory,3,,,,,,,sunabbwggenhfbftyvi.jpg,,,,,,,,,,,,,,,
187,1,Memory,3,,,,,,,sunabwjvmoaddlyxfjr.jpg,,,,,,,,,,,,,,,
188,1,Memory,3,,,,,,,00149931230fa.jpg,,,,,,,,,,,,,,,
189,1,Memory,3,,,,,,,00313940422fa.jpg,,,,,,,,,,,,,,,
190,1,Memory,3,,,,,,,sunabyvpwkgsjtijdwj.jpg,,,,,,,,,,,,,,,
191,1,Memory,3,,,,,,,sunbgzjryivyczuvkvm.jpg,,,,,,,,,,,,,,,
192,1,Memory,3,,,,,,,00866940307fa.jpg,,,,,,,,,,,,,,,
193,1,Memory,3,,,,,,,00836940307fa.jpg,,,,,,,,,,,,,,,
194,1,Memory,3,,,,,,,sunacycdoztxoluxjyk.jpg,,,,,,,,,,,,,,,
195,1,Memory,3,,,,,,,00959960627fa.jpg,,,,,,,,,,,,,,,
196,1,Memory,3,,,,,,,sunaavtbadenwnzeutj.jpg,,,,,,,,,,,,,,,
197,1,Memory,3,,,,,,,00663941121fa.jpg,,,,,,,,,,,,,,,
198,1,Memory,3,,,,,,,00785941205fa.jpg,,,,,,,,,,,,,,,
199,1,Memory,3,,,,,,,sunajbwkywmsqkldfml.jpg,,,,,,,,,,,,,,,
200,1,Presentation,4,00878960530fa_sunakgbnzxmfohgehnu.jpg,00705941205fa_sunadtlxenqqxsyjvix.jpg,,,,,,,>,Place,,,,,1,,,,,,,o
201,1,Presentation,4,00271940422fa_sunabmbnddafmywtjjj.jpg,00598941031fa_sunacxtcahkymosigud.jpg,,,,,,,>,Face,,,,,1,,,,,,,x
202,1,Presentation,4,00854940307fa_sunaiwduelojtwaqeyh.jpg,00132931230fb_sunaanjcbzdvtvblsdy.jpg,,,,,,,<,Place,,,,,1,,,,,,,o
203,1,Presentation,4,00564940928fa_sunacmpqqfbsvlzinzl.jpg,00127931230fa_sunaampvucecsfbdafn.jpg,,,,,,,>,Face,,,,,1,,,,,,,o
204,1,Presentation,4,00265940128fb_sunabkmdplkdbvxriff.jpg,00761960627fa_sunafgdqbclkwfocdhg.jpg,,,,,,,<,Face,,,,,1,,,,,,,x
205,1,Presentation,4,00900960530fa_sunamlotskmmsjeogby.jpg,00943960627fa_sunarpsxqkduedrrzyi.jpg,,,,,,,>,Place,,,,,1,,,,,,,o
206,1,Presentation,4,00140931230fb_sunaapllqyqlykszopd.jpg,00743941201fa_sunaeoghzrjarigmwua.jpg,,,,,,,<,Face,,,,,1,,,,,,,x
207,1,Presentation,4,00851940307fa_sunaivflshbyfrfzhqb.jpg,00153931230fa_sunaauhozyxzeeqstxi.jpg,,,,,,,<,Place,,,,,1,,,,,,,x
208,1,Presentation,4,00751960620fa_sunaezuszgtxnmsxdbk.jpg,00922960627fa_sunapqkyghktgtosuuk.jpg,,,,,,,>,Place,,,,,0,,,,,,,x
209,1,Presentation,4,00913960530fa_sunaooffzffbhcpirmm.jpg,00870940307fa_sunajrgtewnualfcerj.jpg,,,,,,,<,Face,,,,,1,,,,,,,x
210,1,Memory,4,,,,,,,sunadbdqzigzwipuipr.jpg,,,,,,,,,,,,,,,
211,1,Memory,4,,,,,,,00818940307fa.jpg,,,,,,,,,,,,,,,
212,1,Memory,4,,,,,,,sunaizgnnplsvajzhkc.jpg,,,,,,,,,,,,,,,
213,1,Memory,4,,,,,,,sunahpblecxtmuzkmxb.jpg,,,,,,,,,,,,,,,
214,1,Memory,4,,,,,,,00153931230fa.jpg,,,,,,,,,,,,,,,
215,1,Memory,4,,,,,,,sunaauhozyxzeeqstxi.jpg,,,,,,,,,,,,,,,
216,1,Memory,4,,,,,,,00140931230fb.jpg,,,,,,,,,,,,,,,
217,1,Memory,4,,,,,,,sunacvjlsylseoghjup.jpg,,,,,,,,,,,,,,,
218,1,Memory,4,,,,,,,00271940422fa.jpg,,,,,,,,,,,,,,,
219,1,Memory,4,,,,,,,sunaakmxzhuceuiryah.jpg,,,,,,,,,,,,,,,
220,1,Memory,4,,,,,,,sunabzuqsrgcsonqlkz.jpg,,,,,,,,,,,,,,,
221,1,Memory,4,,,,,,,00260940128fa.jpg,,,,,,,,,,,,,,,
222,1,Memory,4,,,,,,,00862940307fa.jpg,,,,,,,,,,,,,,,
223,1,Memory,4,,,,,,,sunaampvucecsfbdafn.jpg,,,,,,,,,,,,,,,
224,1,Memory,4,,,,,,,sunacmpqqfbsvlzinzl.jpg,,,,,,,,,,,,,,,
225,1,Memory,4,,,,,,,sunabmytpyhsgigllxu.jpg,,,,,,,,,,,,,,,
226,1,Memory,4,,,,,,,00505960627fa.jpg,,,,,,,,,,,,,,,
227,1,Memory,4,,,,,,,sunadtlxenqqxsyjvix.jpg,,,,,,,,,,,,,,,
228,1,Memory,4,,,,,,,sunbasypfgzjtomktmu.jpg,,,,,,,,,,,,,,,
229,1,Memory,4,,,,,,,sunacfdkbsrughwqwtt.jpg,,,,,,,,,,,,,,,
230,1,Memory,4,,,,,,,sunabgfhvifeijihhjw.jpg,,,,,,,,,,,,,,,
231,1,Memory,4,,,,,,,00554940519fa.jpg,,,,,,,,,,,,,,,
232,1,Memory,4,,,,,,,00265940128fb.jpg,,,,,,,,,,,,,,,
233,1,Memory,4,,,,,,,00751960620fa.jpg,,,,,,,,,,,,,,,
234,1,Memory,4,,,,,,,00576941031fa.jpg,,,,,,,,,,,,,,,
235,1,Memory,4,,,,,,,00276940422fa.jpg,,,,,,,,,,,,,,,
236,1,Memory,4,,,,,,,00705941205fa.jpg,,,,,,,,,,,,,,,
237,1,Memory,4,,,,,,,sunaezuszgtxnmsxdbk.jpg,,,,,,,,,,,,,,,
238,1,Memory,4,,,,,,,00115931230fa.jpg,,,,,,,,,,,,,,,
239,1,Memory,4,,,,,,,00598941031fa.jpg,,,,,,,,,,,,,,,
240,1,Memory,4,,,,,,,sunabmbnddafmywtjjj.jpg,,,,,,,,,,,,,,,
241,1,Memory,4,,,,,,,sunarpsxqkduedrrzyi.jpg,,,,,,,,,,,,,,,
242,1,Memory,4,,,,,,,sunabkmdplkdbvxriff.jpg,,,,,,,,,,,,,,,
243,1,Memory,4,,,,,,,00127931230fa.jpg,,,,,,,,,,,,,,,
244,1,Memory,4,,,,,,,00564940928fa.jpg,,,,,,,,,,,,,,,
245,1,Memory,4,,,,,,,sunacxtcahkymosigud.jpg,,,,,,,,,,,,,,,
246,1,Memory,4,,,,,,,00631940928fa.jpg,,,,,,,,,,,,,,,
247,1,Memory,4,,,,,,,00970960627fa.jpg,,,,,,,,,,,,,,,
248,1,Memory,4,,,,,,,00943960627fa.jpg,,,,,,,,,,,,,,,
249,1,Memory,4,,,,,,,sunaapllqyqlykszopd.jpg,,,,,,,,,,,,,,,
250,1,Presentation,5,00942960627fa_sunarfdklgdnjgeqfjg.jpg,00090931230fa_sunaahedjlmtqekgyvj.jpg,,,,,,,<,Place,,,,,1,,,,,,,o
251,1,Presentation,5,00071941031fa_sunaaexqbtdswxrqjvz.jpg,00122931230fa_sunaakxjfbrrequcjmx.jpg,,,,,,,<,Face,,,,,1,,,,,,,o
252,1,Presentation,5,00185940422fb_sunaawqdbpihmlbwyyn.jpg,00795941205fa_sunagtumacdlmciqamz.jpg,,,,,,,>,Place,,,,,1,,,,,,,o
253,1,Presentation,5,00869940307fa_sunajoveqhiprwqgoco.jpg,00092931230fa_sunaaheqzstzxuadglu.jpg,,,,,,,>,Face,,,,,0,,,,,,,o
254,1,Presentation,5,00158931230fb_sunaavchcbptaerhcfy.jpg,00146960620fb_sunaatpeezlljqaxlhj.jpg,,,,,,,>,Place,,,,,1,,,,,,,x
255,1,Presentation,5,00529940519fa_sunacbeefkxpymwevpk.jpg,00829940307fa_sunahwgbqkqcrwprgvh.jpg,,,,,,,<,Face,,,,,1,,,,,,,x
256,1,Presentation,5,00138931230fa_sunaapfaivxqoynnwwp.jpg,00071940128fa_sunaaexpnawiehinlpy.jpg,,,,,,,<,Place,,,,,1,,,,,,,o
257,1,Presentation,5,01207940128fa_sundbixjudsgeuuehrn.jpg,00136931230fb_sunaanptmsknhirrzed.jpg,,,,,,,<,Face,,,,,1,,,,,,,o
258,1,Presentation,5,00947960627fa_sunasmmcxdddtmtazwx.jpg,00076931230fa_sunaafewhewbxmjiurz.jpg,,,,,,,>,Place,,,,,1,,,,,,,o
259,1,Presentation,5,00742941201fa_sunaenwuebvlpdmntju.jpg,00197940128fa_sunaaylzyqlqrsmfwif.jpg,,,,,,,>,Face,,,,,1,,,,,,,o
260,1,Memory,5,,,,,,,00880960530fa.jpg,,,,,,,,,,,,,,,
261,1,Memory,5,,,,,,,sunaahwnmtqsrhocysw.jpg,,,,,,,,,,,,,,,
262,1,Memory,5,,,,,,,00741941201fa.jpg,,,,,,,,,,,,,,,
263,1,Memory,5,,,,,,,sunagtqhhwxjeuxdebe.jpg,,,,,,,,,,,,,,,
264,1,Memory,5,,,,,,,sunaflojskatpeqyzqp.jpg,,,,,,,,,,,,,,,
265,1,Memory,5,,,,,,,00136931230fb.jpg,,,,,,,,,,,,,,,
266,1,Memory,5,,,,,,,00973960627fa.jpg,,,,,,,,,,,,,,,
267,1,Memory,5,,,,,,,00869940307fa.jpg,,,,,,,,,,,,,,,
268,1,Memory,5,,,,,,,00770941201fa.jpg,,,,,,,,,,,,,,,
269,1,Memory,5,,,,,,,sunbbgtoeuzierkkajt.jpg,,,,,,,,,,,,,,,
270,1,Memory,5,,,,,,,sunabwmcbaxwioksdgw.jpg,,,,,,,,,,,,,,,
271,1,Memory,5,,,,,,,sunahwgbqkqcrwprgvh.jpg,,,,,,,,,,,,,,,
272,1,Memory,5,,,,,,,00092931230fa.jpg,,,,,,,,,,,,,,,
273,1,Memory,5,,,,,,,sunaafynehyrzpsoaml.jpg,,,,,,,,,,,,,,,
274,1,Memory,5,,,,,,,00314940422fa.jpg,,,,,,,,,,,,,,,
275,1,Memory,5,,,,,,,sunakmnfgklupjijsgf.jpg,,,,,,,,,,,,,,,
276,1,Memory,5,,,,,,,00829940307fa.jpg,,,,,,,,,,,,,,,
277,1,Memory,5,,,,,,,sunaaylzyqlqrsmfwif.jpg,,,,,,,,,,,,,,,
278,1,Memory,5,,,,,,,00529940519fa.jpg,,,,,,,,,,,,,,,
279,1,Memory,5,,,,,,,00795941205fa.jpg,,,,,,,,,,,,,,,
280,1,Memory,5,,,,,,,00073931230fa.jpg,,,,,,,,,,,,,,,
281,1,Memory,5,,,,,,,sunaemcowdozyphwknd.jpg,,,,,,,,,,,,,,,
282,1,Memory,5,,,,,,,sunaafbmtoniaasysgu.jpg,,,,,,,,,,,,,,,
283,1,Memory,5,,,,,,,sunaygrtwrwfezqjizr.jpg,,,,,,,,,,,,,,,
284,1,Memory,5,,,,,,,sunacbeefkxpymwevpk.jpg,,,,,,,,,,,,,,,
285,1,Memory,5,,,,,,,00966960627fa.jpg,,,,,,,,,,,,,,,
286,1,Memory,5,,,,,,,sunagtumacdlmciqamz.jpg,,,,,,,,,,,,,,,
287,1,Memory,5,,,,,,,00942960627fa.jpg,,,,,,,,,,,,,,,
288,1,Memory,5,,,,,,,00947960627fa.jpg,,,,,,,,,,,,,,,
289,1,Memory,5,,,,,,,00086931230fa.jpg,,,,,,,,,,,,,,,
290,1,Memory,5,,,,,,,00093931230fa.jpg,,,,,,,,,,,,,,,
291,1,Memory,5,,,,,,,sunarfdklgdnjgeqfjg.jpg,,,,,,,,,,,,,,,
292,1,Memory,5,,,,,,,00197940128fa.jpg,,,,,,,,,,,,,,,
293,1,Memory,5,,,,,,,00794960620fa.jpg,,,,,,,,,,,,,,,
294,1,Memory,5,,,,,,,sunaaheqzstzxuadglu.jpg,,,,,,,,,,,,,,,
295,1,Memory,5,,,,,,,sunaenwuebvlpdmntju.jpg,,,,,,,,,,,,,,,
296,1,Memory,5,,,,,,,sunajoveqhiprwqgoco.jpg,,,,,,,,,,,,,,,
297,1,Memory,5,,,,,,,sunasmmcxdddtmtazwx.jpg,,,,,,,,,,,,,,,
298,1,Memory,5,,,,,,,00742941201fa.jpg,,,,,,,,,,,,,,,
299,1,Memory,5,,,,,,,sunaanptmsknhirrzed.jpg,,,,,,,,,,,,,,,
300,1,Presentation,6,00911960530fa_sunaooaqzputrowwbsw.jpg,00858940307fa_sunaixpqndlwhwjtjek.jpg,,,,,,,<,Face,,,,,1,,,,,,,o
301,1,Presentation,6,00123931230fb_sunaalcrrdbjgdztbiz.jpg,00725941201fa_sunaefgzwiramypjvtd.jpg,,,,,,,>,Place,,,,,1,,,,,,,o
302,1,Presentation,6,00787960620fa_sunagoufulkpsxrmklt.jpg,00730960620fa_sunaekgzpfilgjxpeyq.jpg,,,,,,,<,Face,,,,,1,,,,,,,o
303,1,Presentation,6,00753941201fa_sunafcofuuzebuadceo.jpg,00838940307fa_sunaiozxhxgtfrmoagh.jpg,,,,,,,>,Face,,,,,1,,,,,,,x
304,1,Presentation,6,00098931230fa_sunaajpqmulidejvjsr.jpg,00163931230fb_sunaavodbcpygkggnfp.jpg,,,,,,,<,Face,,,,,1,,,,,,,o
305,1,Presentation,6,00999960627fa_sunbvbrvgbpanfrawft.jpg,00811960530fa_sunahedfrhtcwpneund.jpg,,,,,,,>,Place,,,,,1,,,,,,,o
306,1,Presentation,6,00892960530fa_sunalntxqqadigcletd.jpg,00800941205fb_sunagvjurcwdbixvnyi.jpg,,,,,,,<,Place,,,,,1,,,,,,,x
307,1,Presentation,6,00676941121fa_sunadpnqovzckyikrjo.jpg,00191940128fb_sunaawsdjisukbbginm.jpg,,,,,,,>,Place,,,,,1,,,,,,,o
308,1,Presentation,6,00749941201fa_sunaeuvjbmdpknaqqaj.jpg,00989960627fa_sunbondbduabvijnmch.jpg,,,,,,,>,Face,,,,,1,,,,,,,o
309,1,Presentation,6,00194940128fb_sunaayehfdqcyxggsej.jpg,00700941121fa_sunadsgmtznewzyasnk.jpg,,,,,,,<,Place,,,,,1,,,,,,,x
310,1,Memory,6,,,,,,,sunbgklxeqjhdbyfhhy.jpg,,,,,,,,,,,,,,,
311,1,Memory,6,,,,,,,sunahedfrhtcwpneund.jpg,,,,,,,,,,,,,,,
312,1,Memory,6,,,,,,,00700941121fa.jpg,,,,,,,,,,,,,,,
313,1,Memory,6,,,,,,,sunabcuurugvxwparpk.jpg,,,,,,,,,,,,,,,
314,1,Memory,6,,,,,,,00194940128fb.jpg,,,,,,,,,,,,,,,
315,1,Memory,6,,,,,,,00787960620fa.jpg,,,,,,,,,,,,,,,
316,1,Memory,6,,,,,,,sunagoufulkpsxrmklt.jpg,,,,,,,,,,,,,,,
317,1,Memory,6,,,,,,,sunbvbrvgbpanfrawft.jpg,,,,,,,,,,,,,,,
318,1,Memory,6,,,,,,,00123931230fb.jpg,,,,,,,,,,,,,,,
319,1,Memory,6,,,,,,,sunachtuarilwyqnvjx.jpg,,,,,,,,,,,,,,,
320,1,Memory,6,,,,,,,sunafowswglhxcsufpo.jpg,,,,,,,,,,,,,,,
321,1,Memory,6,,,,,,,00960960627fa.jpg,,,,,,,,,,,,,,,
322,1,Memory,6,,,,,,,00800941205fb.jpg,,,,,,,,,,,,,,,
323,1,Memory,6,,,,,,,00965960627fa.jpg,,,,,,,,,,,,,,,
324,1,Memory,6,,,,,,,00705960530fa.jpg,,,,,,,,,,,,,,,
325,1,Memory,6,,,,,,,sunaalcrrdbjgdztbiz.jpg,,,,,,,,,,,,,,,
326,1,Memory,6,,,,,,,sunaduslxfzlbxlllnz.jpg,,,,,,,,,,,,,,,
327,1,Memory,6,,,,,,,00294940422fb.jpg,,,,,,,,,,,,,,,
328,1,Memory,6,,,,,,,sunaydywdmvlfddbxbk.jpg,,,,,,,,,,,,,,,
329,1,Memory,6,,,,,,,00163931230fb.jpg,,,,,,,,,,,,,,,
330,1,Memory,6,,,,,,,sunabrlndkruqokhury.jpg,,,,,,,,,,,,,,,
331,1,Memory,6,,,,,,,00771941205fa.jpg,,,,,,,,,,,,,,,
332,1,Memory,6,,,,,,,sunadsgmtznewzyasnk.jpg,,,,,,,,,,,,,,,
333,1,Memory,6,,,,,,,00730960620fa.jpg,,,,,,,,,,,,,,,
334,1,Memory,6,,,,,,,00999960627fa.jpg,,,,,,,,,,,,,,,
335,1,Memory,6,,,,,,,sunaayehfdqcyxggsej.jpg,,,,,,,,,,,,,,,
336,1,Memory,6,,,,,,,00557940519fa.jpg,,,,,,,,,,,,,,,
337,1,Memory,6,,,,,,,sunaavodbcpygkggnfp.jpg,,,,,,,,,,,,,,,
338,1,Memory,6,,,,,,,sunadpnqovzckyikrjo.jpg,,,,,,,,,,,,,,,
339,1,Memory,6,,,,,,,sunawksfbacycuhbrsc.jpg,,,,,,,,,,,,,,,
340,1,Memory,6,,,,,,,sunajxpkuhbizeveguy.jpg,,,,,,,,,,,,,,,
341,1,Memory,6,,,,,,,00676941121fa.jpg,,,,,,,,,,,,,,,
342,1,Memory,6,,,,,,,00877960530fa.jpg,,,,,,,,,,,,,,,
343,1,Memory,6,,,,,,,00811960530fa.jpg,,,,,,,,,,,,,,,
344,1,Memory,6,,,,,,,00242940128fa.jpg,,,,,,,,,,,,,,,
345,1,Memory,6,,,,,,,sunaekgzpfilgjxpeyq.jpg,,,,,,,,,,,,,,,
346,1,Memory,6,,,,,,,00985960627fa.jpg,,,,,,,,,,,,,,,
347,1,Memory,6,,,,,,,00933960627fa.jpg,,,,,,,,,,,,,,,
348,1,Memory,6,,,,,,,sunapwjkcxdaeqehfql.jpg,,,,,,,,,,,,,,,
349,1,Memory,6,,,,,,,sunagvjurcwdbixvnyi.jpg,,,,,,,,,,,,,,,
350,1,Presentation,7,00193940928fa_sunaaxjpzcnxligjtjq.jpg,00635941031fa_sunaddsaeicthrfbkhe.jpg,,,,,,,>,Face,,,,,1,,,,,,,x
351,1,Presentation,7,00963960627fa_sunayaepykrqvenaqqy.jpg,00990960627fa_sunbpflsdaxnddnwcqi.jpg,,,,,,,<,Place,,,,,1,,,,,,,x
352,1,Presentation,7,00926960627Fa_sunapqwoeotxshkukbh.jpg,00955960627fb_sunauburywlkjszngcq.jpg,,,,,,,<,Face,,,,,1,,,,,,,o
353,1,Presentation,7,00773960620fa_sunafvsxtzaizojicxx.jpg,00835940307fa_sunaijsqpvodplbwxkf.jpg,,,,,,,<,Place,,,,,1,,,,,,,x
354,1,Presentation,7,00874940307fa_sunajtrfunvzdfticna.jpg,00984960627fa_sunbfzchmomnvzhbxdg.jpg,,,,,,,>,Place,,,,,1,,,,,,,x
355,1,Presentation,7,00097931230fa_sunaajayojuslbbnneg.jpg,00077931230fb_sunaafgqutfaishsxyu.jpg,,,,,,,>,Face,,,,,1,,,,,,,x
356,1,Presentation,7,00095931230fa_sunaahzooisqkwlxwoz.jpg,00574940928fa_sunacvbrcejzwmcgnoq.jpg,,,,,,,<,Face,,,,,1,,,,,,,x
357,1,Presentation,7,01003960627fb_sunbwdrdvsweerwsdrj.jpg,00921960627fa_sunapqkpqdfvxlbqwyo.jpg,,,,,,,>,Place,,,,,1,,,,,,,x
358,1,Presentation,7,00997960627fa_sunbtpilbhhbmhmeuzq.jpg,00214940128fa_sunabbafjowbzcvbucc.jpg,,,,,,,<,Face,,,,,1,,,,,,,x
359,1,Presentation,7,00762941201fa_sunafgzgbisbopcyslr.jpg,00288940422fa_sunabppokiyglaxpcha.jpg,,,,,,,>,Place,,,,,1,,,,,,,o
360,1,Memory,7,,,,,,,00963960627fa.jpg,,,,,,,,,,,,,,,
361,1,Memory,7,,,,,,,00874940307fa.jpg,,,,,,,,,,,,,,,
362,1,Memory,7,,,,,,,01005960627fa.jpg,,,,,,,,,,,,,,,
363,1,Memory,7,,,,,,,sunaijsqpvodplbwxkf.jpg,,,,,,,,,,,,,,,
364,1,Memory,7,,,,,,,00635941031fa.jpg,,,,,,,,,,,,,,,
365,1,Memory,7,,,,,,,sunbwyuesflwdpqtgoy.jpg,,,,,,,,,,,,,,,
366,1,Memory,7,,,,,,,00193940928fa.jpg,,,,,,,,,,,,,,,
367,1,Memory,7,,,,,,,sunbfyvfqiimvdaxlqn.jpg,,,,,,,,,,,,,,,
368,1,Memory,7,,,,,,,00835940307fa.jpg,,,,,,,,,,,,,,,
369,1,Memory,7,,,,,,,sunacsdhbbsybcyxnel.jpg,,,,,,,,,,,,,,,
370,1,Memory,7,,,,,,,00983960627fa.jpg,,,,,,,,,,,,,,,
371,1,Memory,7,,,,,,,00787941205fa.jpg,,,,,,,,,,,,,,,
372,1,Memory,7,,,,,,,sunagmwxxwymwojbvgi.jpg,,,,,,,,,,,,,,,
373,1,Memory,7,,,,,,,sunbaejotfklekvpxcz.jpg,,,,,,,,,,,,,,,
374,1,Memory,7,,,,,,,sunayaepykrqvenaqqy.jpg,,,,,,,,,,,,,,,
375,1,Memory,7,,,,,,,sunauburywlkjszngcq.jpg,,,,,,,,,,,,,,,
376,1,Memory,7,,,,,,,00302940422fa.jpg,,,,,,,,,,,,,,,
377,1,Memory,7,,,,,,,00967960627fa.jpg,,,,,,,,,,,,,,,
378,1,Memory,7,,,,,,,00857940307fa.jpg,,,,,,,,,,,,,,,
379,1,Memory,7,,,,,,,sunabctlikybqabezjv.jpg,,,,,,,,,,,,,,,
380,1,Memory,7,,,,,,,sunaaxjpzcnxligjtjq.jpg,,,,,,,,,,,,,,,
381,1,Memory,7,,,,,,,00977960627fa.jpg,,,,,,,,,,,,,,,
382,1,Memory,7,,,,,,,sunbtpilbhhbmhmeuzq.jpg,,,,,,,,,,,,,,,
383,1,Memory,7,,,,,,,sunaavjinpnkappuonm.jpg,,,,,,,,,,,,,,,
384,1,Memory,7,,,,,,,00997960627fa.jpg,,,,,,,,,,,,,,,
385,1,Memory,7,,,,,,,00077931230fb.jpg,,,,,,,,,,,,,,,
386,1,Memory,7,,,,,,,sunabtlfmiwtljmoues.jpg,,,,,,,,,,,,,,,
387,1,Memory,7,,,,,,,00568940928fa.jpg,,,,,,,,,,,,,,,
388,1,Memory,7,,,,,,,sunabppokiyglaxpcha.jpg,,,,,,,,,,,,,,,
389,1,Memory,7,,,,,,,00162931230fb.jpg,,,,,,,,,,,,,,,
390,1,Memory,7,,,,,,,sunaafgqutfaishsxyu.jpg,,,,,,,,,,,,,,,
391,1,Memory,7,,,,,,,sunbbxkanhzjgbwyxqs.jpg,,,,,,,,,,,,,,,
392,1,Memory,7,,,,,,,00955960627fb.jpg,,,,,,,,,,,,,,,
393,1,Memory,7,,,,,,,00239940128fa.jpg,,,,,,,,,,,,,,,
394,1,Memory,7,,,,,,,sunaahzooisqkwlxwoz.jpg,,,,,,,,,,,,,,,
395,1,Memory,7,,,,,,,sunajtrfunvzdfticna.jpg,,,,,,,,,,,,,,,
396,1,Memory,7,,,,,,,sunaiwfobocrruqznsv.jpg,,,,,,,,,,,,,,,
397,1,Memory,7,,,,,,,sunaddsaeicthrfbkhe.jpg,,,,,,,,,,,,,,,
398,1,Memory,7,,,,,,,00095931230fa.jpg,,,,,,,,,,,,,,,
399,1,Memory,7,,,,,,,00288940422fa.jpg,,,,,,,,,,,,,,,
