,Subject,Trial Type,Run,Cued Composite,Uncued Composite,Cued Face,Cued Place,Uncued Face,Uncued Place,Memory Image,Category,Cued Side,Cued Category,Attention Response Time (s),Familiarity Reaction Time (s),Familiarity Rating,Attention Level,Cue Validity,Post Invalid Cue,Pre Invalid Cue,Attention Button,Rating History,Stimulus Onset,Stimulus End,Attention Probe
0,39,Presentation,0,00771941205fa_sunafowswglhxcsufpo.jpg,00822940307fa_sunahqrxievfeusiqlt.jpg,00771941205fa.jpg,sunafowswglhxcsufpo.jpg,00822940307fa.jpg,sunahqrxievfeusiqlt.jpg,,,<,Place,,,,,1,,,,,,,o
1,39,Presentation,0,00095931230fa_sunaahzooisqkwlxwoz.jpg,00296940422fa_sunabrwnslxalcohfre.jpg,00095931230fa.jpg,sunaahzooisqkwlxwoz.jpg,00296940422fa.jpg,sunabrwnslxalcohfre.jpg,,,<,Place,,,,,1,,,,,,,x
2,39,Presentation,0,00819940307fa_sunahqldjibofgsfdgb.jpg,00564941031fa_sunacsaovnjezqwbykf.jpg,00819940307fa.jpg,sunahqldjibofgsfdgb.jpg,00564941031fa.jpg,sunacsaovnjezqwbykf.jpg,,,<,Place,,,,,1,,,,,,,o
3,39,Presentation,0,00905960530fa_sunanmoqeyprjjjfxjt.jpg,00136931230fb_sunaanptmsknhirrzed.jpg,00905960530fa.jpg,sunanmoqeyprjjjfxjt.jpg,00136931230fb.jpg,sunaanptmsknhirrzed.jpg,,,<,Place,,,,,1,,,,,,,o
4,39,Presentation,0,00218940128fa_sunabbwggenhfbftyvi.jpg,00933960627fa_sunapwjkcxdaeqehfql.jpg,00218940128fa.jpg,sunabbwggenhfbftyvi.jpg,00933960627fa.jpg,sunapwjkcxdaeqehfql.jpg,,,<,Place,,,,,1,,,,,,,x
5,39,Presentation,0,00098931230fa_sunaajpqmulidejvjsr.jpg,00142931230fb_sunaapxkpvrhpjplsok.jpg,00098931230fa.jpg,sunaajpqmulidejvjsr.jpg,00142931230fb.jpg,sunaapxkpvrhpjplsok.jpg,,,<,Place,,,,,1,,,,,,,o
6,39,Presentation,0,00744941201fa_sunaeomlfaabhpswasy.jpg,00131931230fb_sunaangbuylfvckqqoo.jpg,00744941201fa.jpg,sunaeomlfaabhpswasy.jpg,00131931230fb.jpg,sunaangbuylfvckqqoo.jpg,,,<,Place,,,,,1,,,,,,,x
7,39,Presentation,0,00911960530fa_sunaooaqzputrowwbsw.jpg,00862940307fa_sunaizgnnplsvajzhkc.jpg,00911960530fa.jpg,sunaooaqzputrowwbsw.jpg,00862940307fa.jpg,sunaizgnnplsvajzhkc.jpg,,,<,Place,,,,,1,,,,,,,x
8,39,Presentation,0,00124931230fa_sunaalhlvzmjmitybdn.jpg,00772941201fa_sunafpfpiiujzoesnqg.jpg,00124931230fa.jpg,sunaalhlvzmjmitybdn.jpg,00772941201fa.jpg,sunafpfpiiujzoesnqg.jpg,,,<,Place,,,,,1,,,,,,,o
9,39,Presentation,0,00774941201fa_sunafvtpfczkzopbgue.jpg,00999960627fa_sunbvbrvgbpanfrawft.jpg,00774941201fa.jpg,sunafvtpfczkzopbgue.jpg,00999960627fa.jpg,sunbvbrvgbpanfrawft.jpg,,,<,Place,,,,,0,,,,,,,o
10,39,Memory,0,,,,,,,00911960530fa.jpg,,,,,,,,,,,,,,,
11,39,Memory,0,,,,,,,00936960627fa.jpg,,,,,,,,,,,,,,,
12,39,Memory,0,,,,,,,00803941205fa.jpg,,,,,,,,,,,,,,,
13,39,Memory,0,,,,,,,sunaajpqmulidejvjsr.jpg,,,,,,,,,,,,,,,
14,39,Memory,0,,,,,,,00993960627fa.jpg,,,,,,,,,,,,,,,
15,39,Memory,0,,,,,,,sunapwjkcxdaeqehfql.jpg,,,,,,,,,,,,,,,
16,39,Memory,0,,,,,,,sunafvtpfczkzopbgue.jpg,,,,,,,,,,,,,,,
17,39,Memory,0,,,,,,,sunabcfpwlpolnutyju.jpg,,,,,,,,,,,,,,,
18,39,Memory,0,,,,,,,00774941201fa.jpg,,,,,,,,,,,,,,,
19,39,Memory,0,,,,,,,sunadkazmlajmohnwfl.jpg,,,,,,,,,,,,,,,
20,39,Memory,0,,,,,,,00564940928fa.jpg,,,,,,,,,,,,,,,
21,39,Memory,0,,,,,,,sunagvxkjokqimstxpe.jpg,,,,,,,,,,,,,,,
22,39,Memory,0,,,,,,,00080931230fb.jpg,,,,,,,,,,,,,,,
23,39,Memory,0,,,,,,,00772941201fa.jpg,,,,,,,,,,,,,,,
24,39,Memory,0,,,,,,,sunafpfpiiujzoesnqg.jpg,,,,,,,,,,,,,,,
25,39,Memory,0,,,,,,,00316940422fa.jpg,,,,,,,,,,,,,,,
26,39,Memory,0,,,,,,,00136931230fb.jpg,,,,,,,,,,,,,,,
27,39,Memory,0,,,,,,,sunbprywzqxjcezkbch.jpg,,,,,,,,,,,,,,,
28,39,Memory,0,,,,,,,sunacmpqqfbsvlzinzl.jpg,,,,,,,,,,,,,,,
29,39,Memory,0,,,,,,,sunanmoqeyprjjjfxjt.jpg,,,,,,,,,,,,,,,
30,39,Memory,0,,,,,,,00771941205fa.jpg,,,,,,,,,,,,,,,
31,39,Memory,0,,,,,,,sunaooaqzputrowwbsw.jpg,,,,,,,,,,,,,,,
32,39,Memory,0,,,,,,,sunbaejotfklekvpxcz.jpg,,,,,,,,,,,,,,,
33,39,Memory,0,,,,,,,00905960530fa.jpg,,,,,,,,,,,,,,,
34,39,Memory,0,,,,,,,sunacsaovnjezqwbykf.jpg,,,,,,,,,,,,,,,
35,39,Memory,0,,,,,,,00933960627fa.jpg,,,,,,,,,,,,,,,
36,39,Memory,0,,,,,,,sunafowswglhxcsufpo.jpg,,,,,,,,,,,,,,,
37,39,Memory,0,,,,,,,00221940128fa.jpg,,,,,,,,,,,,,,,
38,39,Memory,0,,,,,,,00564941031fa.jpg,,,,,,,,,,,,,,,
39,39,Memory,0,,,,,,,00098931230fa.jpg,,,,,,,,,,,,,,,
40,39,Memory,0,,,,,,,sunaafbmtoniaasysgu.jpg,,,,,,,,,,,,,,,
41,39,Memory,0,,,,,,,sunaanptmsknhirrzed.jpg,,,,,,,,,,,,,,,
42,39,Memory,0,,,,,,,00967960627fa.jpg,,,,,,,,,,,,,,,
43,39,Memory,0,,,,,,,sunaafjszryxyavjzln.jpg,,,,,,,,,,,,,,,
44,39,Memory,0,,,,,,,00073931230fa.jpg,,,,,,,,,,,,,,,
45,39,Memory,0,,,,,,,sunabxmguapjekttvwm.jpg,,,,,,,,,,,,,,,
46,39,Memory,0,,,,,,,sunaizgnnplsvajzhkc.jpg,,,,,,,,,,,,,,,
47,39,Memory,0,,,,,,,00662941121fa.jpg,,,,,,,,,,,,,,,
48,39,Memory,0,,,,,,,sunaqgjuuwvdcyiccjt.jpg,,,,,,,,,,,,,,,
49,39,Memory,0,,,,,,,00862940307fa.jpg,,,,,,,,,,,,,,,
50,39,Presentation,1,00906960530fa_sunantryfbloeaomfta.jpg,00292940422fb_sunabrjdpmoedcdjbpo.jpg,00906960530fa.jpg,sunantryfbloeaomfta.jpg,00292940422fb.jpg,sunabrjdpmoedcdjbpo.jpg,,,>,Face,,,,,0,,,,,,,o
51,39,Presentation,1,00984960627fa_sunbfzchmomnvzhbxdg.jpg,00675941121fa_sunadoxcchtmsxewsau.jpg,00984960627fa.jpg,sunbfzchmomnvzhbxdg.jpg,00675941121fa.jpg,sunadoxcchtmsxewsau.jpg,,,>,Face,,,,,1,,,,,,,o
52,39,Presentation,1,00529940519fa_sunacbeefkxpymwevpk.jpg,00786941205fa_sunagmhildamktmqjss.jpg,00529940519fa.jpg,sunacbeefkxpymwevpk.jpg,00786941205fa.jpg,sunagmhildamktmqjss.jpg,,,>,Face,,,,,1,,,,,,,x
53,39,Presentation,1,00314940422fa_sunabwmcbaxwioksdgw.jpg,00727941205fa_sunaeisnjeetzmkbuad.jpg,00314940422fa.jpg,sunabwmcbaxwioksdgw.jpg,00727941205fa.jpg,sunaeisnjeetzmkbuad.jpg,,,>,Face,,,,,1,,,,,,,x
54,39,Presentation,1,00102931230fa_sunaajspcoepticvplv.jpg,00827940307fa_sunahtfxgsrmkiulnwk.jpg,00102931230fa.jpg,sunaajspcoepticvplv.jpg,00827940307fa.jpg,sunahtfxgsrmkiulnwk.jpg,,,>,Face,,,,,1,,,,,,,o
55,39,Presentation,1,00132931230fb_sunaanjcbzdvtvblsdy.jpg,00263940128fb_sunabjuovqvyfuzvqwt.jpg,00132931230fb.jpg,sunaanjcbzdvtvblsdy.jpg,00263940128fb.jpg,sunabjuovqvyfuzvqwt.jpg,,,>,Face,,,,,1,,,,,,,x
56,39,Presentation,1,00146960620fb_sunaatpeezlljqaxlhj.jpg,00866940307fa_sunajbwkywmsqkldfml.jpg,00146960620fb.jpg,sunaatpeezlljqaxlhj.jpg,00866940307fa.jpg,sunajbwkywmsqkldfml.jpg,,,>,Face,,,,,1,,,,,,,x
57,39,Presentation,1,01010960627fa_suncnkvbhypnivcohyx.jpg,00996960627fa_sunbpvgllfdejxcpjqp.jpg,01010960627fa.jpg,suncnkvbhypnivcohyx.jpg,00996960627fa.jpg,sunbpvgllfdejxcpjqp.jpg,,,>,Face,,,,,1,,,,,,,x
58,39,Presentation,1,00869940307fa_sunajoveqhiprwqgoco.jpg,00796941205fa_sunaguchqqnrtodtezq.jpg,00869940307fa.jpg,sunajoveqhiprwqgoco.jpg,00796941205fa.jpg,sunaguchqqnrtodtezq.jpg,,,>,Face,,,,,1,,,,,,,o
59,39,Presentation,1,00122931230fa_sunaakxjfbrrequcjmx.jpg,00532960627fa_sunaccdtpgenvcbcbcf.jpg,00122931230fa.jpg,sunaakxjfbrrequcjmx.jpg,00532960627fa.jpg,sunaccdtpgenvcbcbcf.jpg,,,>,Face,,,,,1,,,,,,,o
60,39,Memory,1,,,,,,,sunbgklxeqjhdbyfhhy.jpg,,,,,,,,,,,,,,,
61,39,Memory,1,,,,,,,sunacjnahdmqfnjfwqx.jpg,,,,,,,,,,,,,,,
62,39,Memory,1,,,,,,,sunaatpeezlljqaxlhj.jpg,,,,,,,,,,,,,,,
63,39,Memory,1,,,,,,,sunajtrfunvzdfticna.jpg,,,,,,,,,,,,,,,
64,39,Memory,1,,,,,,,sunacbeefkxpymwevpk.jpg,,,,,,,,,,,,,,,
65,39,Memory,1,,,,,,,00529940519fa.jpg,,,,,,,,,,,,,,,
66,39,Memory,1,,,,,,,sunaccdtpgenvcbcbcf.jpg,,,,,,,,,,,,,,,
67,39,Memory,1,,,,,,,00987960627fa.jpg,,,,,,,,,,,,,,,
68,39,Memory,1,,,,,,,00276940422fa.jpg,,,,,,,,,,,,,,,
69,39,Memory,1,,,,,,,00146960620fb.jpg,,,,,,,,,,,,,,,
70,39,Memory,1,,,,,,,sunaixpqndlwhwjtjek.jpg,,,,,,,,,,,,,,,
71,39,Memory,1,,,,,,,00750941201fa.jpg,,,,,,,,,,,,,,,
72,39,Memory,1,,,,,,,00720960620fa.jpg,,,,,,,,,,,,,,,
73,39,Memory,1,,,,,,,00874940307fa.jpg,,,,,,,,,,,,,,,
74,39,Memory,1,,,,,,,sunaecpkgfewqqreqwe.jpg,,,,,,,,,,,,,,,
75,39,Memory,1,,,,,,,sunadoxcchtmsxewsau.jpg,,,,,,,,,,,,,,,
76,39,Memory,1,,,,,,,sunabmytpyhsgigllxu.jpg,,,,,,,,,,,,,,,
77,39,Memory,1,,,,,,,suncnkvbhypnivcohyx.jpg,,,,,,,,,,,,,,,
78,39,Memory,1,,,,,,,00532960627fa.jpg,,,,,,,,,,,,,,,
79,39,Memory,1,,,,,,,00906960530fa.jpg,,,,,,,,,,,,,,,
80,39,Memory,1,,,,,,,sunaguchqqnrtodtezq.jpg,,,,,,,,,,,,,,,
81,39,Memory,1,,,,,,,00675941121fa.jpg,,,,,,,,,,,,,,,
82,39,Memory,1,,,,,,,00868960307fa.jpg,,,,,,,,,,,,,,,
83,39,Memory,1,,,,,,,sunaeisnjeetzmkbuad.jpg,,,,,,,,,,,,,,,
84,39,Memory,1,,,,,,,00984960627fa.jpg,,,,,,,,,,,,,,,
85,39,Memory,1,,,,,,,00996960627fa.jpg,,,,,,,,,,,,,,,
86,39,Memory,1,,,,,,,00858940307fa.jpg,,,,,,,,,,,,,,,
87,39,Memory,1,,,,,,,01010960627fa.jpg,,,,,,,,,,,,,,,
88,39,Memory,1,,,,,,,00796941205fa.jpg,,,,,,,,,,,,,,,
89,39,Memory,1,,,,,,,00985960627fa.jpg,,,,,,,,,,,,,,,
90,39,Memory,1,,,,,,,sunbfzchmomnvzhbxdg.jpg,,,,,,,,,,,,,,,
91,39,Memory,1,,,,,,,sunaeuzwggvibufclwf.jpg,,,,,,,,,,,,,,,
92,39,Memory,1,,,,,,,sunbpvgllfdejxcpjqp.jpg,,,,,,,,,,,,,,,
93,39,Memory,1,,,,,,,00086931230fa.jpg,,,,,,,,,,,,,,,
94,39,Memory,1,,,,,,,00727941205fa.jpg,,,,,,,,,,,,,,,
95,39,Memory,1,,,,,,,sunajjxttslobudoqbv.jpg,,,,,,,,,,,,,,,
96,39,Memory,1,,,,,,,00562941031fa.jpg,,,,,,,,,,,,,,,
97,39,Memory,1,,,,,,,sunaafynehyrzpsoaml.jpg,,,,,,,,,,,,,,,
98,39,Memory,1,,,,,,,sunantryfbloeaomfta.jpg,,,,,,,,,,,,,,,
99,39,Memory,1,,,,,,,sunbloeoiozwjjsiamp.jpg,,,,,,,,,,,,,,,
100,39,Presentation,2,00770941201fa_sunaflojskatpeqyzqp.jpg,00959960627fa_sunavxokzybtomhbmvm.jpg,00770941201fa.jpg,sunaflojskatpeqyzqp.jpg,00959960627fa.jpg,sunavxokzybtomhbmvm.jpg,,,<,Face,,,,,0,,,,,,,x
101,39,Presentation,2,00239940128fa_sunabctlikybqabezjv.jpg,00745941205fa_sunaeouogqolxvggaoq.jpg,00239940128fa.jpg,sunabctlikybqabezjv.jpg,00745941205fa.jpg,sunaeouogqolxvggaoq.jpg,,,<,Face,,,,,1,,,,,,,o
102,39,Presentation,2,00790941205fa_sunagpjzsbltchlwvou.jpg,00149931230fa_sunaauglwmctnkxyird.jpg,00790941205fa.jpg,sunagpjzsbltchlwvou.jpg,00149931230fa.jpg,sunaauglwmctnkxyird.jpg,,,<,Face,,,,,1,,,,,,,x
103,39,Presentation,2,00198940128fb_sunaazezcsunmhttzxz.jpg,00313940422fa_sunabwjvmoaddlyxfjr.jpg,00198940128fb.jpg,sunaazezcsunmhttzxz.jpg,00313940422fa.jpg,sunabwjvmoaddlyxfjr.jpg,,,<,Face,,,,,1,,,,,,,o
104,39,Presentation,2,00209940128fb_sunabaergayifsgacxt.jpg,00598940928fa_sunacxeheuiigkcgquf.jpg,00209940128fb.jpg,sunabaergayifsgacxt.jpg,00598940928fa.jpg,sunacxeheuiigkcgquf.jpg,,,<,Face,,,,,1,,,,,,,o
105,39,Presentation,2,00101931230fb_sunaajqmsaavkmgbsth.jpg,00145931230fb_sunaatjesvdupctftmn.jpg,00101931230fb.jpg,sunaajqmsaavkmgbsth.jpg,00145931230fb.jpg,sunaatjesvdupctftmn.jpg,,,<,Face,,,,,1,,,,,,,o
106,39,Presentation,2,00127931230fa_sunaampvucecsfbdafn.jpg,00725941201fa_sunaefgzwiramypjvtd.jpg,00127931230fa.jpg,sunaampvucecsfbdafn.jpg,00725941201fa.jpg,sunaefgzwiramypjvtd.jpg,,,<,Face,,,,,1,,,,,,,x
107,39,Presentation,2,00773960620fa_sunafvsxtzaizojicxx.jpg,00979960627fa_sunbdycacjfaujxitbw.jpg,00773960620fa.jpg,sunafvsxtzaizojicxx.jpg,00979960627fa.jpg,sunbdycacjfaujxitbw.jpg,,,<,Face,,,,,0,,,,,,,o
108,39,Presentation,2,00860940307fa_sunaizeyhvjzknwjudw.jpg,00834940307fa_sunaibnpvhkdpdnzcnz.jpg,00860940307fa.jpg,sunaizeyhvjzknwjudw.jpg,00834940307fa.jpg,sunaibnpvhkdpdnzcnz.jpg,,,<,Face,,,,,1,,,,,,,o
109,39,Presentation,2,00719960620fa_sunadzuvtmtmgupotmf.jpg,00763941205fa_sunafhmnhsdurlvddpw.jpg,00719960620fa.jpg,sunadzuvtmtmgupotmf.jpg,00763941205fa.jpg,sunafhmnhsdurlvddpw.jpg,,,<,Face,,,,,1,,,,,,,o
110,39,Memory,2,,,,,,,00149931230fa.jpg,,,,,,,,,,,,,,,
111,39,Memory,2,,,,,,,sunaampvucecsfbdafn.jpg,,,,,,,,,,,,,,,
112,39,Memory,2,,,,,,,sunaajqmsaavkmgbsth.jpg,,,,,,,,,,,,,,,
113,39,Memory,2,,,,,,,00745941205fa.jpg,,,,,,,,,,,,,,,
114,39,Memory,2,,,,,,,sunaakgekhjklxmvulj.jpg,,,,,,,,,,,,,,,
115,39,Memory,2,,,,,,,sunavspxmxubqaeidjt.jpg,,,,,,,,,,,,,,,
116,39,Memory,2,,,,,,,sunagoufulkpsxrmklt.jpg,,,,,,,,,,,,,,,
117,39,Memory,2,,,,,,,sunacycdoztxoluxjyk.jpg,,,,,,,,,,,,,,,
118,39,Memory,2,,,,,,,sunaflojskatpeqyzqp.jpg,,,,,,,,,,,,,,,
119,39,Memory,2,,,,,,,00239940128fa.jpg,,,,,,,,,,,,,,,
120,39,Memory,2,,,,,,,00598940928fa.jpg,,,,,,,,,,,,,,,
121,39,Memory,2,,,,,,,00101931230fb.jpg,,,,,,,,,,,,,,,
122,39,Memory,2,,,,,,,sunaapllqyqlykszopd.jpg,,,,,,,,,,,,,,,
123,39,Memory,2,,,,,,,sunaddtdkycxbqlpfqa.jpg,,,,,,,,,,,,,,,
124,39,Memory,2,,,,,,,00127931230fa.jpg,,,,,,,,,,,,,,,
125,39,Memory,2,,,,,,,00860940307fa.jpg,,,,,,,,,,,,,,,
126,39,Memory,2,,,,,,,sunafhmnhsdurlvddpw.jpg,,,,,,,,,,,,,,,
127,39,Memory,2,,,,,,,sunaizeyhvjzknwjudw.jpg,,,,,,,,,,,,,,,
128,39,Memory,2,,,,,,,00609940928fa.jpg,,,,,,,,,,,,,,,
129,39,Memory,2,,,,,,,00543940519fa.jpg,,,,,,,,,,,,,,,
130,39,Memory,2,,,,,,,00636941031fa.jpg,,,,,,,,,,,,,,,
131,39,Memory,2,,,,,,,00313940422fa.jpg,,,,,,,,,,,,,,,
132,39,Memory,2,,,,,,,sunabwjvmoaddlyxfjr.jpg,,,,,,,,,,,,,,,
133,39,Memory,2,,,,,,,00770941201fa.jpg,,,,,,,,,,,,,,,
134,39,Memory,2,,,,,,,sunajwqkfsykceonyig.jpg,,,,,,,,,,,,,,,
135,39,Memory,2,,,,,,,sunaauglwmctnkxyird.jpg,,,,,,,,,,,,,,,
136,39,Memory,2,,,,,,,00958960627fa.jpg,,,,,,,,,,,,,,,
137,39,Memory,2,,,,,,,00763941205fa.jpg,,,,,,,,,,,,,,,
138,39,Memory,2,,,,,,,sunacxeheuiigkcgquf.jpg,,,,,,,,,,,,,,,
139,39,Memory,2,,,,,,,00787960620fa.jpg,,,,,,,,,,,,,,,
140,39,Memory,2,,,,,,,00894960620fa.jpg,,,,,,,,,,,,,,,
141,39,Memory,2,,,,,,,sunaeouogqolxvggaoq.jpg,,,,,,,,,,,,,,,
142,39,Memory,2,,,,,,,sunacepzfrmtkiqonpy.jpg,,,,,,,,,,,,,,,
143,39,Memory,2,,,,,,,sunabctlikybqabezjv.jpg,,,,,,,,,,,,,,,
144,39,Memory,2,,,,,,,00891960530fa.jpg,,,,,,,,,,,,,,,
145,39,Memory,2,,,,,,,sunalkiibhqpxfamlll.jpg,,,,,,,,,,,,,,,
146,39,Memory,2,,,,,,,00140931230fb.jpg,,,,,,,,,,,,,,,
147,39,Memory,2,,,,,,,00111931230fb.jpg,,,,,,,,,,,,,,,
148,39,Memory,2,,,,,,,00876960620fa.jpg,,,,,,,,,,,,,,,
149,39,Memory,2,,,,,,,sunalqmfgeadpqsyzpd.jpg,,,,,,,,,,,,,,,
150,39,Presentation,3,01207940128fa_sundbixjudsgeuuehrn.jpg,00070940307fa_sunaaeplwsfslcbtojr.jpg,01207940128fa.jpg,sundbixjudsgeuuehrn.jpg,00070940307fa.jpg,sunaaeplwsfslcbtojr.jpg,,,>,Face,,,,,1,,,,,,,o
151,39,Presentation,3,00882960530fa_sunaknlirqjqiwbbeeg.jpg,00308940422fb_sunabwfvcqqidycwypa.jpg,00882960530fa.jpg,sunaknlirqjqiwbbeeg.jpg,00308940422fb.jpg,sunabwfvcqqidycwypa.jpg,,,>,Face,,,,,1,,,,,,,x
152,39,Presentation,3,00851940307fa_sunaivflshbyfrfzhqb.jpg,00754941201fa_sunaffgsyyvoqdlkmnk.jpg,00851940307fa.jpg,sunaivflshbyfrfzhqb.jpg,00754941201fa.jpg,sunaffgsyyvoqdlkmnk.jpg,,,>,Face,,,,,1,,,,,,,o
153,39,Presentation,3,00887960530_sunalcrtwiycqobgelp.jpg,00743941201fa_sunaeoghzrjarigmwua.jpg,00887960530.jpg,sunalcrtwiycqobgelp.jpg,00743941201fa.jpg,sunaeoghzrjarigmwua.jpg,,,>,Face,,,,,1,,,,,,,o
154,39,Presentation,3,00778941205fa_sunagcthdfirrcawoic.jpg,00694941121fa_sunadrmfzmstgdjdcod.jpg,00778941205fa.jpg,sunagcthdfirrcawoic.jpg,00694941121fa.jpg,sunadrmfzmstgdjdcod.jpg,,,>,Face,,,,,1,,,,,,,o
155,39,Presentation,3,00997960627fa_sunbtpilbhhbmhmeuzq.jpg,00811960530fa_sunahedfrhtcwpneund.jpg,00997960627fa.jpg,sunbtpilbhhbmhmeuzq.jpg,00811960530fa.jpg,sunahedfrhtcwpneund.jpg,,,>,Face,,,,,0,,,,,,,o
156,39,Presentation,3,01011960627fa_sundahdxwmcdluscvot.jpg,00878960530fa_sunakgbnzxmfohgehnu.jpg,01011960627fa.jpg,sundahdxwmcdluscvot.jpg,00878960530fa.jpg,sunakgbnzxmfohgehnu.jpg,,,>,Face,,,,,1,,,,,,,x
157,39,Presentation,3,00976960627fa_sunbbhqyyzmsxhsbjmp.jpg,00576941031fa_sunacvjlsylseoghjup.jpg,00976960627fa.jpg,sunbbhqyyzmsxhsbjmp.jpg,00576941031fa.jpg,sunacvjlsylseoghjup.jpg,,,>,Face,,,,,1,,,,,,,x
158,39,Presentation,3,00835940307fa_sunaijsqpvodplbwxkf.jpg,00116931230fa_sunaakqepfoeqomfgxf.jpg,00835940307fa.jpg,sunaijsqpvodplbwxkf.jpg,00116931230fa.jpg,sunaakqepfoeqomfgxf.jpg,,,>,Face,,,,,1,,,,,,,o
159,39,Presentation,3,00294940422fb_sunabrlndkruqokhury.jpg,00635941031fa_sunaddsaeicthrfbkhe.jpg,00294940422fb.jpg,sunabrlndkruqokhury.jpg,00635941031fa.jpg,sunaddsaeicthrfbkhe.jpg,,,>,Face,,,,,1,,,,,,,o
160,39,Memory,3,,,,,,,00559940519fa.jpg,,,,,,,,,,,,,,,
161,39,Memory,3,,,,,,,sunaaiqiqcggrskoqgy.jpg,,,,,,,,,,,,,,,
162,39,Memory,3,,,,,,,00096931230fa.jpg,,,,,,,,,,,,,,,
163,39,Memory,3,,,,,,,sunbtpilbhhbmhmeuzq.jpg,,,,,,,,,,,,,,,
164,39,Memory,3,,,,,,,00694941121fa.jpg,,,,,,,,,,,,,,,
165,39,Memory,3,,,,,,,sunadrmfzmstgdjdcod.jpg,,,,,,,,,,,,,,,
166,39,Memory,3,,,,,,,sunaakmxzhuceuiryah.jpg,,,,,,,,,,,,,,,
167,39,Memory,3,,,,,,,01207940128fa.jpg,,,,,,,,,,,,,,,
168,39,Memory,3,,,,,,,00835940307fa.jpg,,,,,,,,,,,,,,,
169,39,Memory,3,,,,,,,00778941205fa.jpg,,,,,,,,,,,,,,,
170,39,Memory,3,,,,,,,sunacvzhvcksnwqcqbw.jpg,,,,,,,,,,,,,,,
171,39,Memory,3,,,,,,,00809960620fa.jpg,,,,,,,,,,,,,,,
172,39,Memory,3,,,,,,,00838940307fa.jpg,,,,,,,,,,,,,,,
173,39,Memory,3,,,,,,,sunbgzjryivyczuvkvm.jpg,,,,,,,,,,,,,,,
174,39,Memory,3,,,,,,,00308940422fb.jpg,,,,,,,,,,,,,,,
175,39,Memory,3,,,,,,,sundbixjudsgeuuehrn.jpg,,,,,,,,,,,,,,,
176,39,Memory,3,,,,,,,sunaijsqpvodplbwxkf.jpg,,,,,,,,,,,,,,,
177,39,Memory,3,,,,,,,sunacvjlsylseoghjup.jpg,,,,,,,,,,,,,,,
178,39,Memory,3,,,,,,,00986960627fa.jpg,,,,,,,,,,,,,,,
179,39,Memory,3,,,,,,,sunabrlndkruqokhury.jpg,,,,,,,,,,,,,,,
180,39,Memory,3,,,,,,,sunacjkmnpawfzbyvae.jpg,,,,,,,,,,,,,,,
181,39,Memory,3,,,,,,,sunaiozxhxgtfrmoagh.jpg,,,,,,,,,,,,,,,
182,39,Memory,3,,,,,,,00294940422fb.jpg,,,,,,,,,,,,,,,
183,39,Memory,3,,,,,,,sunagrmyoovzukhxmlo.jpg,,,,,,,,,,,,,,,
184,39,Memory,3,,,,,,,00576941031fa.jpg,,,,,,,,,,,,,,,
185,39,Memory,3,,,,,,,00125931230fa.jpg,,,,,,,,,,,,,,,
186,39,Memory,3,,,,,,,sunagdzlvkqtpnfxfcg.jpg,,,,,,,,,,,,,,,
187,39,Memory,3,,,,,,,00754941201fa.jpg,,,,,,,,,,,,,,,
188,39,Memory,3,,,,,,,sunabwfvcqqidycwypa.jpg,,,,,,,,,,,,,,,
189,39,Memory,3,,,,,,,sunaffgsyyvoqdlkmnk.jpg,,,,,,,,,,,,,,,
190,39,Memory,3,,,,,,,00779941205fa.jpg,,,,,,,,,,,,,,,
191,39,Memory,3,,,,,,,sunaeoghzrjarigmwua.jpg,,,,,,,,,,,,,,,
192,39,Memory,3,,,,,,,sunagcthdfirrcawoic.jpg,,,,,,,,,,,,,,,
193,39,Memory,3,,,,,,,sunahbvlpavurqoxdeq.jpg,,,,,,,,,,,,,,,
194,39,Memory,3,,,,,,,00115931230fa.jpg,,,,,,,,,,,,,,,
195,39,Memory,3,,,,,,,sunaalltyvjhbzhkmvg.jpg,,,,,,,,,,,,,,,
196,39,Memory,3,,,,,,,00743941201fa.jpg,,,,,,,,,,,,,,,
197,39,Memory,3,,,,,,,00997960627fa.jpg,,,,,,,,,,,,,,,
198,39,Memory,3,,,,,,,00791941205fa.jpg,,,,,,,,,,,,,,,
199,39,Memory,3,,,,,,,00581940928fa.jpg,,,,,,,,,,,,,,,
200,39,Presentation,4,00676941121fa_sunadpnqovzckyikrjo.jpg,00922960627fa_sunapqkyghktgtosuuk.jpg,00676941121fa.jpg,sunadpnqovzckyikrjo.jpg,00922960627fa.jpg,sunapqkyghktgtosuuk.jpg,,,>,Place,,,,,1,,,,,,,x
201,39,Presentation,4,00982960627fa_sunbesrwkdsffeogeqq.jpg,00801941205fa_sunagvprlbprarvgdvj.jpg,00982960627fa.jpg,sunbesrwkdsffeogeqq.jpg,00801941205fa.jpg,sunagvprlbprarvgdvj.jpg,,,>,Place,,,,,1,,,,,,,o
202,39,Presentation,4,00568940928fa_sunacsdhbbsybcyxnel.jpg,00787941205fa_sunagmwxxwymwojbvgi.jpg,00568940928fa.jpg,sunacsdhbbsybcyxnel.jpg,00787941205fa.jpg,sunagmwxxwymwojbvgi.jpg,,,>,Place,,,,,1,,,,,,,o
203,39,Presentation,4,00847940307fa_sunaivdjruhkrfywfed.jpg,00210940128fb_sunabanoxjtqxamkucc.jpg,00847940307fa.jpg,sunaivdjruhkrfywfed.jpg,00210940128fb.jpg,sunabanoxjtqxamkucc.jpg,,,>,Place,,,,,1,,,,,,,x
204,39,Presentation,4,00060931230fa_sunaaehaikpckyjsety.jpg,00082931230fa_sunaafvitpexrpvumsa.jpg,00060931230fa.jpg,sunaaehaikpckyjsety.jpg,00082931230fa.jpg,sunaafvitpexrpvumsa.jpg,,,>,Place,,,,,1,,,,,,,x
205,39,Presentation,4,00947960627fa_sunasmmcxdddtmtazwx.jpg,00302940422fa_sunabtlfmiwtljmoues.jpg,00947960627fa.jpg,sunasmmcxdddtmtazwx.jpg,00302940422fa.jpg,sunabtlfmiwtljmoues.jpg,,,>,Place,,,,,1,,,,,,,x
206,39,Presentation,4,00483940519fa_sunabyvpwkgsjtijdwj.jpg,00925960627fa_sunapqwnqzxlsfvgsjm.jpg,00483940519fa.jpg,sunabyvpwkgsjtijdwj.jpg,00925960627fa.jpg,sunapqwnqzxlsfvgsjm.jpg,,,>,Place,,,,,1,,,,,,,x
207,39,Presentation,4,00144931230fb_sunaathajvxrgptwhoj.jpg,00760960620fa_sunaffstbkappprzxnv.jpg,00144931230fb.jpg,sunaathajvxrgptwhoj.jpg,00760960620fa.jpg,sunaffstbkappprzxnv.jpg,,,>,Place,,,,,1,,,,,,,x
208,39,Presentation,4,00305940422fa_sunabtrnbvpppgczjim.jpg,00260940128fa_sunabgfhvifeijihhjw.jpg,00305940422fa.jpg,sunabtrnbvpppgczjim.jpg,00260940128fa.jpg,sunabgfhvifeijihhjw.jpg,,,>,Place,,,,,1,,,,,,,x
209,39,Presentation,4,00859940307fa_sunaiycurtqsfkvcaso.jpg,00191940128fb_sunaawsdjisukbbginm.jpg,00859940307fa.jpg,sunaiycurtqsfkvcaso.jpg,00191940128fb.jpg,sunaawsdjisukbbginm.jpg,,,>,Place,,,,,1,,,,,,,x
210,39,Memory,4,,,,,,,00880960530fa.jpg,,,,,,,,,,,,,,,
211,39,Memory,4,,,,,,,00060931230fa.jpg,,,,,,,,,,,,,,,
212,39,Memory,4,,,,,,,sunaafvitpexrpvumsa.jpg,,,,,,,,,,,,,,,
213,39,Memory,4,,,,,,,sunaffstbkappprzxnv.jpg,,,,,,,,,,,,,,,
214,39,Memory,4,,,,,,,sunahctntqrunhdxhtb.jpg,,,,,,,,,,,,,,,
215,39,Memory,4,,,,,,,00262940128fa.jpg,,,,,,,,,,,,,,,
216,39,Memory,4,,,,,,,00130931230fa.jpg,,,,,,,,,,,,,,,
217,39,Memory,4,,,,,,,sunaygrtwrwfezqjizr.jpg,,,,,,,,,,,,,,,
218,39,Memory,4,,,,,,,00847940307fa.jpg,,,,,,,,,,,,,,,
219,39,Memory,4,,,,,,,00801941205fa.jpg,,,,,,,,,,,,,,,
220,39,Memory,4,,,,,,,sunaamvxnvouicstkjb.jpg,,,,,,,,,,,,,,,
221,39,Memory,4,,,,,,,sunaedtgwjvvziytspa.jpg,,,,,,,,,,,,,,,
222,39,Memory,4,,,,,,,00977960627fa.jpg,,,,,,,,,,,,,,,
223,39,Memory,4,,,,,,,sunadpnqovzckyikrjo.jpg,,,,,,,,,,,,,,,
224,39,Memory,4,,,,,,,00082931230fa.jpg,,,,,,,,,,,,,,,
225,39,Memory,4,,,,,,,sunaathajvxrgptwhoj.jpg,,,,,,,,,,,,,,,
226,39,Memory,4,,,,,,,sunaaehaikpckyjsety.jpg,,,,,,,,,,,,,,,
227,39,Memory,4,,,,,,,00302940422fa.jpg,,,,,,,,,,,,,,,
228,39,Memory,4,,,,,,,00730960620fa.jpg,,,,,,,,,,,,,,,
229,39,Memory,4,,,,,,,sunaekgzpfilgjxpeyq.jpg,,,,,,,,,,,,,,,
230,39,Memory,4,,,,,,,sunabtrnbvpppgczjim.jpg,,,,,,,,,,,,,,,
231,39,Memory,4,,,,,,,00966960627fa.jpg,,,,,,,,,,,,,,,
232,39,Memory,4,,,,,,,00305940422fa.jpg,,,,,,,,,,,,,,,
233,39,Memory,4,,,,,,,00760960620fa.jpg,,,,,,,,,,,,,,,
234,39,Memory,4,,,,,,,sunafijbgncijwykrnl.jpg,,,,,,,,,,,,,,,
235,39,Memory,4,,,,,,,sunabizydfotqddlnjp.jpg,,,,,,,,,,,,,,,
236,39,Memory,4,,,,,,,sunagvprlbprarvgdvj.jpg,,,,,,,,,,,,,,,
237,39,Memory,4,,,,,,,sunaawsdjisukbbginm.jpg,,,,,,,,,,,,,,,
238,39,Memory,4,,,,,,,sunaivdjruhkrfywfed.jpg,,,,,,,,,,,,,,,
239,39,Memory,4,,,,,,,sunbbxkanhzjgbwyxqs.jpg,,,,,,,,,,,,,,,
240,39,Memory,4,,,,,,,00810941205fa.jpg,,,,,,,,,,,,,,,
241,39,Memory,4,,,,,,,00723941201fa.jpg,,,,,,,,,,,,,,,
242,39,Memory,4,,,,,,,00191940128fb.jpg,,,,,,,,,,,,,,,
243,39,Memory,4,,,,,,,sunakmnfgklupjijsgf.jpg,,,,,,,,,,,,,,,
244,39,Memory,4,,,,,,,sunagjeesomrwjsfqie.jpg,,,,,,,,,,,,,,,
245,39,Memory,4,,,,,,,sunabtlfmiwtljmoues.jpg,,,,,,,,,,,,,,,
246,39,Memory,4,,,,,,,00783941205fa.jpg,,,,,,,,,,,,,,,
247,39,Memory,4,,,,,,,00676941121fa.jpg,,,,,,,,,,,,,,,
248,39,Memory,4,,,,,,,00144931230fb.jpg,,,,,,,,,,,,,,,
249,39,Memory,4,,,,,,,00766960620fa.jpg,,,,,,,,,,,,,,,
250,39,Presentation,5,00498960627fa_sunabzjxlmkwnwzimua.jpg,00793941205fa_sunagtjwilqjvxohypn.jpg,00498960627fa.jpg,sunabzjxlmkwnwzimua.jpg,00793941205fa.jpg,sunagtjwilqjvxohypn.jpg,,,<,Face,,,,,1,,,,,,,o
251,39,Presentation,5,00870940307fa_sunajrgtewnualfcerj.jpg,00571940928fa_sunacuatpqpqhyjhjqk.jpg,00870940307fa.jpg,sunajrgtewnualfcerj.jpg,00571940928fa.jpg,sunacuatpqpqhyjhjqk.jpg,,,<,Face,,,,,1,,,,,,,o
252,39,Presentation,5,00871940307_sunajrujcsdxmfbssmc.jpg,00554940519fa_sunacfdkbsrughwqwtt.jpg,00871940307.jpg,sunajrujcsdxmfbssmc.jpg,00554940519fa.jpg,sunacfdkbsrughwqwtt.jpg,,,<,Face,,,,,1,,,,,,,o
253,39,Presentation,5,00630940928fa_sunaczwgyukesaajxnx.jpg,00242940128fa_sunabcuurugvxwparpk.jpg,00630940928fa.jpg,sunaczwgyukesaajxnx.jpg,00242940128fa.jpg,sunabcuurugvxwparpk.jpg,,,<,Face,,,,,1,,,,,,,o
254,39,Presentation,5,00092931230fa_sunaaheqzstzxuadglu.jpg,00548940519fa_sunacerqowiaeoqkmsq.jpg,00092931230fa.jpg,sunaaheqzstzxuadglu.jpg,00548940519fa.jpg,sunacerqowiaeoqkmsq.jpg,,,<,Face,,,,,1,,,,,,,x
255,39,Presentation,5,00271940422fa_sunabmbnddafmywtjjj.jpg,00481940519fa_sunabxsuqbleluwczoy.jpg,00271940422fa.jpg,sunabmbnddafmywtjjj.jpg,00481940519fa.jpg,sunabxsuqbleluwczoy.jpg,,,<,Face,,,,,1,,,,,,,x
256,39,Presentation,5,00901960530fa_sunammbnoambmhdxdwd.jpg,00741941201fa_sunaemcowdozyphwknd.jpg,00901960530fa.jpg,sunammbnoambmhdxdwd.jpg,00741941201fa.jpg,sunaemcowdozyphwknd.jpg,,,<,Face,,,,,1,,,,,,,o
257,39,Presentation,5,00909960530_sunaobtizabegtwfwul.jpg,00162931230fb_sunaavjinpnkappuonm.jpg,00909960530.jpg,sunaobtizabegtwfwul.jpg,00162931230fb.jpg,sunaavjinpnkappuonm.jpg,,,<,Face,,,,,1,,,,,,,x
258,39,Presentation,5,01009960627fa_sunbxzweleltykebgan.jpg,00264940128fb_sunabjzyxcjnmztdonj.jpg,01009960627fa.jpg,sunbxzweleltykebgan.jpg,00264940128fb.jpg,sunabjzyxcjnmztdonj.jpg,,,<,Face,,,,,1,,,,,,,o
259,39,Presentation,5,00638941031fa_sunadfktsqjthoglcsm.jpg,00960960627fa_sunawksfbacycuhbrsc.jpg,00638941031fa.jpg,sunadfktsqjthoglcsm.jpg,00960960627fa.jpg,sunawksfbacycuhbrsc.jpg,,,<,Face,,,,,1,,,,,,,x
260,39,Memory,5,,,,,,,00498960627fa.jpg,,,,,,,,,,,,,,,
261,39,Memory,5,,,,,,,sunaobtizabegtwfwul.jpg,,,,,,,,,,,,,,,
262,39,Memory,5,,,,,,,sunabzjxlmkwnwzimua.jpg,,,,,,,,,,,,,,,
263,39,Memory,5,,,,,,,01009960627fa.jpg,,,,,,,,,,,,,,,
264,39,Memory,5,,,,,,,sunabcuurugvxwparpk.jpg,,,,,,,,,,,,,,,
265,39,Memory,5,,,,,,,00571940928fa.jpg,,,,,,,,,,,,,,,
266,39,Memory,5,,,,,,,00931960627fa.jpg,,,,,,,,,,,,,,,
267,39,Memory,5,,,,,,,00957960627fa.jpg,,,,,,,,,,,,,,,
268,39,Memory,5,,,,,,,sunavhxgmgrqsaptynb.jpg,,,,,,,,,,,,,,,
269,39,Memory,5,,,,,,,00968960627fa.jpg,,,,,,,,,,,,,,,
270,39,Memory,5,,,,,,,sunbbegcweqnetpdlrh.jpg,,,,,,,,,,,,,,,
271,39,Memory,5,,,,,,,00264940128fb.jpg,,,,,,,,,,,,,,,
272,39,Memory,5,,,,,,,00909960530.jpg,,,,,,,,,,,,,,,
273,39,Memory,5,,,,,,,sunaozisvwfbmlkfhzv.jpg,,,,,,,,,,,,,,,
274,39,Memory,5,,,,,,,sunaczwgyukesaajxnx.jpg,,,,,,,,,,,,,,,
275,39,Memory,5,,,,,,,00630940928fa.jpg,,,,,,,,,,,,,,,
276,39,Memory,5,,,,,,,00971960627fa.jpg,,,,,,,,,,,,,,,
277,39,Memory,5,,,,,,,sunbvzmgrdvaakxusbu.jpg,,,,,,,,,,,,,,,
278,39,Memory,5,,,,,,,00884960530fa.jpg,,,,,,,,,,,,,,,
279,39,Memory,5,,,,,,,00815941205fa.jpg,,,,,,,,,,,,,,,
280,39,Memory,5,,,,,,,sunabjzyxcjnmztdonj.jpg,,,,,,,,,,,,,,,
281,39,Memory,5,,,,,,,sunagtumacdlmciqamz.jpg,,,,,,,,,,,,,,,
282,39,Memory,5,,,,,,,sunacuatpqpqhyjhjqk.jpg,,,,,,,,,,,,,,,
283,39,Memory,5,,,,,,,sunakodkcslgqhqlgwl.jpg,,,,,,,,,,,,,,,
284,39,Memory,5,,,,,,,sunaemcowdozyphwknd.jpg,,,,,,,,,,,,,,,
285,39,Memory,5,,,,,,,00481940519fa.jpg,,,,,,,,,,,,,,,
286,39,Memory,5,,,,,,,sunahiphsekjihkafsl.jpg,,,,,,,,,,,,,,,
287,39,Memory,5,,,,,,,sunaptrqvaooxfvktvw.jpg,,,,,,,,,,,,,,,
288,39,Memory,5,,,,,,,00741941201fa.jpg,,,,,,,,,,,,,,,
289,39,Memory,5,,,,,,,00914960620fa.jpg,,,,,,,,,,,,,,,
290,39,Memory,5,,,,,,,sunaakxgygjfqrzpyoz.jpg,,,,,,,,,,,,,,,
291,39,Memory,5,,,,,,,00120931230fa.jpg,,,,,,,,,,,,,,,
292,39,Memory,5,,,,,,,01000960627fa.jpg,,,,,,,,,,,,,,,
293,39,Memory,5,,,,,,,00242940128fa.jpg,,,,,,,,,,,,,,,
294,39,Memory,5,,,,,,,00871940307.jpg,,,,,,,,,,,,,,,
295,39,Memory,5,,,,,,,sunbxzweleltykebgan.jpg,,,,,,,,,,,,,,,
296,39,Memory,5,,,,,,,00795941205fa.jpg,,,,,,,,,,,,,,,
297,39,Memory,5,,,,,,,sunbagfpovqwbuexqdn.jpg,,,,,,,,,,,,,,,
298,39,Memory,5,,,,,,,sunajrujcsdxmfbssmc.jpg,,,,,,,,,,,,,,,
299,39,Memory,5,,,,,,,sunabxsuqbleluwczoy.jpg,,,,,,,,,,,,,,,
300,39,Presentation,6,00792941205fa_sunagsiwrmuixqgdimb.jpg,00784941205fb_sunagjzcrjvmxzqzljx.jpg,00792941205fa.jpg,sunagsiwrmuixqgdimb.jpg,00784941205fb.jpg,sunagjzcrjvmxzqzljx.jpg,,,>,Place,,,,,1,,,,,,,x
301,39,Presentation,6,00061931230fb_sunaaekxzjzrfgtkwjf.jpg,00719941201fa_sunadvithllcgmfxsrn.jpg,00061931230fb.jpg,sunaaekxzjzrfgtkwjf.jpg,00719941201fa.jpg,sunadvithllcgmfxsrn.jpg,,,>,Place,,,,,1,,,,,,,x
302,39,Presentation,6,00926960627Fa_sunapqwoeotxshkukbh.jpg,00807941205fa_sunahawfngukizslzsd.jpg,00926960627Fa.jpg,sunapqwoeotxshkukbh.jpg,00807941205fa.jpg,sunahawfngukizslzsd.jpg,,,>,Place,,,,,0,,,,,,,o
303,39,Presentation,6,00854940307fa_sunaiwduelojtwaqeyh.jpg,00857940307fa_sunaiwfobocrruqznsv.jpg,00854940307fa.jpg,sunaiwduelojtwaqeyh.jpg,00857940307fa.jpg,sunaiwfobocrruqznsv.jpg,,,>,Place,,,,,1,,,,,,,x
304,39,Presentation,6,00670941121fa_sunadochqcucscehsgk.jpg,01004960627fa_sunbwtlihsuptkrckid.jpg,00670941121fa.jpg,sunadochqcucscehsgk.jpg,01004960627fa.jpg,sunbwtlihsuptkrckid.jpg,,,>,Place,,,,,1,,,,,,,o
305,39,Presentation,6,00090931230fa_sunaahedjlmtqekgyvj.jpg,00969960627fa_sunbaoizrfijvhpnnjn.jpg,00090931230fa.jpg,sunaahedjlmtqekgyvj.jpg,00969960627fa.jpg,sunbaoizrfijvhpnnjn.jpg,,,>,Place,,,,,1,,,,,,,x
306,39,Presentation,6,00648941031fa_sunadfndyrtqqiasoig.jpg,00208940128fa_sunaazzyhbvqjpmazjq.jpg,00648941031fa.jpg,sunadfndyrtqqiasoig.jpg,00208940128fa.jpg,sunaazzyhbvqjpmazjq.jpg,,,>,Place,,,,,0,,,,,,,o
307,39,Presentation,6,00235940128fb_sunabclssnoeuigtawp.jpg,00153931230fa_sunaauhozyxzeeqstxi.jpg,00235940128fb.jpg,sunabclssnoeuigtawp.jpg,00153931230fa.jpg,sunaauhozyxzeeqstxi.jpg,,,>,Place,,,,,1,,,,,,,x
308,39,Presentation,6,00903960620fa_sunanainkqdvktzoxyl.jpg,00789960620fa_sunagpancjmxqfazssf.jpg,00903960620fa.jpg,sunanainkqdvktzoxyl.jpg,00789960620fa.jpg,sunagpancjmxqfazssf.jpg,,,>,Place,,,,,1,,,,,,,o
309,39,Presentation,6,00952960627fa_sunathzzbcwjykldrem.jpg,00829940307fa_sunahwgbqkqcrwprgvh.jpg,00952960627fa.jpg,sunathzzbcwjykldrem.jpg,00829940307fa.jpg,sunahwgbqkqcrwprgvh.jpg,,,>,Place,,,,,1,,,,,,,x
310,39,Memory,6,,,,,,,00972960627fa.jpg,,,,,,,,,,,,,,,
311,39,Memory,6,,,,,,,00903960620fa.jpg,,,,,,,,,,,,,,,
312,39,Memory,6,,,,,,,sunaaekxzjzrfgtkwjf.jpg,,,,,,,,,,,,,,,
313,39,Memory,6,,,,,,,00848940307fa.jpg,,,,,,,,,,,,,,,
314,39,Memory,6,,,,,,,sunaajayojuslbbnneg.jpg,,,,,,,,,,,,,,,
315,39,Memory,6,,,,,,,sunanainkqdvktzoxyl.jpg,,,,,,,,,,,,,,,
316,39,Memory,6,,,,,,,00963960627fa.jpg,,,,,,,,,,,,,,,
317,39,Memory,6,,,,,,,sunahawfngukizslzsd.jpg,,,,,,,,,,,,,,,
318,39,Memory,6,,,,,,,sunaazzyhbvqjpmazjq.jpg,,,,,,,,,,,,,,,
319,39,Memory,6,,,,,,,sunaiwfobocrruqznsv.jpg,,,,,,,,,,,,,,,
320,39,Memory,6,,,,,,,sunajawzbrlrwafowen.jpg,,,,,,,,,,,,,,,
321,39,Memory,6,,,,,,,sunayaepykrqvenaqqy.jpg,,,,,,,,,,,,,,,
322,39,Memory,6,,,,,,,00097931230fa.jpg,,,,,,,,,,,,,,,
323,39,Memory,6,,,,,,,sunadfndyrtqqiasoig.jpg,,,,,,,,,,,,,,,
324,39,Memory,6,,,,,,,00208940128fa.jpg,,,,,,,,,,,,,,,
325,39,Memory,6,,,,,,,00648941031fa.jpg,,,,,,,,,,,,,,,
326,39,Memory,6,,,,,,,00163931230fb.jpg,,,,,,,,,,,,,,,
327,39,Memory,6,,,,,,,sunbbfqwjpdxniyhies.jpg,,,,,,,,,,,,,,,
328,39,Memory,6,,,,,,,sunbaoizrfijvhpnnjn.jpg,,,,,,,,,,,,,,,
329,39,Memory,6,,,,,,,sunbddbivbptlrlauhy.jpg,,,,,,,,,,,,,,,
330,39,Memory,6,,,,,,,sunaiwduelojtwaqeyh.jpg,,,,,,,,,,,,,,,
331,39,Memory,6,,,,,,,00969960627fa.jpg,,,,,,,,,,,,,,,
332,39,Memory,6,,,,,,,sunagpancjmxqfazssf.jpg,,,,,,,,,,,,,,,
333,39,Memory,6,,,,,,,sunaavodbcpygkggnfp.jpg,,,,,,,,,,,,,,,
334,39,Memory,6,,,,,,,00061931230fb.jpg,,,,,,,,,,,,,,,
335,39,Memory,6,,,,,,,00854940307fa.jpg,,,,,,,,,,,,,,,
336,39,Memory,6,,,,,,,sunaafewhewbxmjiurz.jpg,,,,,,,,,,,,,,,
337,39,Memory,6,,,,,,,00877960530fa.jpg,,,,,,,,,,,,,,,
338,39,Memory,6,,,,,,,sunaivdylrawbmhryfp.jpg,,,,,,,,,,,,,,,
339,39,Memory,6,,,,,,,00235940128fb.jpg,,,,,,,,,,,,,,,
340,39,Memory,6,,,,,,,00807941205fa.jpg,,,,,,,,,,,,,,,
341,39,Memory,6,,,,,,,sunabclssnoeuigtawp.jpg,,,,,,,,,,,,,,,
342,39,Memory,6,,,,,,,00789960620fa.jpg,,,,,,,,,,,,,,,
343,39,Memory,6,,,,,,,00836940307fa.jpg,,,,,,,,,,,,,,,
344,39,Memory,6,,,,,,,00978960627fa.jpg,,,,,,,,,,,,,,,
345,39,Memory,6,,,,,,,sunajxpkuhbizeveguy.jpg,,,,,,,,,,,,,,,
346,39,Memory,6,,,,,,,sunainqelldeebvxtcz.jpg,,,,,,,,,,,,,,,
347,39,Memory,6,,,,,,,00864940307fa.jpg,,,,,,,,,,,,,,,
348,39,Memory,6,,,,,,,00857940307fa.jpg,,,,,,,,,,,,,,,
349,39,Memory,6,,,,,,,00076931230fa.jpg,,,,,,,,,,,,,,,
350,39,Presentation,7,00746941201fa_sunaetydippjxikifsb.jpg,00557940519fa_sunachtuarilwyqnvjx.jpg,00746941201fa.jpg,sunaetydippjxikifsb.jpg,00557940519fa.jpg,sunachtuarilwyqnvjx.jpg,,,<,Place,,,,,1,,,,,,,x
351,39,Presentation,7,00598941031fa_sunacxtcahkymosigud.jpg,00185940422fb_sunaawqdbpihmlbwyyn.jpg,00598941031fa.jpg,sunacxtcahkymosigud.jpg,00185940422fb.jpg,sunaawqdbpihmlbwyyn.jpg,,,<,Place,,,,,0,,,,,,,x
352,39,Presentation,7,01007960627fa_sunbxarcshsnqsefemx.jpg,00892960530fa_sunalntxqqadigcletd.jpg,01007960627fa.jpg,sunbxarcshsnqsefemx.jpg,00892960530fa.jpg,sunalntxqqadigcletd.jpg,,,<,Place,,,,,1,,,,,,,x
353,39,Presentation,7,00154931230fa_sunaauueuhhvklldjik.jpg,00077931230fb_sunaafgqutfaishsxyu.jpg,00154931230fa.jpg,sunaauueuhhvklldjik.jpg,00077931230fb.jpg,sunaafgqutfaishsxyu.jpg,,,<,Place,,,,,1,,,,,,,x
354,39,Presentation,7,00776941205fa_sunafxokyavhgptyfye.jpg,00804960530fa_sunagwswhkvnsmuszlz.jpg,00776941205fa.jpg,sunafxokyavhgptyfye.jpg,00804960530fa.jpg,sunagwswhkvnsmuszlz.jpg,,,<,Place,,,,,1,,,,,,,x
355,39,Presentation,7,00227940128fa_sunabckqabszusgcykj.jpg,00910960530fa_sunaofikylqtxphvdem.jpg,00227940128fa.jpg,sunabckqabszusgcykj.jpg,00910960530fa.jpg,sunaofikylqtxphvdem.jpg,,,<,Place,,,,,1,,,,,,,x
356,39,Presentation,7,00800941205fb_sunagvjurcwdbixvnyi.jpg,00071941031fa_sunaaexqbtdswxrqjvz.jpg,00800941205fb.jpg,sunagvjurcwdbixvnyi.jpg,00071941031fa.jpg,sunaaexqbtdswxrqjvz.jpg,,,<,Place,,,,,1,,,,,,,o
357,39,Presentation,7,00700941121fa_sunadsgmtznewzyasnk.jpg,00112931230fa_sunaakjaacuzulqckgl.jpg,00700941121fa.jpg,sunadsgmtznewzyasnk.jpg,00112931230fa.jpg,sunaakjaacuzulqckgl.jpg,,,<,Place,,,,,1,,,,,,,o
358,39,Presentation,7,00063931230fa_sunaaelyvurpntclgau.jpg,00812941205fa_sunahgtbwgsmtqeodwh.jpg,00063931230fa.jpg,sunaaelyvurpntclgau.jpg,00812941205fa.jpg,sunahgtbwgsmtqeodwh.jpg,,,<,Place,,,,,1,,,,,,,x
359,39,Presentation,7,00705960530fa_sunaduslxfzlbxlllnz.jpg,00889960530fa_sunaletopenvvozhpxc.jpg,00705960530fa.jpg,sunaduslxfzlbxlllnz.jpg,00889960530fa.jpg,sunaletopenvvozhpxc.jpg,,,<,Place,,,,,1,,,,,,,o
360,39,Memory,7,,,,,,,sunafcofuuzebuadceo.jpg,,,,,,,,,,,,,,,
361,39,Memory,7,,,,,,,sunaakjaacuzulqckgl.jpg,,,,,,,,,,,,,,,
362,39,Memory,7,,,,,,,sunbbgtoeuzierkkajt.jpg,,,,,,,,,,,,,,,
363,39,Memory,7,,,,,,,sunaglqunwuycxydmyu.jpg,,,,,,,,,,,,,,,
364,39,Memory,7,,,,,,,sunahrltmuwbiehihpe.jpg,,,,,,,,,,,,,,,
365,39,Memory,7,,,,,,,sunagutjvdvnhxejerz.jpg,,,,,,,,,,,,,,,
366,39,Memory,7,,,,,,,00799941205fa.jpg,,,,,,,,,,,,,,,
367,39,Memory,7,,,,,,,00280940422fb.jpg,,,,,,,,,,,,,,,
368,39,Memory,7,,,,,,,00776941205fa.jpg,,,,,,,,,,,,,,,
369,39,Memory,7,,,,,,,00700941121fa.jpg,,,,,,,,,,,,,,,
370,39,Memory,7,,,,,,,00800941205fb.jpg,,,,,,,,,,,,,,,
371,39,Memory,7,,,,,,,sunabkngeblodihjvbk.jpg,,,,,,,,,,,,,,,
372,39,Memory,7,,,,,,,sunabohxbskznglnrhv.jpg,,,,,,,,,,,,,,,
373,39,Memory,7,,,,,,,00785941205fa.jpg,,,,,,,,,,,,,,,
374,39,Memory,7,,,,,,,00892960530fa.jpg,,,,,,,,,,,,,,,
375,39,Memory,7,,,,,,,sunaawqdbpihmlbwyyn.jpg,,,,,,,,,,,,,,,
376,39,Memory,7,,,,,,,sunaofikylqtxphvdem.jpg,,,,,,,,,,,,,,,
377,39,Memory,7,,,,,,,01007960627fa.jpg,,,,,,,,,,,,,,,
378,39,Memory,7,,,,,,,sunafxokyavhgptyfye.jpg,,,,,,,,,,,,,,,
379,39,Memory,7,,,,,,,00753941201fa.jpg,,,,,,,,,,,,,,,
380,39,Memory,7,,,,,,,sunablfqiwfqomjarht.jpg,,,,,,,,,,,,,,,
381,39,Memory,7,,,,,,,00267940128fb.jpg,,,,,,,,,,,,,,,
382,39,Memory,7,,,,,,,sunaqbmgkgqucajzrkp.jpg,,,,,,,,,,,,,,,
383,39,Memory,7,,,,,,,00889960530fa.jpg,,,,,,,,,,,,,,,
384,39,Memory,7,,,,,,,sunaetydippjxikifsb.jpg,,,,,,,,,,,,,,,
385,39,Memory,7,,,,,,,sunagvjurcwdbixvnyi.jpg,,,,,,,,,,,,,,,
386,39,Memory,7,,,,,,,sunaletopenvvozhpxc.jpg,,,,,,,,,,,,,,,
387,39,Memory,7,,,,,,,00185940422fb.jpg,,,,,,,,,,,,,,,
388,39,Memory,7,,,,,,,00780960530fa.jpg,,,,,,,,,,,,,,,
389,39,Memory,7,,,,,,,sunalntxqqadigcletd.jpg,,,,,,,,,,,,,,,
390,39,Memory,7,,,,,,,00825940307fa.jpg,,,,,,,,,,,,,,,
391,39,Memory,7,,,,,,,00112931230fa.jpg,,,,,,,,,,,,,,,
392,39,Memory,7,,,,,,,sunadsgmtznewzyasnk.jpg,,,,,,,,,,,,,,,
393,39,Memory,7,,,,,,,00746941201fa.jpg,,,,,,,,,,,,,,,
394,39,Memory,7,,,,,,,00266940128fb.jpg,,,,,,,,,,,,,,,
395,39,Memory,7,,,,,,,00973960627fa.jpg,,,,,,,,,,,,,,,
396,39,Memory,7,,,,,,,sunagetqixeypsysbpn.jpg,,,,,,,,,,,,,,,
397,39,Memory,7,,,,,,,00935960627fa.jpg,,,,,,,,,,,,,,,
398,39,Memory,7,,,,,,,00910960530fa.jpg,,,,,,,,,,,,,,,
399,39,Memory,7,,,,,,,sunbxarcshsnqsefemx.jpg,,,,,,,,,,,,,,,
