,Subject,Trial Type,Run,Cued Composite,Uncued Composite,Cued Face,Cued Place,Uncued Face,Uncued Place,Memory Image,Category,Cued Side,Cued Category,Attention Reaction Time (s),Familiarity Reaction Time (s),Familiarity Rating,Attention Level,Cue Validity,Post Invalid Cue,Pre Invalid Cue,Attention Button,Rating History,Stimulus Onset,Stimulus End,Attention Probe
260,10,Memory,5,,,,,,,sunagmwxxwymwojbvgi.jpg,,,,,0.992,1.0,,,,,,,1553711931.23728,1553711933.667532,
261,10,Memory,5,,,,,,,01003960627fb.jpg,,,,,0.677,1.0,,,,,,,1553711934.938682,1553711937.153405,
262,10,Memory,5,,,,,,,00747941201fa.jpg,,,,,1.193,1.0,,,,,,,1553711938.406983,1553711940.923949,
263,10,Memory,5,,,,,,,00109931230fa.jpg,,,,,1.226,3.0,,,,,,,1553711942.190957,1553711944.823666,
264,10,Memory,5,,,,,,,00857940307fa.jpg,,,,,0.824,1.0,,,,,,,1553711946.092954,1553711948.430649,
265,10,Memory,5,,,,,,,00288940422fa.jpg,,,,,1.009,1.0,,,,,,,1553711949.676787,1553711952.072052,
266,10,Memory,5,,,,,,,01207940128fa.jpg,,,,,1.759,3.0,,,,,,,1553711953.311949,1553711955.923307,
267,10,Memory,5,,,,,,,00800941205fb.jpg,,,,,1.643,2.0,,,,,,,1553711957.162864,1553711959.81229,
268,10,Memory,5,,,,,,,sunaiwfobocrruqznsv.jpg,,,,,2.027,3.0,,,,,,,1553711961.097353,1553711963.877369,
269,10,Memory,5,,,,,,,sunaeutbrtswvsozxyk.jpg,,,,,0.976,1.0,,,,,,,1553711965.148303,1553711967.614269,
270,10,Memory,5,,,,,,,sunaeuvjbmdpknaqqaj.jpg,,,,,0.841,1.0,,,,,,,1553711968.866436,1553711971.136839,
271,10,Memory,5,,,,,,,00783941205fa.jpg,,,,,1.844,1.0,,,,,,,1553711972.350316,1553711975.302232,
272,10,Memory,5,,,,,,,sunafkmnlytenlsywia.jpg,,,,,1.108,1.0,,,,,,,1553711976.552212,1553711979.104353,
273,10,Memory,5,,,,,,,sunbmaiocftdtvnzgap.jpg,,,,,1.976,4.0,,,,,,,1553711980.353955,1553711983.200131,
274,10,Memory,5,,,,,,,sunaahedjlmtqekgyvj.jpg,,,,,1.159,1.0,,,,,,,1553711984.438379,1553711986.967403,
275,10,Memory,5,,,,,,,00077931230fb.jpg,,,,,1.275,3.0,,,,,,,1553711988.222868,1553711990.856978,
276,10,Memory,5,,,,,,,sunagrmyoovzukhxmlo.jpg,,,,,1.525,2.0,,,,,,,1553711992.123076,1553711994.887328,
277,10,Memory,5,,,,,,,00749941201fa.jpg,,,,,0.909,1.0,,,,,,,1553711996.142345,1553711998.472222,
278,10,Memory,5,,,,,,,sunabppokiyglaxpcha.jpg,,,,,1.426,1.0,,,,,,,1553711999.759369,1553712002.330348,
279,10,Memory,5,,,,,,,00900960530fa.jpg,,,,,1.375,1.0,,,,,,,1553712003.578466,1553712006.162518,
280,10,Memory,5,,,,,,,sundbixjudsgeuuehrn.jpg,,,,,1.677,2.0,,,,,,,1553712007.427949,1553712010.144585,
281,10,Memory,5,,,,,,,sunagjeesomrwjsfqie.jpg,,,,,1.91,4.0,,,,,,,1553712011.413856,1553712014.160085,
282,10,Memory,5,,,,,,,sunagcthdfirrcawoic.jpg,,,,,0.909,1.0,,,,,,,1553712015.3983,1553712017.743631,
283,10,Memory,5,,,,,,,00090931230fa.jpg,,,,,1.125,1.0,,,,,,,1553712018.999422,1553712021.600041,
284,10,Memory,5,,,,,,,sunaampvucecsfbdafn.jpg,,,,,1.443,2.0,,,,,,,1553712022.85049,1553712025.697093,
285,10,Memory,5,,,,,,,sunagvjurcwdbixvnyi.jpg,,,,,1.243,4.0,,,,,,,1553712026.951889,1553712029.451592,
286,10,Memory,5,,,,,,,sunaajuzribjrizdshh.jpg,,,,,1.058,1.0,,,,,,,1553712030.837112,1553712033.224847,
287,10,Memory,5,,,,,,,00787941205fa.jpg,,,,,1.658,2.0,,,,,,,1553712034.488022,1553712037.221053,
288,10,Memory,5,,,,,,,00791941205fa.jpg,,,,,1.075,1.0,,,,,,,1553712038.489379,1553712041.01776,
289,10,Memory,5,,,,,,,sunaaheqzstzxuadglu.jpg,,,,,1.026,1.0,,,,,,,1553712042.289537,1553712044.71981,
290,10,Memory,5,,,,,,,00789960620fa.jpg,,,,,0.709,1.0,,,,,,,1553712045.991942,1553712048.271289,
291,10,Memory,5,,,,,,,00768941205fa.jpg,,,,,0.942,1.0,,,,,,,1553712049.52605,1553712052.158399,
292,10,Memory,5,,,,,,,sunaafgqutfaishsxyu.jpg,,,,,1.293,1.0,,,,,,,1553712053.427302,1553712056.030126,
293,10,Memory,5,,,,,,,00092931230fa.jpg,,,,,0.993,1.0,,,,,,,1553712057.294764,1553712059.679033,
294,10,Memory,5,,,,,,,sunamlotskmmsjeogby.jpg,,,,,1.142,1.0,,,,,,,1553712060.946678,1553712063.417948,
295,10,Memory,5,,,,,,,sunbwdrdvsweerwsdrj.jpg,,,,,0.958,1.0,,,,,,,1553712064.664872,1553712067.150173,
296,10,Memory,5,,,,,,,00778941205fa.jpg,,,,,1.025,1.0,,,,,,,1553712068.399197,1553712070.978487,
297,10,Memory,5,,,,,,,00988960627fa.jpg,,,,,1.377,2.0,,,,,,,1553712072.2335,1553712074.966744,
298,10,Memory,5,,,,,,,sunagpancjmxqfazssf.jpg,,,,,1.059,1.0,,,,,,,1553712076.200598,1553712078.681177,
299,10,Memory,5,,,,,,,00127931230fa.jpg,,,,,0.959,1.0,,,,,,,1553712079.935686,1553712082.364969,
