,Subject,Trial Type,Run,Cued Composite,Uncued Composite,Cued Face,Cued Place,Uncued Face,Uncued Place,Memory Image,Category,Cued Side,Cued Category,Attention Response Time (s),Familiarity Reaction Time (s),Familiarity Rating,Attention Level,Cue Validity,Post Invalid Cue,Pre Invalid Cue,Attention Button,Rating History,Stimulus Onset,Stimulus End,Attention Probe
0,11,Presentation,0,00576941031fa_sunacvjlsylseoghjup.jpg,00753941201fa_sunafcofuuzebuadceo.jpg,00576941031fa.jpg,sunacvjlsylseoghjup.jpg,00753941201fa.jpg,sunafcofuuzebuadceo.jpg,,,<,Place,,,,,1,,,,,,,o
1,11,Presentation,0,00559940519fa_sunacjkmnpawfzbyvae.jpg,01005960627fa_sunbwyuesflwdpqtgoy.jpg,00559940519fa.jpg,sunacjkmnpawfzbyvae.jpg,01005960627fa.jpg,sunbwyuesflwdpqtgoy.jpg,,,<,Place,,,,,1,,,,,,,x
2,11,Presentation,0,00996960627fa_sunbpvgllfdejxcpjqp.jpg,00841940307fa_sunaisiwfgppimtnmxl.jpg,00996960627fa.jpg,sunbpvgllfdejxcpjqp.jpg,00841940307fa.jpg,sunaisiwfgppimtnmxl.jpg,,,<,Place,,,,,1,,,,,,,x
3,11,Presentation,0,00296940422fa_sunabrwnslxalcohfre.jpg,00785941205fa_sunaglqunwuycxydmyu.jpg,00296940422fa.jpg,sunabrwnslxalcohfre.jpg,00785941205fa.jpg,sunaglqunwuycxydmyu.jpg,,,<,Place,,,,,1,,,,,,,o
4,11,Presentation,0,00939960627fa_sunarceibpcyacbmfga.jpg,00976960627fa_sunbbhqyyzmsxhsbjmp.jpg,00939960627fa.jpg,sunarceibpcyacbmfga.jpg,00976960627fa.jpg,sunbbhqyyzmsxhsbjmp.jpg,,,<,Place,,,,,1,,,,,,,x
5,11,Presentation,0,00874940307fa_sunajtrfunvzdfticna.jpg,00730960620fa_sunaekgzpfilgjxpeyq.jpg,00874940307fa.jpg,sunajtrfunvzdfticna.jpg,00730960620fa.jpg,sunaekgzpfilgjxpeyq.jpg,,,<,Place,,,,,1,,,,,,,o
6,11,Presentation,0,00725941201fa_sunaefgzwiramypjvtd.jpg,00598940928fa_sunacxeheuiigkcgquf.jpg,00725941201fa.jpg,sunaefgzwiramypjvtd.jpg,00598940928fa.jpg,sunacxeheuiigkcgquf.jpg,,,<,Place,,,,,1,,,,,,,x
7,11,Presentation,0,00098931230fa_sunaajpqmulidejvjsr.jpg,00163931230fb_sunaavodbcpygkggnfp.jpg,00098931230fa.jpg,sunaajpqmulidejvjsr.jpg,00163931230fb.jpg,sunaavodbcpygkggnfp.jpg,,,<,Place,,,,,0,,,,,,,o
8,11,Presentation,0,00972960627fa_sunbbfqwjpdxniyhies.jpg,00263940128fb_sunabjuovqvyfuzvqwt.jpg,00972960627fa.jpg,sunbbfqwjpdxniyhies.jpg,00263940128fb.jpg,sunabjuovqvyfuzvqwt.jpg,,,<,Place,,,,,1,,,,,,,x
9,11,Presentation,0,00854940307fa_sunaiwduelojtwaqeyh.jpg,00818940307fa_sunahpblecxtmuzkmxb.jpg,00854940307fa.jpg,sunaiwduelojtwaqeyh.jpg,00818940307fa.jpg,sunahpblecxtmuzkmxb.jpg,,,<,Place,,,,,0,,,,,,,o
10,11,Memory,0,,,,,,,sunabkmdplkdbvxriff.jpg,,,,,,,,,,,,,,,
11,11,Memory,0,,,,,,,00876960620fa.jpg,,,,,,,,,,,,,,,
12,11,Memory,0,,,,,,,sunaavodbcpygkggnfp.jpg,,,,,,,,,,,,,,,
13,11,Memory,0,,,,,,,sunbbegcweqnetpdlrh.jpg,,,,,,,,,,,,,,,
14,11,Memory,0,,,,,,,00973960627fa.jpg,,,,,,,,,,,,,,,
15,11,Memory,0,,,,,,,sunaefgzwiramypjvtd.jpg,,,,,,,,,,,,,,,
16,11,Memory,0,,,,,,,sunagfvluwixdsozaql.jpg,,,,,,,,,,,,,,,
17,11,Memory,0,,,,,,,00098931230fa.jpg,,,,,,,,,,,,,,,
18,11,Memory,0,,,,,,,sunafcofuuzebuadceo.jpg,,,,,,,,,,,,,,,
19,11,Memory,0,,,,,,,sunbgzjryivyczuvkvm.jpg,,,,,,,,,,,,,,,
20,11,Memory,0,,,,,,,00986960627fa.jpg,,,,,,,,,,,,,,,
21,11,Memory,0,,,,,,,sunaekgzpfilgjxpeyq.jpg,,,,,,,,,,,,,,,
22,11,Memory,0,,,,,,,00163931230fb.jpg,,,,,,,,,,,,,,,
23,11,Memory,0,,,,,,,00971960627fa.jpg,,,,,,,,,,,,,,,
24,11,Memory,0,,,,,,,00955960627fb.jpg,,,,,,,,,,,,,,,
25,11,Memory,0,,,,,,,sunaptrqvaooxfvktvw.jpg,,,,,,,,,,,,,,,
26,11,Memory,0,,,,,,,00265940128fb.jpg,,,,,,,,,,,,,,,
27,11,Memory,0,,,,,,,00985960627fa.jpg,,,,,,,,,,,,,,,
28,11,Memory,0,,,,,,,sunbbgtoeuzierkkajt.jpg,,,,,,,,,,,,,,,
29,11,Memory,0,,,,,,,00730960620fa.jpg,,,,,,,,,,,,,,,
30,11,Memory,0,,,,,,,sunaisiwfgppimtnmxl.jpg,,,,,,,,,,,,,,,
31,11,Memory,0,,,,,,,00276940422fa.jpg,,,,,,,,,,,,,,,
32,11,Memory,0,,,,,,,sunbgklxeqjhdbyfhhy.jpg,,,,,,,,,,,,,,,
33,11,Memory,0,,,,,,,00782941205fa.jpg,,,,,,,,,,,,,,,
34,11,Memory,0,,,,,,,00559940519fa.jpg,,,,,,,,,,,,,,,
35,11,Memory,0,,,,,,,00841940307fa.jpg,,,,,,,,,,,,,,,
36,11,Memory,0,,,,,,,00576941031fa.jpg,,,,,,,,,,,,,,,
37,11,Memory,0,,,,,,,sunaiwduelojtwaqeyh.jpg,,,,,,,,,,,,,,,
38,11,Memory,0,,,,,,,00725941201fa.jpg,,,,,,,,,,,,,,,
39,11,Memory,0,,,,,,,sunauburywlkjszngcq.jpg,,,,,,,,,,,,,,,
40,11,Memory,0,,,,,,,00854940307fa.jpg,,,,,,,,,,,,,,,
41,11,Memory,0,,,,,,,00753941201fa.jpg,,,,,,,,,,,,,,,
42,11,Memory,0,,,,,,,sunaglqunwuycxydmyu.jpg,,,,,,,,,,,,,,,
43,11,Memory,0,,,,,,,00785941205fa.jpg,,,,,,,,,,,,,,,
44,11,Memory,0,,,,,,,sunacjkmnpawfzbyvae.jpg,,,,,,,,,,,,,,,
45,11,Memory,0,,,,,,,00931960627fa.jpg,,,,,,,,,,,,,,,
46,11,Memory,0,,,,,,,sunaajpqmulidejvjsr.jpg,,,,,,,,,,,,,,,
47,11,Memory,0,,,,,,,sunabmytpyhsgigllxu.jpg,,,,,,,,,,,,,,,
48,11,Memory,0,,,,,,,sunajwqkfsykceonyig.jpg,,,,,,,,,,,,,,,
49,11,Memory,0,,,,,,,sunacvjlsylseoghjup.jpg,,,,,,,,,,,,,,,
50,11,Presentation,1,00096931230fa_sunaaiqiqcggrskoqgy.jpg,00889960530fa_sunaletopenvvozhpxc.jpg,00096931230fa.jpg,sunaaiqiqcggrskoqgy.jpg,00889960530fa.jpg,sunaletopenvvozhpxc.jpg,,,>,Place,,,,,1,,,,,,,x
51,11,Presentation,1,00807941205fa_sunahawfngukizslzsd.jpg,00071941031fa_sunaaexqbtdswxrqjvz.jpg,00807941205fa.jpg,sunahawfngukizslzsd.jpg,00071941031fa.jpg,sunaaexqbtdswxrqjvz.jpg,,,>,Place,,,,,0,,,,,,,x
52,11,Presentation,1,00647941031fa_sunadflbrkckmepztql.jpg,00727941205fa_sunaeisnjeetzmkbuad.jpg,00647941031fa.jpg,sunadflbrkckmepztql.jpg,00727941205fa.jpg,sunaeisnjeetzmkbuad.jpg,,,>,Place,,,,,1,,,,,,,x
53,11,Presentation,1,00092931230fa_sunaaheqzstzxuadglu.jpg,00799941205fa_sunagutjvdvnhxejerz.jpg,00092931230fa.jpg,sunaaheqzstzxuadglu.jpg,00799941205fa.jpg,sunagutjvdvnhxejerz.jpg,,,>,Place,,,,,1,,,,,,,x
54,11,Presentation,1,00069931230fb_sunaaeowapdkwzqpgqr.jpg,00532960627fa_sunaccdtpgenvcbcbcf.jpg,00069931230fb.jpg,sunaaeowapdkwzqpgqr.jpg,00532960627fa.jpg,sunaccdtpgenvcbcbcf.jpg,,,>,Place,,,,,1,,,,,,,o
55,11,Presentation,1,00796941205fa_sunaguchqqnrtodtezq.jpg,00966960627fa_sunaygrtwrwfezqjizr.jpg,00796941205fa.jpg,sunaguchqqnrtodtezq.jpg,00966960627fa.jpg,sunaygrtwrwfezqjizr.jpg,,,>,Place,,,,,1,,,,,,,o
56,11,Presentation,1,00221940128fa_sunabcfpwlpolnutyju.jpg,00562941031fa_sunacjnahdmqfnjfwqx.jpg,00221940128fa.jpg,sunabcfpwlpolnutyju.jpg,00562941031fa.jpg,sunacjnahdmqfnjfwqx.jpg,,,>,Place,,,,,1,,,,,,,o
57,11,Presentation,1,00086931230fa_sunaafynehyrzpsoaml.jpg,00197940128fa_sunaaylzyqlqrsmfwif.jpg,00086931230fa.jpg,sunaafynehyrzpsoaml.jpg,00197940128fa.jpg,sunaaylzyqlqrsmfwif.jpg,,,>,Place,,,,,1,,,,,,,x
58,11,Presentation,1,00581940928fa_sunacvzhvcksnwqcqbw.jpg,00112931230fa_sunaakjaacuzulqckgl.jpg,00581940928fa.jpg,sunacvzhvcksnwqcqbw.jpg,00112931230fa.jpg,sunaakjaacuzulqckgl.jpg,,,>,Place,,,,,1,,,,,,,x
59,11,Presentation,1,00804960530fa_sunagwswhkvnsmuszlz.jpg,00144931230fb_sunaathajvxrgptwhoj.jpg,00804960530fa.jpg,sunagwswhkvnsmuszlz.jpg,00144931230fb.jpg,sunaathajvxrgptwhoj.jpg,,,>,Place,,,,,1,,,,,,,o
60,11,Memory,1,,,,,,,sunabxsbfwjccqxxzxq.jpg,,,,,,,,,,,,,,,
61,11,Memory,1,,,,,,,sunabzjxlmkwnwzimua.jpg,,,,,,,,,,,,,,,
62,11,Memory,1,,,,,,,sunaprnrbmgkomdbchr.jpg,,,,,,,,,,,,,,,
63,11,Memory,1,,,,,,,00727941205fa.jpg,,,,,,,,,,,,,,,
64,11,Memory,1,,,,,,,sunaaylzyqlqrsmfwif.jpg,,,,,,,,,,,,,,,
65,11,Memory,1,,,,,,,00479940519fa.jpg,,,,,,,,,,,,,,,
66,11,Memory,1,,,,,,,00122931230fa.jpg,,,,,,,,,,,,,,,
67,11,Memory,1,,,,,,,sunaaheqzstzxuadglu.jpg,,,,,,,,,,,,,,,
68,11,Memory,1,,,,,,,00096931230fa.jpg,,,,,,,,,,,,,,,
69,11,Memory,1,,,,,,,00804960530fa.jpg,,,,,,,,,,,,,,,
70,11,Memory,1,,,,,,,00061931230fb.jpg,,,,,,,,,,,,,,,
71,11,Memory,1,,,,,,,00929960627fa.jpg,,,,,,,,,,,,,,,
72,11,Memory,1,,,,,,,00130931230fa.jpg,,,,,,,,,,,,,,,
73,11,Memory,1,,,,,,,sunacbeefkxpymwevpk.jpg,,,,,,,,,,,,,,,
74,11,Memory,1,,,,,,,sunaguchqqnrtodtezq.jpg,,,,,,,,,,,,,,,
75,11,Memory,1,,,,,,,sunaaiqiqcggrskoqgy.jpg,,,,,,,,,,,,,,,
76,11,Memory,1,,,,,,,sunaiozxhxgtfrmoagh.jpg,,,,,,,,,,,,,,,
77,11,Memory,1,,,,,,,sunaygrtwrwfezqjizr.jpg,,,,,,,,,,,,,,,
78,11,Memory,1,,,,,,,sunagwswhkvnsmuszlz.jpg,,,,,,,,,,,,,,,
79,11,Memory,1,,,,,,,00498960627fa.jpg,,,,,,,,,,,,,,,
80,11,Memory,1,,,,,,,sunaathajvxrgptwhoj.jpg,,,,,,,,,,,,,,,
81,11,Memory,1,,,,,,,sunaakqepfoeqomfgxf.jpg,,,,,,,,,,,,,,,
82,11,Memory,1,,,,,,,00144931230fb.jpg,,,,,,,,,,,,,,,
83,11,Memory,1,,,,,,,00796941205fa.jpg,,,,,,,,,,,,,,,
84,11,Memory,1,,,,,,,00966960627fa.jpg,,,,,,,,,,,,,,,
85,11,Memory,1,,,,,,,sunaamvxnvouicstkjb.jpg,,,,,,,,,,,,,,,
86,11,Memory,1,,,,,,,sunaakjaacuzulqckgl.jpg,,,,,,,,,,,,,,,
87,11,Memory,1,,,,,,,sunaeisnjeetzmkbuad.jpg,,,,,,,,,,,,,,,
88,11,Memory,1,,,,,,,00529940519fa.jpg,,,,,,,,,,,,,,,
89,11,Memory,1,,,,,,,00092931230fa.jpg,,,,,,,,,,,,,,,
90,11,Memory,1,,,,,,,sunaaekxzjzrfgtkwjf.jpg,,,,,,,,,,,,,,,
91,11,Memory,1,,,,,,,00116931230fa.jpg,,,,,,,,,,,,,,,
92,11,Memory,1,,,,,,,00662941121fa.jpg,,,,,,,,,,,,,,,
93,11,Memory,1,,,,,,,00221940128fa.jpg,,,,,,,,,,,,,,,
94,11,Memory,1,,,,,,,00838940307fa.jpg,,,,,,,,,,,,,,,
95,11,Memory,1,,,,,,,00197940128fa.jpg,,,,,,,,,,,,,,,
96,11,Memory,1,,,,,,,00112931230fa.jpg,,,,,,,,,,,,,,,
97,11,Memory,1,,,,,,,sunabcfpwlpolnutyju.jpg,,,,,,,,,,,,,,,
98,11,Memory,1,,,,,,,sunaakxjfbrrequcjmx.jpg,,,,,,,,,,,,,,,
99,11,Memory,1,,,,,,,sunadkazmlajmohnwfl.jpg,,,,,,,,,,,,,,,
100,11,Presentation,2,00788941205fa_sunagountlxpzkytsmp.jpg,00947960627fa_sunasmmcxdddtmtazwx.jpg,00788941205fa.jpg,sunagountlxpzkytsmp.jpg,00947960627fa.jpg,sunasmmcxdddtmtazwx.jpg,,,<,Face,,,,,1,,,,,,,o
101,11,Presentation,2,00481940519fa_sunabxsuqbleluwczoy.jpg,00787941205fa_sunagmwxxwymwojbvgi.jpg,00481940519fa.jpg,sunabxsuqbleluwczoy.jpg,00787941205fa.jpg,sunagmwxxwymwojbvgi.jpg,,,<,Face,,,,,1,,,,,,,o
102,11,Presentation,2,00131931230fb_sunaangbuylfvckqqoo.jpg,00630940928fa_sunaczwgyukesaajxnx.jpg,00131931230fb.jpg,sunaangbuylfvckqqoo.jpg,00630940928fa.jpg,sunaczwgyukesaajxnx.jpg,,,<,Face,,,,,1,,,,,,,x
103,11,Presentation,2,00719941201fa_sunadvithllcgmfxsrn.jpg,00125931230fa_sunaalltyvjhbzhkmvg.jpg,00719941201fa.jpg,sunadvithllcgmfxsrn.jpg,00125931230fa.jpg,sunaalltyvjhbzhkmvg.jpg,,,<,Face,,,,,1,,,,,,,o
104,11,Presentation,2,00942960627fa_sunarfdklgdnjgeqfjg.jpg,00952960627fa_sunathzzbcwjykldrem.jpg,00942960627fa.jpg,sunarfdklgdnjgeqfjg.jpg,00952960627fa.jpg,sunathzzbcwjykldrem.jpg,,,<,Face,,,,,1,,,,,,,o
105,11,Presentation,2,00073931230fa_sunaafbmtoniaasysgu.jpg,00271940422fa_sunabmbnddafmywtjjj.jpg,00073931230fa.jpg,sunaafbmtoniaasysgu.jpg,00271940422fa.jpg,sunabmbnddafmywtjjj.jpg,,,<,Face,,,,,1,,,,,,,x
106,11,Presentation,2,00060931230fa_sunaaehaikpckyjsety.jpg,00184940128fa_sunaavtbadenwnzeutj.jpg,00060931230fa.jpg,sunaaehaikpckyjsety.jpg,00184940128fa.jpg,sunaavtbadenwnzeutj.jpg,,,<,Face,,,,,1,,,,,,,x
107,11,Presentation,2,00745941205fa_sunaeouogqolxvggaoq.jpg,00306940422fa_sunabueyoajufbkraki.jpg,00745941205fa.jpg,sunaeouogqolxvggaoq.jpg,00306940422fa.jpg,sunabueyoajufbkraki.jpg,,,<,Face,,,,,0,,,,,,,o
108,11,Presentation,2,00158931230fb_sunaavchcbptaerhcfy.jpg,00999960627fa_sunbvbrvgbpanfrawft.jpg,00158931230fb.jpg,sunaavchcbptaerhcfy.jpg,00999960627fa.jpg,sunbvbrvgbpanfrawft.jpg,,,<,Face,,,,,0,,,,,,,o
109,11,Presentation,2,00933960627fa_sunapwjkcxdaeqehfql.jpg,00772941201fa_sunafpfpiiujzoesnqg.jpg,00933960627fa.jpg,sunapwjkcxdaeqehfql.jpg,00772941201fa.jpg,sunafpfpiiujzoesnqg.jpg,,,<,Face,,,,,1,,,,,,,o
110,11,Memory,2,,,,,,,00073931230fa.jpg,,,,,,,,,,,,,,,
111,11,Memory,2,,,,,,,00791941205fa.jpg,,,,,,,,,,,,,,,
112,11,Memory,2,,,,,,,00947960627fa.jpg,,,,,,,,,,,,,,,
113,11,Memory,2,,,,,,,00938960627fa.jpg,,,,,,,,,,,,,,,
114,11,Memory,2,,,,,,,00789960620fa.jpg,,,,,,,,,,,,,,,
115,11,Memory,2,,,,,,,00752960620fa.jpg,,,,,,,,,,,,,,,
116,11,Memory,2,,,,,,,00271940422fa.jpg,,,,,,,,,,,,,,,
117,11,Memory,2,,,,,,,00848940307fa.jpg,,,,,,,,,,,,,,,
118,11,Memory,2,,,,,,,sunasmmcxdddtmtazwx.jpg,,,,,,,,,,,,,,,
119,11,Memory,2,,,,,,,sunagountlxpzkytsmp.jpg,,,,,,,,,,,,,,,
120,11,Memory,2,,,,,,,sunbfzchmomnvzhbxdg.jpg,,,,,,,,,,,,,,,
121,11,Memory,2,,,,,,,sunaavjinpnkappuonm.jpg,,,,,,,,,,,,,,,
122,11,Memory,2,,,,,,,sunaavchcbptaerhcfy.jpg,,,,,,,,,,,,,,,
123,11,Memory,2,,,,,,,sunaqyylsngywqzwfmx.jpg,,,,,,,,,,,,,,,
124,11,Memory,2,,,,,,,sunagpancjmxqfazssf.jpg,,,,,,,,,,,,,,,
125,11,Memory,2,,,,,,,sunaivdylrawbmhryfp.jpg,,,,,,,,,,,,,,,
126,11,Memory,2,,,,,,,sunaangbuylfvckqqoo.jpg,,,,,,,,,,,,,,,
127,11,Memory,2,,,,,,,00952960627fa.jpg,,,,,,,,,,,,,,,
128,11,Memory,2,,,,,,,00942960627fa.jpg,,,,,,,,,,,,,,,
129,11,Memory,2,,,,,,,00914960620fa.jpg,,,,,,,,,,,,,,,
130,11,Memory,2,,,,,,,sunaozisvwfbmlkfhzv.jpg,,,,,,,,,,,,,,,
131,11,Memory,2,,,,,,,sunalntxqqadigcletd.jpg,,,,,,,,,,,,,,,
132,11,Memory,2,,,,,,,00158931230fb.jpg,,,,,,,,,,,,,,,
133,11,Memory,2,,,,,,,sunathzzbcwjykldrem.jpg,,,,,,,,,,,,,,,
134,11,Memory,2,,,,,,,sunaafbmtoniaasysgu.jpg,,,,,,,,,,,,,,,
135,11,Memory,2,,,,,,,sunagmwxxwymwojbvgi.jpg,,,,,,,,,,,,,,,
136,11,Memory,2,,,,,,,sunaalltyvjhbzhkmvg.jpg,,,,,,,,,,,,,,,
137,11,Memory,2,,,,,,,00892960530fa.jpg,,,,,,,,,,,,,,,
138,11,Memory,2,,,,,,,00741941201fa.jpg,,,,,,,,,,,,,,,
139,11,Memory,2,,,,,,,sunarfdklgdnjgeqfjg.jpg,,,,,,,,,,,,,,,
140,11,Memory,2,,,,,,,sunagrmyoovzukhxmlo.jpg,,,,,,,,,,,,,,,
141,11,Memory,2,,,,,,,00787941205fa.jpg,,,,,,,,,,,,,,,
142,11,Memory,2,,,,,,,sunafbwnojpqeyzssoe.jpg,,,,,,,,,,,,,,,
143,11,Memory,2,,,,,,,sunabmbnddafmywtjjj.jpg,,,,,,,,,,,,,,,
144,11,Memory,2,,,,,,,00131931230fb.jpg,,,,,,,,,,,,,,,
145,11,Memory,2,,,,,,,00984960627fa.jpg,,,,,,,,,,,,,,,
146,11,Memory,2,,,,,,,00162931230fb.jpg,,,,,,,,,,,,,,,
147,11,Memory,2,,,,,,,00788941205fa.jpg,,,,,,,,,,,,,,,
148,11,Memory,2,,,,,,,sunaemcowdozyphwknd.jpg,,,,,,,,,,,,,,,
149,11,Memory,2,,,,,,,00125931230fa.jpg,,,,,,,,,,,,,,,
150,11,Presentation,3,00978960627fa_sunbddbivbptlrlauhy.jpg,00919960620fa_sunapmfmzadmosuogaz.jpg,00978960627fa.jpg,sunbddbivbptlrlauhy.jpg,00919960620fa.jpg,sunapmfmzadmosuogaz.jpg,,,<,Place,,,,,1,,,,,,,o
151,11,Presentation,3,00694941121fa_sunadrmfzmstgdjdcod.jpg,00111931230fb_sunaakgekhjklxmvulj.jpg,00694941121fa.jpg,sunadrmfzmstgdjdcod.jpg,00111931230fb.jpg,sunaakgekhjklxmvulj.jpg,,,<,Place,,,,,1,,,,,,,x
152,11,Presentation,3,00828940307fa_sunahuynahneraqftyz.jpg,00961960627fa_sunawotxrevnqvamsfp.jpg,00828940307fa.jpg,sunahuynahneraqftyz.jpg,00961960627fa.jpg,sunawotxrevnqvamsfp.jpg,,,<,Place,,,,,1,,,,,,,o
153,11,Presentation,3,00797960620fa_sunagufzbeteqdjxais.jpg,00146960620fb_sunaatpeezlljqaxlhj.jpg,00797960620fa.jpg,sunagufzbeteqdjxais.jpg,00146960620fb.jpg,sunaatpeezlljqaxlhj.jpg,,,<,Place,,,,,1,,,,,,,o
154,11,Presentation,3,00700941121fa_sunadsgmtznewzyasnk.jpg,00292940422fb_sunabrjdpmoedcdjbpo.jpg,00700941121fa.jpg,sunadsgmtznewzyasnk.jpg,00292940422fb.jpg,sunabrjdpmoedcdjbpo.jpg,,,<,Place,,,,,1,,,,,,,o
155,11,Presentation,3,00214940128fa_sunabbafjowbzcvbucc.jpg,00093931230fa_sunaahwnmtqsrhocysw.jpg,00214940128fa.jpg,sunabbafjowbzcvbucc.jpg,00093931230fa.jpg,sunaahwnmtqsrhocysw.jpg,,,<,Place,,,,,1,,,,,,,x
156,11,Presentation,3,00851940307fa_sunaivflshbyfrfzhqb.jpg,00815941205fa_sunahiphsekjihkafsl.jpg,00851940307fa.jpg,sunaivflshbyfrfzhqb.jpg,00815941205fa.jpg,sunahiphsekjihkafsl.jpg,,,<,Place,,,,,1,,,,,,,o
157,11,Presentation,3,00149931230fa_sunaauglwmctnkxyird.jpg,00235940128fb_sunabclssnoeuigtawp.jpg,00149931230fa.jpg,sunaauglwmctnkxyird.jpg,00235940128fb.jpg,sunabclssnoeuigtawp.jpg,,,<,Place,,,,,1,,,,,,,x
158,11,Presentation,3,00280940422fb_sunabohxbskznglnrhv.jpg,00132931230fb_sunaanjcbzdvtvblsdy.jpg,00280940422fb.jpg,sunabohxbskznglnrhv.jpg,00132931230fb.jpg,sunaanjcbzdvtvblsdy.jpg,,,<,Place,,,,,1,,,,,,,o
159,11,Presentation,3,00979960627fa_sunbdycacjfaujxitbw.jpg,00866940307fa_sunajbwkywmsqkldfml.jpg,00979960627fa.jpg,sunbdycacjfaujxitbw.jpg,00866940307fa.jpg,sunajbwkywmsqkldfml.jpg,,,<,Place,,,,,1,,,,,,,x
160,11,Memory,3,,,,,,,00214940128fa.jpg,,,,,,,,,,,,,,,
161,11,Memory,3,,,,,,,00828940307fa.jpg,,,,,,,,,,,,,,,
162,11,Memory,3,,,,,,,sunabxmguapjekttvwm.jpg,,,,,,,,,,,,,,,
163,11,Memory,3,,,,,,,00681941121fa.jpg,,,,,,,,,,,,,,,
164,11,Memory,3,,,,,,,sunabbafjowbzcvbucc.jpg,,,,,,,,,,,,,,,
165,11,Memory,3,,,,,,,00978960627fa.jpg,,,,,,,,,,,,,,,
166,11,Memory,3,,,,,,,sunaayehfdqcyxggsej.jpg,,,,,,,,,,,,,,,
167,11,Memory,3,,,,,,,00878960530fa.jpg,,,,,,,,,,,,,,,
168,11,Memory,3,,,,,,,00979960627fa.jpg,,,,,,,,,,,,,,,
169,11,Memory,3,,,,,,,00815941205fa.jpg,,,,,,,,,,,,,,,
170,11,Memory,3,,,,,,,sunadqmjrhfjyuzyvdd.jpg,,,,,,,,,,,,,,,
171,11,Memory,3,,,,,,,sunakgbnzxmfohgehnu.jpg,,,,,,,,,,,,,,,
172,11,Memory,3,,,,,,,00194940128fb.jpg,,,,,,,,,,,,,,,
173,11,Memory,3,,,,,,,sunaatpeezlljqaxlhj.jpg,,,,,,,,,,,,,,,
174,11,Memory,3,,,,,,,sunahiphsekjihkafsl.jpg,,,,,,,,,,,,,,,
175,11,Memory,3,,,,,,,00314940422fa.jpg,,,,,,,,,,,,,,,
176,11,Memory,3,,,,,,,sunabrjdpmoedcdjbpo.jpg,,,,,,,,,,,,,,,
177,11,Memory,3,,,,,,,sunbddbivbptlrlauhy.jpg,,,,,,,,,,,,,,,
178,11,Memory,3,,,,,,,sunahqldjibofgsfdgb.jpg,,,,,,,,,,,,,,,
179,11,Memory,3,,,,,,,sunabwmcbaxwioksdgw.jpg,,,,,,,,,,,,,,,
180,11,Memory,3,,,,,,,00839940307fa.jpg,,,,,,,,,,,,,,,
181,11,Memory,3,,,,,,,00093931230fa.jpg,,,,,,,,,,,,,,,
182,11,Memory,3,,,,,,,00292940422fb.jpg,,,,,,,,,,,,,,,
183,11,Memory,3,,,,,,,sunadrmfzmstgdjdcod.jpg,,,,,,,,,,,,,,,
184,11,Memory,3,,,,,,,sunaipyohrqlwngaqif.jpg,,,,,,,,,,,,,,,
185,11,Memory,3,,,,,,,sunahqrxievfeusiqlt.jpg,,,,,,,,,,,,,,,
186,11,Memory,3,,,,,,,sunahuynahneraqftyz.jpg,,,,,,,,,,,,,,,
187,11,Memory,3,,,,,,,sunaanjcbzdvtvblsdy.jpg,,,,,,,,,,,,,,,
188,11,Memory,3,,,,,,,00193940928fa.jpg,,,,,,,,,,,,,,,
189,11,Memory,3,,,,,,,sunaahwnmtqsrhocysw.jpg,,,,,,,,,,,,,,,
190,11,Memory,3,,,,,,,00574940928fa.jpg,,,,,,,,,,,,,,,
191,11,Memory,3,,,,,,,00819940307fa.jpg,,,,,,,,,,,,,,,
192,11,Memory,3,,,,,,,sunacvbrcejzwmcgnoq.jpg,,,,,,,,,,,,,,,
193,11,Memory,3,,,,,,,sunaaxjpzcnxligjtjq.jpg,,,,,,,,,,,,,,,
194,11,Memory,3,,,,,,,00694941121fa.jpg,,,,,,,,,,,,,,,
195,11,Memory,3,,,,,,,00132931230fb.jpg,,,,,,,,,,,,,,,
196,11,Memory,3,,,,,,,sunbdycacjfaujxitbw.jpg,,,,,,,,,,,,,,,
197,11,Memory,3,,,,,,,00316940422fa.jpg,,,,,,,,,,,,,,,
198,11,Memory,3,,,,,,,00146960620fb.jpg,,,,,,,,,,,,,,,
199,11,Memory,3,,,,,,,00822940307fa.jpg,,,,,,,,,,,,,,,
200,11,Presentation,4,00630941031fa_sunadakkdovnuzlycvp.jpg,00794960620fa_sunagtqhhwxjeuxdebe.jpg,00630941031fa.jpg,sunadakkdovnuzlycvp.jpg,00794960620fa.jpg,sunagtqhhwxjeuxdebe.jpg,,,>,Face,,,,,1,,,,,,,x
201,11,Presentation,4,00988960627fa_sunbmaiocftdtvnzgap.jpg,00288940422fa_sunabppokiyglaxpcha.jpg,00988960627fa.jpg,sunbmaiocftdtvnzgap.jpg,00288940422fa.jpg,sunabppokiyglaxpcha.jpg,,,>,Face,,,,,1,,,,,,,x
202,11,Presentation,4,00911960530fa_sunaooaqzputrowwbsw.jpg,00880960530fa_sunakmnfgklupjijsgf.jpg,00911960530fa.jpg,sunaooaqzputrowwbsw.jpg,00880960530fa.jpg,sunakmnfgklupjijsgf.jpg,,,>,Face,,,,,1,,,,,,,x
203,11,Presentation,4,00835940307fa_sunaijsqpvodplbwxkf.jpg,00136931230fb_sunaanptmsknhirrzed.jpg,00835940307fa.jpg,sunaijsqpvodplbwxkf.jpg,00136931230fb.jpg,sunaanptmsknhirrzed.jpg,,,>,Face,,,,,1,,,,,,,o
204,11,Presentation,4,00894960620fa_sunalqmfgeadpqsyzpd.jpg,00209940128fb_sunabaergayifsgacxt.jpg,00894960620fa.jpg,sunalqmfgeadpqsyzpd.jpg,00209940128fb.jpg,sunabaergayifsgacxt.jpg,,,>,Face,,,,,1,,,,,,,x
205,11,Presentation,4,00267940128fb_sunablfqiwfqomjarht.jpg,00783941205fa_sunagjeesomrwjsfqie.jpg,00267940128fb.jpg,sunablfqiwfqomjarht.jpg,00783941205fa.jpg,sunagjeesomrwjsfqie.jpg,,,>,Face,,,,,1,,,,,,,o
206,11,Presentation,4,00925960627fa_sunapqwnqzxlsfvgsjm.jpg,00109931230fa_sunaajuzribjrizdshh.jpg,00925960627fa.jpg,sunapqwnqzxlsfvgsjm.jpg,00109931230fa.jpg,sunaajuzribjrizdshh.jpg,,,>,Face,,,,,1,,,,,,,o
207,11,Presentation,4,00638941031fa_sunadfktsqjthoglcsm.jpg,00631940928fa_sunadbdqzigzwipuipr.jpg,00638941031fa.jpg,sunadfktsqjthoglcsm.jpg,00631940928fa.jpg,sunadbdqzigzwipuipr.jpg,,,>,Face,,,,,1,,,,,,,x
208,11,Presentation,4,00749941201fa_sunaeuvjbmdpknaqqaj.jpg,00902960530fa_sunanaacmmosxrfwmvl.jpg,00749941201fa.jpg,sunaeuvjbmdpknaqqaj.jpg,00902960530fa.jpg,sunanaacmmosxrfwmvl.jpg,,,>,Face,,,,,1,,,,,,,x
209,11,Presentation,4,00191940128fb_sunaawsdjisukbbginm.jpg,00829940307fa_sunahwgbqkqcrwprgvh.jpg,00191940128fb.jpg,sunaawsdjisukbbginm.jpg,00829940307fa.jpg,sunahwgbqkqcrwprgvh.jpg,,,>,Face,,,,,1,,,,,,,o
210,11,Memory,4,,,,,,,00783941205fa.jpg,,,,,,,,,,,,,,,
211,11,Memory,4,,,,,,,sunafgdqbclkwfocdhg.jpg,,,,,,,,,,,,,,,
212,11,Memory,4,,,,,,,sunaijsqpvodplbwxkf.jpg,,,,,,,,,,,,,,,
213,11,Memory,4,,,,,,,sunalkiibhqpxfamlll.jpg,,,,,,,,,,,,,,,
214,11,Memory,4,,,,,,,sunabaergayifsgacxt.jpg,,,,,,,,,,,,,,,
215,11,Memory,4,,,,,,,sunafxokyavhgptyfye.jpg,,,,,,,,,,,,,,,
216,11,Memory,4,,,,,,,00891960530fa.jpg,,,,,,,,,,,,,,,
217,11,Memory,4,,,,,,,sunbmaiocftdtvnzgap.jpg,,,,,,,,,,,,,,,
218,11,Memory,4,,,,,,,00154931230fa.jpg,,,,,,,,,,,,,,,
219,11,Memory,4,,,,,,,00209940128fb.jpg,,,,,,,,,,,,,,,
220,11,Memory,4,,,,,,,00120931230fa.jpg,,,,,,,,,,,,,,,
221,11,Memory,4,,,,,,,sunaajuzribjrizdshh.jpg,,,,,,,,,,,,,,,
222,11,Memory,4,,,,,,,00749941201fa.jpg,,,,,,,,,,,,,,,
223,11,Memory,4,,,,,,,00136931230fb.jpg,,,,,,,,,,,,,,,
224,11,Memory,4,,,,,,,00097931230fa.jpg,,,,,,,,,,,,,,,
225,11,Memory,4,,,,,,,sunagpjzsbltchlwvou.jpg,,,,,,,,,,,,,,,
226,11,Memory,4,,,,,,,sunaakxgygjfqrzpyoz.jpg,,,,,,,,,,,,,,,
227,11,Memory,4,,,,,,,00288940422fa.jpg,,,,,,,,,,,,,,,
228,11,Memory,4,,,,,,,00776941205fa.jpg,,,,,,,,,,,,,,,
229,11,Memory,4,,,,,,,00790941205fa.jpg,,,,,,,,,,,,,,,
230,11,Memory,4,,,,,,,sunaanptmsknhirrzed.jpg,,,,,,,,,,,,,,,
231,11,Memory,4,,,,,,,sunaauueuhhvklldjik.jpg,,,,,,,,,,,,,,,
232,11,Memory,4,,,,,,,00109931230fa.jpg,,,,,,,,,,,,,,,
233,11,Memory,4,,,,,,,00835940307fa.jpg,,,,,,,,,,,,,,,
234,11,Memory,4,,,,,,,sunanwjjyqqwzqrqagd.jpg,,,,,,,,,,,,,,,
235,11,Memory,4,,,,,,,00911960530fa.jpg,,,,,,,,,,,,,,,
236,11,Memory,4,,,,,,,sunaeuvjbmdpknaqqaj.jpg,,,,,,,,,,,,,,,
237,11,Memory,4,,,,,,,sunabppokiyglaxpcha.jpg,,,,,,,,,,,,,,,
238,11,Memory,4,,,,,,,sunajrujcsdxmfbssmc.jpg,,,,,,,,,,,,,,,
239,11,Memory,4,,,,,,,00871940307.jpg,,,,,,,,,,,,,,,
240,11,Memory,4,,,,,,,sunaajayojuslbbnneg.jpg,,,,,,,,,,,,,,,
241,11,Memory,4,,,,,,,00988960627fa.jpg,,,,,,,,,,,,,,,
242,11,Memory,4,,,,,,,sunadakkdovnuzlycvp.jpg,,,,,,,,,,,,,,,
243,11,Memory,4,,,,,,,00908960530fa.jpg,,,,,,,,,,,,,,,
244,11,Memory,4,,,,,,,00302940422fa.jpg,,,,,,,,,,,,,,,
245,11,Memory,4,,,,,,,00630941031fa.jpg,,,,,,,,,,,,,,,
246,11,Memory,4,,,,,,,sunagjeesomrwjsfqie.jpg,,,,,,,,,,,,,,,
247,11,Memory,4,,,,,,,sunabtlfmiwtljmoues.jpg,,,,,,,,,,,,,,,
248,11,Memory,4,,,,,,,sunaooaqzputrowwbsw.jpg,,,,,,,,,,,,,,,
249,11,Memory,4,,,,,,,00761960627fa.jpg,,,,,,,,,,,,,,,
250,11,Presentation,5,01004960627fa_sunbwtlihsuptkrckid.jpg,00145931230fb_sunaatjesvdupctftmn.jpg,01004960627fa.jpg,sunbwtlihsuptkrckid.jpg,00145931230fb.jpg,sunaatjesvdupctftmn.jpg,,,>,Place,,,,,1,,,,,,,x
251,11,Presentation,5,00766960620fa_sunafijbgncijwykrnl.jpg,00857940307fa_sunaiwfobocrruqznsv.jpg,00766960620fa.jpg,sunafijbgncijwykrnl.jpg,00857940307fa.jpg,sunaiwfobocrruqznsv.jpg,,,>,Place,,,,,1,,,,,,,x
252,11,Presentation,5,00262940128fa_sunabizydfotqddlnjp.jpg,00589940928fa_sunacwggadqsfpovdjv.jpg,00262940128fa.jpg,sunabizydfotqddlnjp.jpg,00589940928fa.jpg,sunacwggadqsfpovdjv.jpg,,,>,Place,,,,,1,,,,,,,o
253,11,Presentation,5,00505960627fa_sunabzuqsrgcsonqlkz.jpg,00910960530fa_sunaofikylqtxphvdem.jpg,00505960627fa.jpg,sunabzuqsrgcsonqlkz.jpg,00910960530fa.jpg,sunaofikylqtxphvdem.jpg,,,>,Place,,,,,1,,,,,,,o
254,11,Presentation,5,00809960620fa_sunahbvlpavurqoxdeq.jpg,00898960530fa_sunamkmeblgteyggink.jpg,00809960620fa.jpg,sunahbvlpavurqoxdeq.jpg,00898960530fa.jpg,sunamkmeblgteyggink.jpg,,,>,Place,,,,,1,,,,,,,x
255,11,Presentation,5,00811960530fa_sunahedfrhtcwpneund.jpg,00557940519fa_sunachtuarilwyqnvjx.jpg,00811960530fa.jpg,sunahedfrhtcwpneund.jpg,00557940519fa.jpg,sunachtuarilwyqnvjx.jpg,,,>,Place,,,,,1,,,,,,,o
256,11,Presentation,5,00609940928fa_sunacycdoztxoluxjyk.jpg,00751960620fa_sunaezuszgtxnmsxdbk.jpg,00609940928fa.jpg,sunacycdoztxoluxjyk.jpg,00751960620fa.jpg,sunaezuszgtxnmsxdbk.jpg,,,>,Place,,,,,1,,,,,,,x
257,11,Presentation,5,00763941205fa_sunafhmnhsdurlvddpw.jpg,00124931230fa_sunaalhlvzmjmitybdn.jpg,00763941205fa.jpg,sunafhmnhsdurlvddpw.jpg,00124931230fa.jpg,sunaalhlvzmjmitybdn.jpg,,,>,Place,,,,,1,,,,,,,o
258,11,Presentation,5,00780960530fa_sunagetqixeypsysbpn.jpg,00882960530fa_sunaknlirqjqiwbbeeg.jpg,00780960530fa.jpg,sunagetqixeypsysbpn.jpg,00882960530fa.jpg,sunaknlirqjqiwbbeeg.jpg,,,>,Place,,,,,1,,,,,,,o
259,11,Presentation,5,00921960627fa_sunapqkpqdfvxlbqwyo.jpg,00868960307fa_sunajjxttslobudoqbv.jpg,00921960627fa.jpg,sunapqkpqdfvxlbqwyo.jpg,00868960307fa.jpg,sunajjxttslobudoqbv.jpg,,,>,Place,,,,,1,,,,,,,x
260,11,Memory,5,,,,,,,sunahgtbwgsmtqeodwh.jpg,,,,,,,,,,,,,,,
261,11,Memory,5,,,,,,,00921960627fa.jpg,,,,,,,,,,,,,,,
262,11,Memory,5,,,,,,,sunafijbgncijwykrnl.jpg,,,,,,,,,,,,,,,
263,11,Memory,5,,,,,,,sunaezuszgtxnmsxdbk.jpg,,,,,,,,,,,,,,,
264,11,Memory,5,,,,,,,00505960627fa.jpg,,,,,,,,,,,,,,,
265,11,Memory,5,,,,,,,00810941205fa.jpg,,,,,,,,,,,,,,,
266,11,Memory,5,,,,,,,sunabyfxcxhdebvdyfd.jpg,,,,,,,,,,,,,,,
267,11,Memory,5,,,,,,,01010960627fa.jpg,,,,,,,,,,,,,,,
268,11,Memory,5,,,,,,,00063931230fa.jpg,,,,,,,,,,,,,,,
269,11,Memory,5,,,,,,,sunadoxcchtmsxewsau.jpg,,,,,,,,,,,,,,,
270,11,Memory,5,,,,,,,00482940519fa.jpg,,,,,,,,,,,,,,,
271,11,Memory,5,,,,,,,sunagetqixeypsysbpn.jpg,,,,,,,,,,,,,,,
272,11,Memory,5,,,,,,,00868960307fa.jpg,,,,,,,,,,,,,,,
273,11,Memory,5,,,,,,,sunabizydfotqddlnjp.jpg,,,,,,,,,,,,,,,
274,11,Memory,5,,,,,,,00983960627fa.jpg,,,,,,,,,,,,,,,
275,11,Memory,5,,,,,,,sunabzuqsrgcsonqlkz.jpg,,,,,,,,,,,,,,,
276,11,Memory,5,,,,,,,00675941121fa.jpg,,,,,,,,,,,,,,,
277,11,Memory,5,,,,,,,sunahctntqrunhdxhtb.jpg,,,,,,,,,,,,,,,
278,11,Memory,5,,,,,,,sunacwggadqsfpovdjv.jpg,,,,,,,,,,,,,,,
279,11,Memory,5,,,,,,,sunachtuarilwyqnvjx.jpg,,,,,,,,,,,,,,,
280,11,Memory,5,,,,,,,00751960620fa.jpg,,,,,,,,,,,,,,,
281,11,Memory,5,,,,,,,00825940307fa.jpg,,,,,,,,,,,,,,,
282,11,Memory,5,,,,,,,00557940519fa.jpg,,,,,,,,,,,,,,,
283,11,Memory,5,,,,,,,sunabeyhmxodahoieyk.jpg,,,,,,,,,,,,,,,
284,11,Memory,5,,,,,,,00780960530fa.jpg,,,,,,,,,,,,,,,
285,11,Memory,5,,,,,,,00812941205fa.jpg,,,,,,,,,,,,,,,
286,11,Memory,5,,,,,,,00124931230fa.jpg,,,,,,,,,,,,,,,
287,11,Memory,5,,,,,,,sunajjxttslobudoqbv.jpg,,,,,,,,,,,,,,,
288,11,Memory,5,,,,,,,sunaaelyvurpntclgau.jpg,,,,,,,,,,,,,,,
289,11,Memory,5,,,,,,,sunagcthdfirrcawoic.jpg,,,,,,,,,,,,,,,
290,11,Memory,5,,,,,,,00262940128fa.jpg,,,,,,,,,,,,,,,
291,11,Memory,5,,,,,,,00245940128fa.jpg,,,,,,,,,,,,,,,
292,11,Memory,5,,,,,,,sunbfyvfqiimvdaxlqn.jpg,,,,,,,,,,,,,,,
293,11,Memory,5,,,,,,,sunapqkpqdfvxlbqwyo.jpg,,,,,,,,,,,,,,,
294,11,Memory,5,,,,,,,suncnkvbhypnivcohyx.jpg,,,,,,,,,,,,,,,
295,11,Memory,5,,,,,,,00778941205fa.jpg,,,,,,,,,,,,,,,
296,11,Memory,5,,,,,,,sunaalhlvzmjmitybdn.jpg,,,,,,,,,,,,,,,
297,11,Memory,5,,,,,,,00589940928fa.jpg,,,,,,,,,,,,,,,
298,11,Memory,5,,,,,,,00766960620fa.jpg,,,,,,,,,,,,,,,
299,11,Memory,5,,,,,,,sunahrltmuwbiehihpe.jpg,,,,,,,,,,,,,,,
300,11,Presentation,6,00990960627fa_sunbpflsdaxnddnwcqi.jpg,00885960530fa_sunakwlvxjpddialozd.jpg,00990960627fa.jpg,sunbpflsdaxnddnwcqi.jpg,00885960530fa.jpg,sunakwlvxjpddialozd.jpg,,,<,Face,,,,,1,,,,,,,x
301,11,Presentation,6,00719960620fa_sunadzuvtmtmgupotmf.jpg,00982960627fa_sunbesrwkdsffeogeqq.jpg,00719960620fa.jpg,sunadzuvtmtmgupotmf.jpg,00982960627fa.jpg,sunbesrwkdsffeogeqq.jpg,,,<,Face,,,,,1,,,,,,,x
302,11,Presentation,6,00754941201fa_sunaffgsyyvoqdlkmnk.jpg,00860940307fa_sunaizeyhvjzknwjudw.jpg,00754941201fa.jpg,sunaffgsyyvoqdlkmnk.jpg,00860940307fa.jpg,sunaizeyhvjzknwjudw.jpg,,,<,Face,,,,,1,,,,,,,x
303,11,Presentation,6,00095931230fa_sunaahzooisqkwlxwoz.jpg,00827940307fa_sunahtfxgsrmkiulnwk.jpg,00095931230fa.jpg,sunaahzooisqkwlxwoz.jpg,00827940307fa.jpg,sunahtfxgsrmkiulnwk.jpg,,,<,Face,,,,,1,,,,,,,o
304,11,Presentation,6,01003960627fb_sunbwdrdvsweerwsdrj.jpg,00620940928fa_sunacypmnujalygkunp.jpg,01003960627fb.jpg,sunbwdrdvsweerwsdrj.jpg,00620940928fa.jpg,sunacypmnujalygkunp.jpg,,,<,Face,,,,,1,,,,,,,x
305,11,Presentation,6,00773960620fa_sunafvsxtzaizojicxx.jpg,00598941031fa_sunacxtcahkymosigud.jpg,00773960620fa.jpg,sunafvsxtzaizojicxx.jpg,00598941031fa.jpg,sunacxtcahkymosigud.jpg,,,<,Face,,,,,1,,,,,,,o
306,11,Presentation,6,00953960627fa_sunatstrpjxhvtbaczf.jpg,00090931230fa_sunaahedjlmtqekgyvj.jpg,00953960627fa.jpg,sunatstrpjxhvtbaczf.jpg,00090931230fa.jpg,sunaahedjlmtqekgyvj.jpg,,,<,Face,,,,,1,,,,,,,o
307,11,Presentation,6,00308940422fb_sunabwfvcqqidycwypa.jpg,00089931230fa_sunaagcpoejbuzyvddd.jpg,00308940422fb.jpg,sunabwfvcqqidycwypa.jpg,00089931230fa.jpg,sunaagcpoejbuzyvddd.jpg,,,<,Face,,,,,1,,,,,,,o
308,11,Presentation,6,00070940307fa_sunaaeplwsfslcbtojr.jpg,00728941205fa_sunaejnvnpltdmhbcsi.jpg,00070940307fa.jpg,sunaaeplwsfslcbtojr.jpg,00728941205fa.jpg,sunaejnvnpltdmhbcsi.jpg,,,<,Face,,,,,1,,,,,,,o
309,11,Presentation,6,00959960627fa_sunavxokzybtomhbmvm.jpg,00903960620fa_sunanainkqdvktzoxyl.jpg,00959960627fa.jpg,sunavxokzybtomhbmvm.jpg,00903960620fa.jpg,sunanainkqdvktzoxyl.jpg,,,<,Face,,,,,1,,,,,,,x
310,11,Memory,6,,,,,,,00571940928fa.jpg,,,,,,,,,,,,,,,
311,11,Memory,6,,,,,,,01003960627fb.jpg,,,,,,,,,,,,,,,
312,11,Memory,6,,,,,,,sunayaepykrqvenaqqy.jpg,,,,,,,,,,,,,,,
313,11,Memory,6,,,,,,,sunadpnqovzckyikrjo.jpg,,,,,,,,,,,,,,,
314,11,Memory,6,,,,,,,00123931230fb.jpg,,,,,,,,,,,,,,,
315,11,Memory,6,,,,,,,sunaampvucecsfbdafn.jpg,,,,,,,,,,,,,,,
316,11,Memory,6,,,,,,,00483940519fa.jpg,,,,,,,,,,,,,,,
317,11,Memory,6,,,,,,,sunbpflsdaxnddnwcqi.jpg,,,,,,,,,,,,,,,
318,11,Memory,6,,,,,,,sunacmpqqfbsvlzinzl.jpg,,,,,,,,,,,,,,,
319,11,Memory,6,,,,,,,sunaalcrrdbjgdztbiz.jpg,,,,,,,,,,,,,,,
320,11,Memory,6,,,,,,,sunbwaafjdebjzttuvq.jpg,,,,,,,,,,,,,,,
321,11,Memory,6,,,,,,,01002960627fb.jpg,,,,,,,,,,,,,,,
322,11,Memory,6,,,,,,,00963960627fa.jpg,,,,,,,,,,,,,,,
323,11,Memory,6,,,,,,,00860940307fa.jpg,,,,,,,,,,,,,,,
324,11,Memory,6,,,,,,,00728941205fa.jpg,,,,,,,,,,,,,,,
325,11,Memory,6,,,,,,,00990960627fa.jpg,,,,,,,,,,,,,,,
326,11,Memory,6,,,,,,,sunadzuvtmtmgupotmf.jpg,,,,,,,,,,,,,,,
327,11,Memory,6,,,,,,,sunabtrnbvpppgczjim.jpg,,,,,,,,,,,,,,,
328,11,Memory,6,,,,,,,sunaagcpoejbuzyvddd.jpg,,,,,,,,,,,,,,,
329,11,Memory,6,,,,,,,00305940422fa.jpg,,,,,,,,,,,,,,,
330,11,Memory,6,,,,,,,sunbwdrdvsweerwsdrj.jpg,,,,,,,,,,,,,,,
331,11,Memory,6,,,,,,,sunbasypfgzjtomktmu.jpg,,,,,,,,,,,,,,,
332,11,Memory,6,,,,,,,sunanainkqdvktzoxyl.jpg,,,,,,,,,,,,,,,
333,11,Memory,6,,,,,,,sunaizeyhvjzknwjudw.jpg,,,,,,,,,,,,,,,
334,11,Memory,6,,,,,,,sunatstrpjxhvtbaczf.jpg,,,,,,,,,,,,,,,
335,11,Memory,6,,,,,,,00564940928fa.jpg,,,,,,,,,,,,,,,
336,11,Memory,6,,,,,,,sunacuatpqpqhyjhjqk.jpg,,,,,,,,,,,,,,,
337,11,Memory,6,,,,,,,sunacypmnujalygkunp.jpg,,,,,,,,,,,,,,,
338,11,Memory,6,,,,,,,sunabyvpwkgsjtijdwj.jpg,,,,,,,,,,,,,,,
339,11,Memory,6,,,,,,,00070940307fa.jpg,,,,,,,,,,,,,,,
340,11,Memory,6,,,,,,,00903960620fa.jpg,,,,,,,,,,,,,,,
341,11,Memory,6,,,,,,,00089931230fa.jpg,,,,,,,,,,,,,,,
342,11,Memory,6,,,,,,,sunaaeplwsfslcbtojr.jpg,,,,,,,,,,,,,,,
343,11,Memory,6,,,,,,,00953960627fa.jpg,,,,,,,,,,,,,,,
344,11,Memory,6,,,,,,,00719960620fa.jpg,,,,,,,,,,,,,,,
345,11,Memory,6,,,,,,,00676941121fa.jpg,,,,,,,,,,,,,,,
346,11,Memory,6,,,,,,,00970960627fa.jpg,,,,,,,,,,,,,,,
347,11,Memory,6,,,,,,,sunaejnvnpltdmhbcsi.jpg,,,,,,,,,,,,,,,
348,11,Memory,6,,,,,,,00620940928fa.jpg,,,,,,,,,,,,,,,
349,11,Memory,6,,,,,,,00127931230fa.jpg,,,,,,,,,,,,,,,
350,11,Presentation,7,00989960627fa_sunbondbduabvijnmch.jpg,00142931230fb_sunaapxkpvrhpjplsok.jpg,00989960627fa.jpg,sunbondbduabvijnmch.jpg,00142931230fb.jpg,sunaapxkpvrhpjplsok.jpg,,,>,Face,,,,,0,,,,,,,x
351,11,Presentation,7,00887960530_sunalcrtwiycqobgelp.jpg,00548940519fa_sunacerqowiaeoqkmsq.jpg,00887960530.jpg,sunalcrtwiycqobgelp.jpg,00548940519fa.jpg,sunacerqowiaeoqkmsq.jpg,,,>,Face,,,,,1,,,,,,,x
352,11,Presentation,7,00762941201fa_sunafgzgbisbopcyslr.jpg,00893960530Fa_sunaloffvbvysigxent.jpg,00762941201fa.jpg,sunafgzgbisbopcyslr.jpg,00893960530Fa.jpg,sunaloffvbvysigxent.jpg,,,>,Face,,,,,1,,,,,,,o
353,11,Presentation,7,00858940307fa_sunaixpqndlwhwjtjek.jpg,00786941205fa_sunagmhildamktmqjss.jpg,00858940307fa.jpg,sunaixpqndlwhwjtjek.jpg,00786941205fa.jpg,sunagmhildamktmqjss.jpg,,,>,Face,,,,,0,,,,,,,o
354,11,Presentation,7,00743941201fa_sunaeoghzrjarigmwua.jpg,00198940128fb_sunaazezcsunmhttzxz.jpg,00743941201fa.jpg,sunaeoghzrjarigmwua.jpg,00198940128fb.jpg,sunaazezcsunmhttzxz.jpg,,,>,Face,,,,,1,,,,,,,o
355,11,Presentation,7,00153931230fa_sunaauhozyxzeeqstxi.jpg,00775941205fa_sunafvwfsmqkjrutjta.jpg,00153931230fa.jpg,sunaauhozyxzeeqstxi.jpg,00775941205fa.jpg,sunafvwfsmqkjrutjta.jpg,,,>,Face,,,,,1,,,,,,,x
356,11,Presentation,7,00787960620fa_sunagoufulkpsxrmklt.jpg,00877960530fa_sunajxpkuhbizeveguy.jpg,00787960620fa.jpg,sunagoufulkpsxrmklt.jpg,00877960530fa.jpg,sunajxpkuhbizeveguy.jpg,,,>,Face,,,,,1,,,,,,,x
357,11,Presentation,7,00900960530fa_sunamlotskmmsjeogby.jpg,00313940422fa_sunabwjvmoaddlyxfjr.jpg,00900960530fa.jpg,sunamlotskmmsjeogby.jpg,00313940422fa.jpg,sunabwjvmoaddlyxfjr.jpg,,,>,Face,,,,,0,,,,,,,o
358,11,Presentation,7,00747941201fa_sunaeutbrtswvsozxyk.jpg,00554940519fa_sunacfdkbsrughwqwtt.jpg,00747941201fa.jpg,sunaeutbrtswvsozxyk.jpg,00554940519fa.jpg,sunacfdkbsrughwqwtt.jpg,,,>,Face,,,,,1,,,,,,,x
359,11,Presentation,7,00834940307fa_sunaibnpvhkdpdnzcnz.jpg,00210940128fb_sunabanoxjtqxamkucc.jpg,00834940307fa.jpg,sunaibnpvhkdpdnzcnz.jpg,00210940128fb.jpg,sunabanoxjtqxamkucc.jpg,,,>,Face,,,,,1,,,,,,,x
360,11,Memory,7,,,,,,,sunaeutbrtswvsozxyk.jpg,,,,,,,,,,,,,,,
361,11,Memory,7,,,,,,,sunarpsxqkduedrrzyi.jpg,,,,,,,,,,,,,,,
362,11,Memory,7,,,,,,,sunadnjjzohjhbohlwq.jpg,,,,,,,,,,,,,,,
363,11,Memory,7,,,,,,,00915960620fa.jpg,,,,,,,,,,,,,,,
364,11,Memory,7,,,,,,,sunaddtdkycxbqlpfqa.jpg,,,,,,,,,,,,,,,
365,11,Memory,7,,,,,,,sunapileznnbbmrwoei.jpg,,,,,,,,,,,,,,,
366,11,Memory,7,,,,,,,sunacfdkbsrughwqwtt.jpg,,,,,,,,,,,,,,,
367,11,Memory,7,,,,,,,00540940519fa.jpg,,,,,,,,,,,,,,,
368,11,Memory,7,,,,,,,sunaajqmsaavkmgbsth.jpg,,,,,,,,,,,,,,,
369,11,Memory,7,,,,,,,sunabkngeblodihjvbk.jpg,,,,,,,,,,,,,,,
370,11,Memory,7,,,,,,,00816941205fa.jpg,,,,,,,,,,,,,,,
371,11,Memory,7,,,,,,,sunbvzmgrdvaakxusbu.jpg,,,,,,,,,,,,,,,
372,11,Memory,7,,,,,,,00747941201fa.jpg,,,,,,,,,,,,,,,
373,11,Memory,7,,,,,,,sunaeoghzrjarigmwua.jpg,,,,,,,,,,,,,,,
374,11,Memory,7,,,,,,,sunacdnquypmsshhsbk.jpg,,,,,,,,,,,,,,,
375,11,Memory,7,,,,,,,00266940128fb.jpg,,,,,,,,,,,,,,,
376,11,Memory,7,,,,,,,01000960627fa.jpg,,,,,,,,,,,,,,,
377,11,Memory,7,,,,,,,sunbaoizrfijvhpnnjn.jpg,,,,,,,,,,,,,,,
378,11,Memory,7,,,,,,,sunahmhrncocyhsjpxk.jpg,,,,,,,,,,,,,,,
379,11,Memory,7,,,,,,,00787960620fa.jpg,,,,,,,,,,,,,,,
380,11,Memory,7,,,,,,,00313940422fa.jpg,,,,,,,,,,,,,,,
381,11,Memory,7,,,,,,,00858940307fa.jpg,,,,,,,,,,,,,,,
382,11,Memory,7,,,,,,,00775941205fa.jpg,,,,,,,,,,,,,,,
383,11,Memory,7,,,,,,,sunabanoxjtqxamkucc.jpg,,,,,,,,,,,,,,,
384,11,Memory,7,,,,,,,00548940519fa.jpg,,,,,,,,,,,,,,,
385,11,Memory,7,,,,,,,00210940128fb.jpg,,,,,,,,,,,,,,,
386,11,Memory,7,,,,,,,sunaixpqndlwhwjtjek.jpg,,,,,,,,,,,,,,,
387,11,Memory,7,,,,,,,00762941201fa.jpg,,,,,,,,,,,,,,,
388,11,Memory,7,,,,,,,sunabwjvmoaddlyxfjr.jpg,,,,,,,,,,,,,,,
389,11,Memory,7,,,,,,,sunafvwfsmqkjrutjta.jpg,,,,,,,,,,,,,,,
390,11,Memory,7,,,,,,,00101931230fb.jpg,,,,,,,,,,,,,,,
391,11,Memory,7,,,,,,,sunacerqowiaeoqkmsq.jpg,,,,,,,,,,,,,,,
392,11,Memory,7,,,,,,,00943960627fa.jpg,,,,,,,,,,,,,,,
393,11,Memory,7,,,,,,,00969960627fa.jpg,,,,,,,,,,,,,,,
394,11,Memory,7,,,,,,,00554940519fa.jpg,,,,,,,,,,,,,,,
395,11,Memory,7,,,,,,,00743941201fa.jpg,,,,,,,,,,,,,,,
396,11,Memory,7,,,,,,,00663941121fa.jpg,,,,,,,,,,,,,,,
397,11,Memory,7,,,,,,,sunagoufulkpsxrmklt.jpg,,,,,,,,,,,,,,,
398,11,Memory,7,,,,,,,sunafgzgbisbopcyslr.jpg,,,,,,,,,,,,,,,
399,11,Memory,7,,,,,,,00636941031fa.jpg,,,,,,,,,,,,,,,
