,Subject,Trial Type,Run,Cued Composite,Uncued Composite,Cued Face,Cued Place,Uncued Face,Uncued Place,Memory Image,Category,Cued Side,Cued Category,Attention Reaction Time (s),Familiarity Reaction Time (s),Familiarity Rating,Attention Level,Cue Validity,Post Invalid Cue,Pre Invalid Cue,Attention Button,Rating History,Stimulus Onset,Stimulus End,Attention Probe
0,6,Presentation,0,00532960627fa_sunaccdtpgenvcbcbcf.jpg,00505960627fa_sunabzuqsrgcsonqlkz.jpg,00532960627fa.jpg,sunaccdtpgenvcbcbcf.jpg,00505960627fa.jpg,sunabzuqsrgcsonqlkz.jpg,,,<,Place,,,,,1,,,,,,,o
1,6,Presentation,0,00889960530fa_sunaletopenvvozhpxc.jpg,00968960627fa_sunbagfpovqwbuexqdn.jpg,00889960530fa.jpg,sunaletopenvvozhpxc.jpg,00968960627fa.jpg,sunbagfpovqwbuexqdn.jpg,,,<,Place,,,,,1,,,,,,,x
2,6,Presentation,0,00116931230fa_sunaakqepfoeqomfgxf.jpg,00540940519fa_sunacdnquypmsshhsbk.jpg,00116931230fa.jpg,sunaakqepfoeqomfgxf.jpg,00540940519fa.jpg,sunacdnquypmsshhsbk.jpg,,,<,Place,,,,,1,,,,,,,o
3,6,Presentation,0,00880960530fa_sunakmnfgklupjijsgf.jpg,00972960627fa_sunbbfqwjpdxniyhies.jpg,00880960530fa.jpg,sunakmnfgklupjijsgf.jpg,00972960627fa.jpg,sunbbfqwjpdxniyhies.jpg,,,<,Place,,,,,0,,,,,,,x
4,6,Presentation,0,00751960620fa_sunaezuszgtxnmsxdbk.jpg,00977960627fa_sunbbxkanhzjgbwyxqs.jpg,00751960620fa.jpg,sunaezuszgtxnmsxdbk.jpg,00977960627fa.jpg,sunbbxkanhzjgbwyxqs.jpg,,,<,Place,,,,,1,,,,,,,x
5,6,Presentation,0,00675941121fa_sunadoxcchtmsxewsau.jpg,00772941201fa_sunafpfpiiujzoesnqg.jpg,00675941121fa.jpg,sunadoxcchtmsxewsau.jpg,00772941201fa.jpg,sunafpfpiiujzoesnqg.jpg,,,<,Place,,,,,1,,,,,,,x
6,6,Presentation,0,00296940422fa_sunabrwnslxalcohfre.jpg,00239940128fa_sunabctlikybqabezjv.jpg,00296940422fa.jpg,sunabrwnslxalcohfre.jpg,00239940128fa.jpg,sunabctlikybqabezjv.jpg,,,<,Place,,,,,1,,,,,,,o
7,6,Presentation,0,00874940307fa_sunajtrfunvzdfticna.jpg,00878960530fa_sunakgbnzxmfohgehnu.jpg,00874940307fa.jpg,sunajtrfunvzdfticna.jpg,00878960530fa.jpg,sunakgbnzxmfohgehnu.jpg,,,<,Place,,,,,1,,,,,,,o
8,6,Presentation,0,00146960620fb_sunaatpeezlljqaxlhj.jpg,00984960627fa_sunbfzchmomnvzhbxdg.jpg,00146960620fb.jpg,sunaatpeezlljqaxlhj.jpg,00984960627fa.jpg,sunbfzchmomnvzhbxdg.jpg,,,<,Place,,,,,1,,,,,,,x
9,6,Presentation,0,00973960627fa_sunbbgtoeuzierkkajt.jpg,00676941121fa_sunadpnqovzckyikrjo.jpg,00973960627fa.jpg,sunbbgtoeuzierkkajt.jpg,00676941121fa.jpg,sunadpnqovzckyikrjo.jpg,,,<,Place,,,,,1,,,,,,,x
10,6,Memory,0,,,,,,,00751960620fa.jpg,,,,,,,,,,,,,,,
11,6,Memory,0,,,,,,,sunadikxpvqeabxrvvc.jpg,,,,,,,,,,,,,,,
12,6,Memory,0,,,,,,,01005960627fa.jpg,,,,,,,,,,,,,,,
13,6,Memory,0,,,,,,,sunaalcrrdbjgdztbiz.jpg,,,,,,,,,,,,,,,
14,6,Memory,0,,,,,,,00977960627fa.jpg,,,,,,,,,,,,,,,
15,6,Memory,0,,,,,,,00874940307fa.jpg,,,,,,,,,,,,,,,
16,6,Memory,0,,,,,,,sunadfndyrtqqiasoig.jpg,,,,,,,,,,,,,,,
17,6,Memory,0,,,,,,,00302940422fa.jpg,,,,,,,,,,,,,,,
18,6,Memory,0,,,,,,,sunaccdtpgenvcbcbcf.jpg,,,,,,,,,,,,,,,
19,6,Memory,0,,,,,,,00773941201fa.jpg,,,,,,,,,,,,,,,
20,6,Memory,0,,,,,,,sunbfzchmomnvzhbxdg.jpg,,,,,,,,,,,,,,,
21,6,Memory,0,,,,,,,00648941031fa.jpg,,,,,,,,,,,,,,,
22,6,Memory,0,,,,,,,sunaezuszgtxnmsxdbk.jpg,,,,,,,,,,,,,,,
23,6,Memory,0,,,,,,,00774941201fa.jpg,,,,,,,,,,,,,,,
24,6,Memory,0,,,,,,,00968960627fa.jpg,,,,,,,,,,,,,,,
25,6,Memory,0,,,,,,,00972960627fa.jpg,,,,,,,,,,,,,,,
26,6,Memory,0,,,,,,,00540940519fa.jpg,,,,,,,,,,,,,,,
27,6,Memory,0,,,,,,,sunafvtpfczkzopbgue.jpg,,,,,,,,,,,,,,,
28,6,Memory,0,,,,,,,00292940422fb.jpg,,,,,,,,,,,,,,,
29,6,Memory,0,,,,,,,00984960627fa.jpg,,,,,,,,,,,,,,,
30,6,Memory,0,,,,,,,sunaenwuebvlpdmntju.jpg,,,,,,,,,,,,,,,
31,6,Memory,0,,,,,,,sunajtrfunvzdfticna.jpg,,,,,,,,,,,,,,,
32,6,Memory,0,,,,,,,sunakmnfgklupjijsgf.jpg,,,,,,,,,,,,,,,
33,6,Memory,0,,,,,,,sunbwyuesflwdpqtgoy.jpg,,,,,,,,,,,,,,,
34,6,Memory,0,,,,,,,sunbagfpovqwbuexqdn.jpg,,,,,,,,,,,,,,,
35,6,Memory,0,,,,,,,00123931230fb.jpg,,,,,,,,,,,,,,,
36,6,Memory,0,,,,,,,sunaatpeezlljqaxlhj.jpg,,,,,,,,,,,,,,,
37,6,Memory,0,,,,,,,sunabtlfmiwtljmoues.jpg,,,,,,,,,,,,,,,
38,6,Memory,0,,,,,,,01011960627fa.jpg,,,,,,,,,,,,,,,
39,6,Memory,0,,,,,,,sunbbfqwjpdxniyhies.jpg,,,,,,,,,,,,,,,
40,6,Memory,0,,,,,,,sunacdnquypmsshhsbk.jpg,,,,,,,,,,,,,,,
41,6,Memory,0,,,,,,,00742941201fa.jpg,,,,,,,,,,,,,,,
42,6,Memory,0,,,,,,,00146960620fb.jpg,,,,,,,,,,,,,,,
43,6,Memory,0,,,,,,,00650941031fa.jpg,,,,,,,,,,,,,,,
44,6,Memory,0,,,,,,,00880960530fa.jpg,,,,,,,,,,,,,,,
45,6,Memory,0,,,,,,,sundahdxwmcdluscvot.jpg,,,,,,,,,,,,,,,
46,6,Memory,0,,,,,,,sunabrjdpmoedcdjbpo.jpg,,,,,,,,,,,,,,,
47,6,Memory,0,,,,,,,sunbbxkanhzjgbwyxqs.jpg,,,,,,,,,,,,,,,
48,6,Memory,0,,,,,,,00532960627fa.jpg,,,,,,,,,,,,,,,
49,6,Memory,0,,,,,,,sunafvcflzhlqloapyo.jpg,,,,,,,,,,,,,,,
50,6,Presentation,1,00884960530fa_sunakodkcslgqhqlgwl.jpg,00142931230fb_sunaapxkpvrhpjplsok.jpg,00884960530fa.jpg,sunakodkcslgqhqlgwl.jpg,00142931230fb.jpg,sunaapxkpvrhpjplsok.jpg,,,>,Face,,,,,1,,,,,,,o
51,6,Presentation,1,00979960627fa_sunbdycacjfaujxitbw.jpg,00130931230fa_sunaamvxnvouicstkjb.jpg,00979960627fa.jpg,sunbdycacjfaujxitbw.jpg,00130931230fa.jpg,sunaamvxnvouicstkjb.jpg,,,>,Face,,,,,1,,,,,,,x
52,6,Presentation,1,00316940422fa_sunabxmguapjekttvwm.jpg,00836940307fa_sunainqelldeebvxtcz.jpg,00316940422fa.jpg,sunabxmguapjekttvwm.jpg,00836940307fa.jpg,sunainqelldeebvxtcz.jpg,,,>,Face,,,,,1,,,,,,,x
53,6,Presentation,1,00119931230fb_sunaakvmbftkrgqhjun.jpg,00963960627fa_sunayaepykrqvenaqqy.jpg,00119931230fb.jpg,sunaakvmbftkrgqhjun.jpg,00963960627fa.jpg,sunayaepykrqvenaqqy.jpg,,,>,Face,,,,,1,,,,,,,x
54,6,Presentation,1,00862940307fa_sunaizgnnplsvajzhkc.jpg,00262940128fa_sunabizydfotqddlnjp.jpg,00862940307fa.jpg,sunaizgnnplsvajzhkc.jpg,00262940128fa.jpg,sunabizydfotqddlnjp.jpg,,,>,Face,,,,,1,,,,,,,o
55,6,Presentation,1,00214940128fa_sunabbafjowbzcvbucc.jpg,00719960620fa_sunadzuvtmtmgupotmf.jpg,00214940128fa.jpg,sunabbafjowbzcvbucc.jpg,00719960620fa.jpg,sunadzuvtmtmgupotmf.jpg,,,>,Face,,,,,1,,,,,,,x
56,6,Presentation,1,00235940128fb_sunabclssnoeuigtawp.jpg,00198940128fb_sunaazezcsunmhttzxz.jpg,00235940128fb.jpg,sunabclssnoeuigtawp.jpg,00198940128fb.jpg,sunaazezcsunmhttzxz.jpg,,,>,Face,,,,,1,,,,,,,o
57,6,Presentation,1,00574940928fa_sunacvbrcejzwmcgnoq.jpg,00966960627fa_sunaygrtwrwfezqjizr.jpg,00574940928fa.jpg,sunacvbrcejzwmcgnoq.jpg,00966960627fa.jpg,sunaygrtwrwfezqjizr.jpg,,,>,Face,,,,,1,,,,,,,o
58,6,Presentation,1,00483940519fa_sunabyvpwkgsjtijdwj.jpg,00942960627fa_sunarfdklgdnjgeqfjg.jpg,00483940519fa.jpg,sunabyvpwkgsjtijdwj.jpg,00942960627fa.jpg,sunarfdklgdnjgeqfjg.jpg,,,>,Face,,,,,1,,,,,,,o
59,6,Presentation,1,00835940307fa_sunaijsqpvodplbwxkf.jpg,00796941205fa_sunaguchqqnrtodtezq.jpg,00835940307fa.jpg,sunaijsqpvodplbwxkf.jpg,00796941205fa.jpg,sunaguchqqnrtodtezq.jpg,,,>,Face,,,,,1,,,,,,,x
60,6,Memory,1,,,,,,,00770941201fa.jpg,,,,,,,,,,,,,,,
61,6,Memory,1,,,,,,,sunaflojskatpeqyzqp.jpg,,,,,,,,,,,,,,,
62,6,Memory,1,,,,,,,sunaajayojuslbbnneg.jpg,,,,,,,,,,,,,,,
63,6,Memory,1,,,,,,,00836940307fa.jpg,,,,,,,,,,,,,,,
64,6,Memory,1,,,,,,,00574940928fa.jpg,,,,,,,,,,,,,,,
65,6,Memory,1,,,,,,,00097931230fa.jpg,,,,,,,,,,,,,,,
66,6,Memory,1,,,,,,,sunaijsqpvodplbwxkf.jpg,,,,,,,,,,,,,,,
67,6,Memory,1,,,,,,,sunagvjurcwdbixvnyi.jpg,,,,,,,,,,,,,,,
68,6,Memory,1,,,,,,,00130931230fa.jpg,,,,,,,,,,,,,,,
69,6,Memory,1,,,,,,,00877960530fa.jpg,,,,,,,,,,,,,,,
70,6,Memory,1,,,,,,,00862940307fa.jpg,,,,,,,,,,,,,,,
71,6,Memory,1,,,,,,,sunaizgnnplsvajzhkc.jpg,,,,,,,,,,,,,,,
72,6,Memory,1,,,,,,,sunacvbrcejzwmcgnoq.jpg,,,,,,,,,,,,,,,
73,6,Memory,1,,,,,,,sunaalhlvzmjmitybdn.jpg,,,,,,,,,,,,,,,
74,6,Memory,1,,,,,,,00198940128fb.jpg,,,,,,,,,,,,,,,
75,6,Memory,1,,,,,,,sunaatpkocdkocwxpkb.jpg,,,,,,,,,,,,,,,
76,6,Memory,1,,,,,,,sunaamvxnvouicstkjb.jpg,,,,,,,,,,,,,,,
77,6,Memory,1,,,,,,,sunafhmnhsdurlvddpw.jpg,,,,,,,,,,,,,,,
78,6,Memory,1,,,,,,,00979960627fa.jpg,,,,,,,,,,,,,,,
79,6,Memory,1,,,,,,,sunaazezcsunmhttzxz.jpg,,,,,,,,,,,,,,,
80,6,Memory,1,,,,,,,00784941205fb.jpg,,,,,,,,,,,,,,,
81,6,Memory,1,,,,,,,sunainqelldeebvxtcz.jpg,,,,,,,,,,,,,,,
82,6,Memory,1,,,,,,,00800941205fb.jpg,,,,,,,,,,,,,,,
83,6,Memory,1,,,,,,,sunbdycacjfaujxitbw.jpg,,,,,,,,,,,,,,,
84,6,Memory,1,,,,,,,sunafbwnojpqeyzssoe.jpg,,,,,,,,,,,,,,,
85,6,Memory,1,,,,,,,00138931230fa.jpg,,,,,,,,,,,,,,,
86,6,Memory,1,,,,,,,00124931230fa.jpg,,,,,,,,,,,,,,,
87,6,Memory,1,,,,,,,00763941205fa.jpg,,,,,,,,,,,,,,,
88,6,Memory,1,,,,,,,sunayaepykrqvenaqqy.jpg,,,,,,,,,,,,,,,
89,6,Memory,1,,,,,,,00752960620fa.jpg,,,,,,,,,,,,,,,
90,6,Memory,1,,,,,,,00142931230fb.jpg,,,,,,,,,,,,,,,
91,6,Memory,1,,,,,,,sunaapfaivxqoynnwwp.jpg,,,,,,,,,,,,,,,
92,6,Memory,1,,,,,,,sunagjzcrjvmxzqzljx.jpg,,,,,,,,,,,,,,,
93,6,Memory,1,,,,,,,sunabbafjowbzcvbucc.jpg,,,,,,,,,,,,,,,
94,6,Memory,1,,,,,,,sunajxpkuhbizeveguy.jpg,,,,,,,,,,,,,,,
95,6,Memory,1,,,,,,,00835940307fa.jpg,,,,,,,,,,,,,,,
96,6,Memory,1,,,,,,,00963960627fa.jpg,,,,,,,,,,,,,,,
97,6,Memory,1,,,,,,,00214940128fa.jpg,,,,,,,,,,,,,,,
98,6,Memory,1,,,,,,,sunaapxkpvrhpjplsok.jpg,,,,,,,,,,,,,,,
99,6,Memory,1,,,,,,,00147931230fb.jpg,,,,,,,,,,,,,,,
100,6,Presentation,2,00144931230fb_sunaathajvxrgptwhoj.jpg,00635941031fa_sunaddsaeicthrfbkhe.jpg,00144931230fb.jpg,sunaathajvxrgptwhoj.jpg,00635941031fa.jpg,sunaddsaeicthrfbkhe.jpg,,,<,Place,,,,,1,,,,,,,o
101,6,Presentation,2,00970960627fa_sunbasypfgzjtomktmu.jpg,00947960627fa_sunasmmcxdddtmtazwx.jpg,00970960627fa.jpg,sunbasypfgzjtomktmu.jpg,00947960627fa.jpg,sunasmmcxdddtmtazwx.jpg,,,<,Place,,,,,1,,,,,,,o
102,6,Presentation,2,00126931230fb_sunaamdjwemxpmmtypi.jpg,00061931230fb_sunaaekxzjzrfgtkwjf.jpg,00126931230fb.jpg,sunaamdjwemxpmmtypi.jpg,00061931230fb.jpg,sunaaekxzjzrfgtkwjf.jpg,,,<,Place,,,,,1,,,,,,,o
103,6,Presentation,2,00762941201fa_sunafgzgbisbopcyslr.jpg,00997960627fa_sunbtpilbhhbmhmeuzq.jpg,00762941201fa.jpg,sunafgzgbisbopcyslr.jpg,00997960627fa.jpg,sunbtpilbhhbmhmeuzq.jpg,,,<,Place,,,,,1,,,,,,,o
104,6,Presentation,2,00925960627fa_sunapqwnqzxlsfvgsjm.jpg,00870940307fa_sunajrgtewnualfcerj.jpg,00925960627fa.jpg,sunapqwnqzxlsfvgsjm.jpg,00870940307fa.jpg,sunajrgtewnualfcerj.jpg,,,<,Place,,,,,1,,,,,,,o
105,6,Presentation,2,01003960627fb_sunbwdrdvsweerwsdrj.jpg,00922960627fa_sunapqkyghktgtosuuk.jpg,01003960627fb.jpg,sunbwdrdvsweerwsdrj.jpg,00922960627fa.jpg,sunapqkyghktgtosuuk.jpg,,,<,Place,,,,,1,,,,,,,x
106,6,Presentation,2,00571940928fa_sunacuatpqpqhyjhjqk.jpg,00778941205fa_sunagcthdfirrcawoic.jpg,00571940928fa.jpg,sunacuatpqpqhyjhjqk.jpg,00778941205fa.jpg,sunagcthdfirrcawoic.jpg,,,<,Place,,,,,1,,,,,,,o
107,6,Presentation,2,00208940128fa_sunaazzyhbvqjpmazjq.jpg,00903960620fa_sunanainkqdvktzoxyl.jpg,00208940128fa.jpg,sunaazzyhbvqjpmazjq.jpg,00903960620fa.jpg,sunanainkqdvktzoxyl.jpg,,,<,Place,,,,,1,,,,,,,o
108,6,Presentation,2,00071941031fa_sunaaexqbtdswxrqjvz.jpg,00761960627fa_sunafgdqbclkwfocdhg.jpg,00071941031fa.jpg,sunaaexqbtdswxrqjvz.jpg,00761960627fa.jpg,sunafgdqbclkwfocdhg.jpg,,,<,Place,,,,,1,,,,,,,o
109,6,Presentation,2,00288940422fa_sunabppokiyglaxpcha.jpg,00803941205fa_sunagvxkjokqimstxpe.jpg,00288940422fa.jpg,sunabppokiyglaxpcha.jpg,00803941205fa.jpg,sunagvxkjokqimstxpe.jpg,,,<,Place,,,,,1,,,,,,,x
110,6,Memory,2,,,,,,,sunaakxjfbrrequcjmx.jpg,,,,,,,,,,,,,,,
111,6,Memory,2,,,,,,,sunagcthdfirrcawoic.jpg,,,,,,,,,,,,,,,
112,6,Memory,2,,,,,,,sunajoveqhiprwqgoco.jpg,,,,,,,,,,,,,,,
113,6,Memory,2,,,,,,,00955960627fb.jpg,,,,,,,,,,,,,,,
114,6,Memory,2,,,,,,,00922960627fa.jpg,,,,,,,,,,,,,,,
115,6,Memory,2,,,,,,,sunamczizlzavhzhpay.jpg,,,,,,,,,,,,,,,
116,6,Memory,2,,,,,,,sunaeomlfaabhpswasy.jpg,,,,,,,,,,,,,,,
117,6,Memory,2,,,,,,,00947960627fa.jpg,,,,,,,,,,,,,,,
118,6,Memory,2,,,,,,,sunbaejotfklekvpxcz.jpg,,,,,,,,,,,,,,,
119,6,Memory,2,,,,,,,00208940128fa.jpg,,,,,,,,,,,,,,,
120,6,Memory,2,,,,,,,sunagrmyoovzukhxmlo.jpg,,,,,,,,,,,,,,,
121,6,Memory,2,,,,,,,sunaakmxzhuceuiryah.jpg,,,,,,,,,,,,,,,
122,6,Memory,2,,,,,,,sunapqwnqzxlsfvgsjm.jpg,,,,,,,,,,,,,,,
123,6,Memory,2,,,,,,,00967960627fa.jpg,,,,,,,,,,,,,,,
124,6,Memory,2,,,,,,,sunasmmcxdddtmtazwx.jpg,,,,,,,,,,,,,,,
125,6,Memory,2,,,,,,,00791941205fa.jpg,,,,,,,,,,,,,,,
126,6,Memory,2,,,,,,,00870940307fa.jpg,,,,,,,,,,,,,,,
127,6,Memory,2,,,,,,,sunaazzyhbvqjpmazjq.jpg,,,,,,,,,,,,,,,
128,6,Memory,2,,,,,,,sunacuatpqpqhyjhjqk.jpg,,,,,,,,,,,,,,,
129,6,Memory,2,,,,,,,00895960530fa.jpg,,,,,,,,,,,,,,,
130,6,Memory,2,,,,,,,00061931230fb.jpg,,,,,,,,,,,,,,,
131,6,Memory,2,,,,,,,00288940422fa.jpg,,,,,,,,,,,,,,,
132,6,Memory,2,,,,,,,00571940928fa.jpg,,,,,,,,,,,,,,,
133,6,Memory,2,,,,,,,00869940307fa.jpg,,,,,,,,,,,,,,,
134,6,Memory,2,,,,,,,00576941031fa.jpg,,,,,,,,,,,,,,,
135,6,Memory,2,,,,,,,00115931230fa.jpg,,,,,,,,,,,,,,,
136,6,Memory,2,,,,,,,sunapqkyghktgtosuuk.jpg,,,,,,,,,,,,,,,
137,6,Memory,2,,,,,,,sunajrgtewnualfcerj.jpg,,,,,,,,,,,,,,,
138,6,Memory,2,,,,,,,00071941031fa.jpg,,,,,,,,,,,,,,,
139,6,Memory,2,,,,,,,00122931230fa.jpg,,,,,,,,,,,,,,,
140,6,Memory,2,,,,,,,00744941201fa.jpg,,,,,,,,,,,,,,,
141,6,Memory,2,,,,,,,00559940519fa.jpg,,,,,,,,,,,,,,,
142,6,Memory,2,,,,,,,00925960627fa.jpg,,,,,,,,,,,,,,,
143,6,Memory,2,,,,,,,sunacvjlsylseoghjup.jpg,,,,,,,,,,,,,,,
144,6,Memory,2,,,,,,,sunauburywlkjszngcq.jpg,,,,,,,,,,,,,,,
145,6,Memory,2,,,,,,,00778941205fa.jpg,,,,,,,,,,,,,,,
146,6,Memory,2,,,,,,,sunacjkmnpawfzbyvae.jpg,,,,,,,,,,,,,,,
147,6,Memory,2,,,,,,,sunaaexqbtdswxrqjvz.jpg,,,,,,,,,,,,,,,
148,6,Memory,2,,,,,,,sunabppokiyglaxpcha.jpg,,,,,,,,,,,,,,,
149,6,Memory,2,,,,,,,sunaaekxzjzrfgtkwjf.jpg,,,,,,,,,,,,,,,
150,6,Presentation,3,00854940307fa_sunaiwduelojtwaqeyh.jpg,00993960627fa_sunbprywzqxjcezkbch.jpg,00854940307fa.jpg,sunaiwduelojtwaqeyh.jpg,00993960627fa.jpg,sunbprywzqxjcezkbch.jpg,,,<,Face,,,,,1,,,,,,,o
151,6,Presentation,3,00921960627fa_sunapqkpqdfvxlbqwyo.jpg,00276940422fa_sunabmytpyhsgigllxu.jpg,00921960627fa.jpg,sunapqkpqdfvxlbqwyo.jpg,00276940422fa.jpg,sunabmytpyhsgigllxu.jpg,,,<,Face,,,,,1,,,,,,,x
152,6,Presentation,3,01004960627fa_sunbwtlihsuptkrckid.jpg,00799941205fa_sunagutjvdvnhxejerz.jpg,01004960627fa.jpg,sunbwtlihsuptkrckid.jpg,00799941205fa.jpg,sunagutjvdvnhxejerz.jpg,,,<,Face,,,,,0,,,,,,,o
153,6,Presentation,3,00481940519fa_sunabxsuqbleluwczoy.jpg,00077931230fb_sunaafgqutfaishsxyu.jpg,00481940519fa.jpg,sunabxsuqbleluwczoy.jpg,00077931230fb.jpg,sunaafgqutfaishsxyu.jpg,,,<,Face,,,,,1,,,,,,,x
154,6,Presentation,3,00221940128fa_sunabcfpwlpolnutyju.jpg,01002960627fb_sunbwaafjdebjzttuvq.jpg,00221940128fa.jpg,sunabcfpwlpolnutyju.jpg,01002960627fb.jpg,sunbwaafjdebjzttuvq.jpg,,,<,Face,,,,,1,,,,,,,x
155,6,Presentation,3,00789960620fa_sunagpancjmxqfazssf.jpg,00086931230fa_sunaafynehyrzpsoaml.jpg,00789960620fa.jpg,sunagpancjmxqfazssf.jpg,00086931230fa.jpg,sunaafynehyrzpsoaml.jpg,,,<,Face,,,,,1,,,,,,,x
156,6,Presentation,3,00638941031fa_sunadfktsqjthoglcsm.jpg,00218940128fa_sunabbwggenhfbftyvi.jpg,00638941031fa.jpg,sunadfktsqjthoglcsm.jpg,00218940128fa.jpg,sunabbwggenhfbftyvi.jpg,,,<,Face,,,,,1,,,,,,,o
157,6,Presentation,3,00111931230fb_sunaakgekhjklxmvulj.jpg,00082931230fa_sunaafvitpexrpvumsa.jpg,00111931230fb.jpg,sunaakgekhjklxmvulj.jpg,00082931230fa.jpg,sunaafvitpexrpvumsa.jpg,,,<,Face,,,,,1,,,,,,,o
158,6,Presentation,3,00794960620fa_sunagtqhhwxjeuxdebe.jpg,00809960620fa_sunahbvlpavurqoxdeq.jpg,00794960620fa.jpg,sunagtqhhwxjeuxdebe.jpg,00809960620fa.jpg,sunahbvlpavurqoxdeq.jpg,,,<,Face,,,,,1,,,,,,,x
159,6,Presentation,3,00747941201fa_sunaeutbrtswvsozxyk.jpg,00785941205fa_sunaglqunwuycxydmyu.jpg,00747941201fa.jpg,sunaeutbrtswvsozxyk.jpg,00785941205fa.jpg,sunaglqunwuycxydmyu.jpg,,,<,Face,,,,,0,,,,,,,o
160,6,Memory,3,,,,,,,00807941205fa.jpg,,,,,,,,,,,,,,,
161,6,Memory,3,,,,,,,sunapqkpqdfvxlbqwyo.jpg,,,,,,,,,,,,,,,
162,6,Memory,3,,,,,,,sunaffgsyyvoqdlkmnk.jpg,,,,,,,,,,,,,,,
163,6,Memory,3,,,,,,,sunagountlxpzkytsmp.jpg,,,,,,,,,,,,,,,
164,6,Memory,3,,,,,,,00987960627fa.jpg,,,,,,,,,,,,,,,
165,6,Memory,3,,,,,,,sunaajpqmulidejvjsr.jpg,,,,,,,,,,,,,,,
166,6,Memory,3,,,,,,,00811960530fa.jpg,,,,,,,,,,,,,,,
167,6,Memory,3,,,,,,,sunacvzhvcksnwqcqbw.jpg,,,,,,,,,,,,,,,
168,6,Memory,3,,,,,,,00799941205fa.jpg,,,,,,,,,,,,,,,
169,6,Memory,3,,,,,,,sunaakgekhjklxmvulj.jpg,,,,,,,,,,,,,,,
170,6,Memory,3,,,,,,,sunagutjvdvnhxejerz.jpg,,,,,,,,,,,,,,,
171,6,Memory,3,,,,,,,00788941205fa.jpg,,,,,,,,,,,,,,,
172,6,Memory,3,,,,,,,00670941121fa.jpg,,,,,,,,,,,,,,,
173,6,Memory,3,,,,,,,00782941205fa.jpg,,,,,,,,,,,,,,,
174,6,Memory,3,,,,,,,sunagpancjmxqfazssf.jpg,,,,,,,,,,,,,,,
175,6,Memory,3,,,,,,,01002960627fb.jpg,,,,,,,,,,,,,,,
176,6,Memory,3,,,,,,,00638941031fa.jpg,,,,,,,,,,,,,,,
177,6,Memory,3,,,,,,,sunabbwggenhfbftyvi.jpg,,,,,,,,,,,,,,,
178,6,Memory,3,,,,,,,sunahpblecxtmuzkmxb.jpg,,,,,,,,,,,,,,,
179,6,Memory,3,,,,,,,00098931230fa.jpg,,,,,,,,,,,,,,,
180,6,Memory,3,,,,,,,00809960620fa.jpg,,,,,,,,,,,,,,,
181,6,Memory,3,,,,,,,sunahbvlpavurqoxdeq.jpg,,,,,,,,,,,,,,,
182,6,Memory,3,,,,,,,sunbwtlihsuptkrckid.jpg,,,,,,,,,,,,,,,
183,6,Memory,3,,,,,,,sunbwaafjdebjzttuvq.jpg,,,,,,,,,,,,,,,
184,6,Memory,3,,,,,,,sunahedfrhtcwpneund.jpg,,,,,,,,,,,,,,,
185,6,Memory,3,,,,,,,01004960627fa.jpg,,,,,,,,,,,,,,,
186,6,Memory,3,,,,,,,sunagfvluwixdsozaql.jpg,,,,,,,,,,,,,,,
187,6,Memory,3,,,,,,,00754941201fa.jpg,,,,,,,,,,,,,,,
188,6,Memory,3,,,,,,,00082931230fa.jpg,,,,,,,,,,,,,,,
189,6,Memory,3,,,,,,,00921960627fa.jpg,,,,,,,,,,,,,,,
190,6,Memory,3,,,,,,,00218940128fa.jpg,,,,,,,,,,,,,,,
191,6,Memory,3,,,,,,,00111931230fb.jpg,,,,,,,,,,,,,,,
192,6,Memory,3,,,,,,,sunaafvitpexrpvumsa.jpg,,,,,,,,,,,,,,,
193,6,Memory,3,,,,,,,sunadfktsqjthoglcsm.jpg,,,,,,,,,,,,,,,
194,6,Memory,3,,,,,,,00789960620fa.jpg,,,,,,,,,,,,,,,
195,6,Memory,3,,,,,,,00818940307fa.jpg,,,,,,,,,,,,,,,
196,6,Memory,3,,,,,,,00581940928fa.jpg,,,,,,,,,,,,,,,
197,6,Memory,3,,,,,,,sunbloeoiozwjjsiamp.jpg,,,,,,,,,,,,,,,
198,6,Memory,3,,,,,,,sunahawfngukizslzsd.jpg,,,,,,,,,,,,,,,
199,6,Memory,3,,,,,,,sunadochqcucscehsgk.jpg,,,,,,,,,,,,,,,
200,6,Presentation,4,00071940128fa_sunaaexpnawiehinlpy.jpg,00857940307fa_sunaiwfobocrruqznsv.jpg,00071940128fa.jpg,sunaaexpnawiehinlpy.jpg,00857940307fa.jpg,sunaiwfobocrruqznsv.jpg,,,<,Face,,,,,1,,,,,,,o
201,6,Presentation,4,00060931230fa_sunaaehaikpckyjsety.jpg,00819940307fa_sunahqldjibofgsfdgb.jpg,00060931230fa.jpg,sunaaehaikpckyjsety.jpg,00819940307fa.jpg,sunahqldjibofgsfdgb.jpg,,,<,Face,,,,,1,,,,,,,o
202,6,Presentation,4,00776941205fa_sunafxokyavhgptyfye.jpg,00929960627fa_sunaprnrbmgkomdbchr.jpg,00776941205fa.jpg,sunafxokyavhgptyfye.jpg,00929960627fa.jpg,sunaprnrbmgkomdbchr.jpg,,,<,Face,,,,,1,,,,,,,x
203,6,Presentation,4,00848940307fa_sunaivdylrawbmhryfp.jpg,00630940928fa_sunaczwgyukesaajxnx.jpg,00848940307fa.jpg,sunaivdylrawbmhryfp.jpg,00630940928fa.jpg,sunaczwgyukesaajxnx.jpg,,,<,Face,,,,,1,,,,,,,o
204,6,Presentation,4,00193940928fa_sunaaxjpzcnxligjtjq.jpg,00779941205fa_sunagdzlvkqtpnfxfcg.jpg,00193940928fa.jpg,sunaaxjpzcnxligjtjq.jpg,00779941205fa.jpg,sunagdzlvkqtpnfxfcg.jpg,,,<,Face,,,,,1,,,,,,,x
205,6,Presentation,4,00662941121fa_sunadkazmlajmohnwfl.jpg,00163931230fb_sunaavodbcpygkggnfp.jpg,00662941121fa.jpg,sunadkazmlajmohnwfl.jpg,00163931230fb.jpg,sunaavodbcpygkggnfp.jpg,,,<,Face,,,,,1,,,,,,,x
206,6,Presentation,4,00080931230fb_sunaafjszryxyavjzln.jpg,00919960620fa_sunapmfmzadmosuogaz.jpg,00080931230fb.jpg,sunaafjszryxyavjzln.jpg,00919960620fa.jpg,sunapmfmzadmosuogaz.jpg,,,<,Face,,,,,1,,,,,,,x
207,6,Presentation,4,00905960530fa_sunanmoqeyprjjjfxjt.jpg,00209940128fb_sunabaergayifsgacxt.jpg,00905960530fa.jpg,sunanmoqeyprjjjfxjt.jpg,00209940128fb.jpg,sunabaergayifsgacxt.jpg,,,<,Face,,,,,0,,,,,,,x
208,6,Presentation,4,00834940307fa_sunaibnpvhkdpdnzcnz.jpg,00102931230fa_sunaajspcoepticvplv.jpg,00834940307fa.jpg,sunaibnpvhkdpdnzcnz.jpg,00102931230fa.jpg,sunaajspcoepticvplv.jpg,,,<,Face,,,,,1,,,,,,,x
209,6,Presentation,4,01009960627fa_sunbxzweleltykebgan.jpg,00589940928fa_sunacwggadqsfpovdjv.jpg,01009960627fa.jpg,sunbxzweleltykebgan.jpg,00589940928fa.jpg,sunacwggadqsfpovdjv.jpg,,,<,Face,,,,,0,,,,,,,x
210,6,Memory,4,,,,,,,sunahqldjibofgsfdgb.jpg,,,,,,,,,,,,,,,
211,6,Memory,4,,,,,,,sunalcrtwiycqobgelp.jpg,,,,,,,,,,,,,,,
212,6,Memory,4,,,,,,,sunaaehaikpckyjsety.jpg,,,,,,,,,,,,,,,
213,6,Memory,4,,,,,,,sunaemcowdozyphwknd.jpg,,,,,,,,,,,,,,,
214,6,Memory,4,,,,,,,00834940307fa.jpg,,,,,,,,,,,,,,,
215,6,Memory,4,,,,,,,sunaajspcoepticvplv.jpg,,,,,,,,,,,,,,,
216,6,Memory,4,,,,,,,00819940307fa.jpg,,,,,,,,,,,,,,,
217,6,Memory,4,,,,,,,00102931230fa.jpg,,,,,,,,,,,,,,,
218,6,Memory,4,,,,,,,sunasrjlmglmjzbmqxb.jpg,,,,,,,,,,,,,,,
219,6,Memory,4,,,,,,,00662941121fa.jpg,,,,,,,,,,,,,,,
220,6,Memory,4,,,,,,,00193940928fa.jpg,,,,,,,,,,,,,,,
221,6,Memory,4,,,,,,,sunaprnrbmgkomdbchr.jpg,,,,,,,,,,,,,,,
222,6,Memory,4,,,,,,,sunaanlwnpqndclffxt.jpg,,,,,,,,,,,,,,,
223,6,Memory,4,,,,,,,00929960627fa.jpg,,,,,,,,,,,,,,,
224,6,Memory,4,,,,,,,sunabllobxadqcyttej.jpg,,,,,,,,,,,,,,,
225,6,Memory,4,,,,,,,00741941201fa.jpg,,,,,,,,,,,,,,,
226,6,Memory,4,,,,,,,00887960530.jpg,,,,,,,,,,,,,,,
227,6,Memory,4,,,,,,,00630940928fa.jpg,,,,,,,,,,,,,,,
228,6,Memory,4,,,,,,,sunajrujcsdxmfbssmc.jpg,,,,,,,,,,,,,,,
229,6,Memory,4,,,,,,,sunaaxjpzcnxligjtjq.jpg,,,,,,,,,,,,,,,
230,6,Memory,4,,,,,,,sunaahwnmtqsrhocysw.jpg,,,,,,,,,,,,,,,
231,6,Memory,4,,,,,,,00950960627fa.jpg,,,,,,,,,,,,,,,
232,6,Memory,4,,,,,,,00779941205fa.jpg,,,,,,,,,,,,,,,
233,6,Memory,4,,,,,,,sunaczwgyukesaajxnx.jpg,,,,,,,,,,,,,,,
234,6,Memory,4,,,,,,,sunaibnpvhkdpdnzcnz.jpg,,,,,,,,,,,,,,,
235,6,Memory,4,,,,,,,sunadbdqzigzwipuipr.jpg,,,,,,,,,,,,,,,
236,6,Memory,4,,,,,,,sunapileznnbbmrwoei.jpg,,,,,,,,,,,,,,,
237,6,Memory,4,,,,,,,00915960620fa.jpg,,,,,,,,,,,,,,,
238,6,Memory,4,,,,,,,00093931230fa.jpg,,,,,,,,,,,,,,,
239,6,Memory,4,,,,,,,00631940928fa.jpg,,,,,,,,,,,,,,,
240,6,Memory,4,,,,,,,00133931230fa.jpg,,,,,,,,,,,,,,,
241,6,Memory,4,,,,,,,00876960620fa.jpg,,,,,,,,,,,,,,,
242,6,Memory,4,,,,,,,sunagdzlvkqtpnfxfcg.jpg,,,,,,,,,,,,,,,
243,6,Memory,4,,,,,,,00848940307fa.jpg,,,,,,,,,,,,,,,
244,6,Memory,4,,,,,,,00270940422fb.jpg,,,,,,,,,,,,,,,
245,6,Memory,4,,,,,,,00060931230fa.jpg,,,,,,,,,,,,,,,
246,6,Memory,4,,,,,,,sunaivdylrawbmhryfp.jpg,,,,,,,,,,,,,,,
247,6,Memory,4,,,,,,,00871940307.jpg,,,,,,,,,,,,,,,
248,6,Memory,4,,,,,,,sunajwqkfsykceonyig.jpg,,,,,,,,,,,,,,,
249,6,Memory,4,,,,,,,sunadkazmlajmohnwfl.jpg,,,,,,,,,,,,,,,
250,6,Presentation,5,00816941205fa_sunahmhrncocyhsjpxk.jpg,00498960627fa_sunabzjxlmkwnwzimua.jpg,00816941205fa.jpg,sunahmhrncocyhsjpxk.jpg,00498960627fa.jpg,sunabzjxlmkwnwzimua.jpg,,,>,Place,,,,,1,,,,,,,o
251,6,Presentation,5,00911960530fa_sunaooaqzputrowwbsw.jpg,00760960620fa_sunaffstbkappprzxnv.jpg,00911960530fa.jpg,sunaooaqzputrowwbsw.jpg,00760960620fa.jpg,sunaffstbkappprzxnv.jpg,,,>,Place,,,,,1,,,,,,,o
252,6,Presentation,5,00961960627fa_sunawotxrevnqvamsfp.jpg,00076931230fa_sunaafewhewbxmjiurz.jpg,00961960627fa.jpg,sunawotxrevnqvamsfp.jpg,00076931230fa.jpg,sunaafewhewbxmjiurz.jpg,,,>,Place,,,,,1,,,,,,,o
253,6,Presentation,5,00859940307fa_sunaiycurtqsfkvcaso.jpg,00914960620fa_sunaozisvwfbmlkfhzv.jpg,00859940307fa.jpg,sunaiycurtqsfkvcaso.jpg,00914960620fa.jpg,sunaozisvwfbmlkfhzv.jpg,,,>,Place,,,,,0,,,,,,,x
254,6,Presentation,5,00227940128fa_sunabckqabszusgcykj.jpg,00906960530fa_sunantryfbloeaomfta.jpg,00227940128fa.jpg,sunabckqabszusgcykj.jpg,00906960530fa.jpg,sunantryfbloeaomfta.jpg,,,>,Place,,,,,1,,,,,,,x
255,6,Presentation,5,00290940422fa_sunabqowuarvqqcnipn.jpg,00960960627fa_sunawksfbacycuhbrsc.jpg,00290940422fa.jpg,sunabqowuarvqqcnipn.jpg,00960960627fa.jpg,sunawksfbacycuhbrsc.jpg,,,>,Place,,,,,1,,,,,,,o
256,6,Presentation,5,00959960627fa_sunavxokzybtomhbmvm.jpg,00700941121fa_sunadsgmtznewzyasnk.jpg,00959960627fa.jpg,sunavxokzybtomhbmvm.jpg,00700941121fa.jpg,sunadsgmtznewzyasnk.jpg,,,>,Place,,,,,1,,,,,,,o
257,6,Presentation,5,00564941031fa_sunacsaovnjezqwbykf.jpg,01010960627fa_suncnkvbhypnivcohyx.jpg,00564941031fa.jpg,sunacsaovnjezqwbykf.jpg,01010960627fa.jpg,suncnkvbhypnivcohyx.jpg,,,>,Place,,,,,1,,,,,,,x
258,6,Presentation,5,00265940128fb_sunabkmdplkdbvxriff.jpg,00314940422fa_sunabwmcbaxwioksdgw.jpg,00265940128fb.jpg,sunabkmdplkdbvxriff.jpg,00314940422fa.jpg,sunabwmcbaxwioksdgw.jpg,,,>,Place,,,,,1,,,,,,,o
259,6,Presentation,5,00264940128fb_sunabjzyxcjnmztdonj.jpg,00935960627fa_sunaqbmgkgqucajzrkp.jpg,00264940128fb.jpg,sunabjzyxcjnmztdonj.jpg,00935960627fa.jpg,sunaqbmgkgqucajzrkp.jpg,,,>,Place,,,,,1,,,,,,,x
260,6,Memory,5,,,,,,,00507940519fa.jpg,,,,,,,,,,,,,,,
261,6,Memory,5,,,,,,,00859940307fa.jpg,,,,,,,,,,,,,,,
262,6,Memory,5,,,,,,,00783941205fa.jpg,,,,,,,,,,,,,,,
263,6,Memory,5,,,,,,,00933960627fa.jpg,,,,,,,,,,,,,,,
264,6,Memory,5,,,,,,,sunavxokzybtomhbmvm.jpg,,,,,,,,,,,,,,,
265,6,Memory,5,,,,,,,00568940928fa.jpg,,,,,,,,,,,,,,,
266,6,Memory,5,,,,,,,sunabkmdplkdbvxriff.jpg,,,,,,,,,,,,,,,
267,6,Memory,5,,,,,,,sunapwjkcxdaeqehfql.jpg,,,,,,,,,,,,,,,
268,6,Memory,5,,,,,,,sunaozisvwfbmlkfhzv.jpg,,,,,,,,,,,,,,,
269,6,Memory,5,,,,,,,00906960530fa.jpg,,,,,,,,,,,,,,,
270,6,Memory,5,,,,,,,00636941031fa.jpg,,,,,,,,,,,,,,,
271,6,Memory,5,,,,,,,sunagjeesomrwjsfqie.jpg,,,,,,,,,,,,,,,
272,6,Memory,5,,,,,,,sunadsgmtznewzyasnk.jpg,,,,,,,,,,,,,,,
273,6,Memory,5,,,,,,,sunadtlxenqqxsyjvix.jpg,,,,,,,,,,,,,,,
274,6,Memory,5,,,,,,,sunacacflqoyxhsqzhe.jpg,,,,,,,,,,,,,,,
275,6,Memory,5,,,,,,,00700941121fa.jpg,,,,,,,,,,,,,,,
276,6,Memory,5,,,,,,,00227940128fa.jpg,,,,,,,,,,,,,,,
277,6,Memory,5,,,,,,,00265940128fb.jpg,,,,,,,,,,,,,,,
278,6,Memory,5,,,,,,,00076931230fa.jpg,,,,,,,,,,,,,,,
279,6,Memory,5,,,,,,,sunabckqabszusgcykj.jpg,,,,,,,,,,,,,,,
280,6,Memory,5,,,,,,,00914960620fa.jpg,,,,,,,,,,,,,,,
281,6,Memory,5,,,,,,,sunaafewhewbxmjiurz.jpg,,,,,,,,,,,,,,,
282,6,Memory,5,,,,,,,00816941205fa.jpg,,,,,,,,,,,,,,,
283,6,Memory,5,,,,,,,sunaaelyvurpntclgau.jpg,,,,,,,,,,,,,,,
284,6,Memory,5,,,,,,,sunantryfbloeaomfta.jpg,,,,,,,,,,,,,,,
285,6,Memory,5,,,,,,,suncnkvbhypnivcohyx.jpg,,,,,,,,,,,,,,,
286,6,Memory,5,,,,,,,sunahmhrncocyhsjpxk.jpg,,,,,,,,,,,,,,,
287,6,Memory,5,,,,,,,sunafvsxtzaizojicxx.jpg,,,,,,,,,,,,,,,
288,6,Memory,5,,,,,,,01010960627fa.jpg,,,,,,,,,,,,,,,
289,6,Memory,5,,,,,,,sundbixjudsgeuuehrn.jpg,,,,,,,,,,,,,,,
290,6,Memory,5,,,,,,,00939960627fa.jpg,,,,,,,,,,,,,,,
291,6,Memory,5,,,,,,,00705941205fa.jpg,,,,,,,,,,,,,,,
292,6,Memory,5,,,,,,,01207940128fa.jpg,,,,,,,,,,,,,,,
293,6,Memory,5,,,,,,,00063931230fa.jpg,,,,,,,,,,,,,,,
294,6,Memory,5,,,,,,,sunarceibpcyacbmfga.jpg,,,,,,,,,,,,,,,
295,6,Memory,5,,,,,,,sunaddtdkycxbqlpfqa.jpg,,,,,,,,,,,,,,,
296,6,Memory,5,,,,,,,sunacsdhbbsybcyxnel.jpg,,,,,,,,,,,,,,,
297,6,Memory,5,,,,,,,00959960627fa.jpg,,,,,,,,,,,,,,,
298,6,Memory,5,,,,,,,00773960620fa.jpg,,,,,,,,,,,,,,,
299,6,Memory,5,,,,,,,sunaiycurtqsfkvcaso.jpg,,,,,,,,,,,,,,,
300,6,Presentation,6,00825940307fa_sunahrltmuwbiehihpe.jpg,00271940422fa_sunabmbnddafmywtjjj.jpg,00825940307fa.jpg,sunahrltmuwbiehihpe.jpg,00271940422fa.jpg,sunabmbnddafmywtjjj.jpg,,,>,Face,,,,,1,,,,,,,x
301,6,Presentation,6,00598940928fa_sunacxeheuiigkcgquf.jpg,00838940307fa_sunaiozxhxgtfrmoagh.jpg,00598940928fa.jpg,sunacxeheuiigkcgquf.jpg,00838940307fa.jpg,sunaiozxhxgtfrmoagh.jpg,,,>,Face,,,,,1,,,,,,,x
302,6,Presentation,6,00479940519fa_sunabxsbfwjccqxxzxq.jpg,00841940307fa_sunaisiwfgppimtnmxl.jpg,00479940519fa.jpg,sunabxsbfwjccqxxzxq.jpg,00841940307fa.jpg,sunaisiwfgppimtnmxl.jpg,,,>,Face,,,,,1,,,,,,,x
303,6,Presentation,6,00851940307fa_sunaivflshbyfrfzhqb.jpg,00885960530fa_sunakwlvxjpddialozd.jpg,00851940307fa.jpg,sunaivflshbyfrfzhqb.jpg,00885960530fa.jpg,sunakwlvxjpddialozd.jpg,,,>,Face,,,,,1,,,,,,,o
304,6,Presentation,6,00108960530fa_sunaajtnvzzpsjdzres.jpg,00795941205fa_sunagtumacdlmciqamz.jpg,00108960530fa.jpg,sunaajtnvzzpsjdzres.jpg,00795941205fa.jpg,sunagtumacdlmciqamz.jpg,,,>,Face,,,,,1,,,,,,,o
305,6,Presentation,6,00938960627fa_sunaqyylsngywqzwfmx.jpg,00780960530fa_sunagetqixeypsysbpn.jpg,00938960627fa.jpg,sunaqyylsngywqzwfmx.jpg,00780960530fa.jpg,sunagetqixeypsysbpn.jpg,,,>,Face,,,,,1,,,,,,,o
306,6,Presentation,6,00953960627fa_sunatstrpjxhvtbaczf.jpg,00210940128fb_sunabanoxjtqxamkucc.jpg,00953960627fa.jpg,sunatstrpjxhvtbaczf.jpg,00210940128fb.jpg,sunabanoxjtqxamkucc.jpg,,,>,Face,,,,,1,,,,,,,x
307,6,Presentation,6,00937960627fa_sunaqsolmfydodnakub.jpg,00812941205fa_sunahgtbwgsmtqeodwh.jpg,00937960627fa.jpg,sunaqsolmfydodnakub.jpg,00812941205fa.jpg,sunahgtbwgsmtqeodwh.jpg,,,>,Face,,,,,1,,,,,,,o
308,6,Presentation,6,00308940422fb_sunabwfvcqqidycwypa.jpg,00694941121fa_sunadrmfzmstgdjdcod.jpg,00308940422fb.jpg,sunabwfvcqqidycwypa.jpg,00694941121fa.jpg,sunadrmfzmstgdjdcod.jpg,,,>,Face,,,,,1,,,,,,,x
309,6,Presentation,6,00931960627fa_sunaptrqvaooxfvktvw.jpg,00197940128fa_sunaaylzyqlqrsmfwif.jpg,00931960627fa.jpg,sunaptrqvaooxfvktvw.jpg,00197940128fa.jpg,sunaaylzyqlqrsmfwif.jpg,,,>,Face,,,,,1,,,,,,,o
310,6,Memory,6,,,,,,,00936960627fa.jpg,,,,,,,,,,,,,,,
311,6,Memory,6,,,,,,,00851940307fa.jpg,,,,,,,,,,,,,,,
312,6,Memory,6,,,,,,,sunbvzmgrdvaakxusbu.jpg,,,,,,,,,,,,,,,
313,6,Memory,6,,,,,,,00825940307fa.jpg,,,,,,,,,,,,,,,
314,6,Memory,6,,,,,,,sunaaylzyqlqrsmfwif.jpg,,,,,,,,,,,,,,,
315,6,Memory,6,,,,,,,00901960530fa.jpg,,,,,,,,,,,,,,,
316,6,Memory,6,,,,,,,00787960620fa.jpg,,,,,,,,,,,,,,,
317,6,Memory,6,,,,,,,sunabwjvmoaddlyxfjr.jpg,,,,,,,,,,,,,,,
318,6,Memory,6,,,,,,,00313940422fa.jpg,,,,,,,,,,,,,,,
319,6,Memory,6,,,,,,,sunaqyylsngywqzwfmx.jpg,,,,,,,,,,,,,,,
320,6,Memory,6,,,,,,,sunaqsolmfydodnakub.jpg,,,,,,,,,,,,,,,
321,6,Memory,6,,,,,,,sunacerqowiaeoqkmsq.jpg,,,,,,,,,,,,,,,
322,6,Memory,6,,,,,,,00271940422fa.jpg,,,,,,,,,,,,,,,
323,6,Memory,6,,,,,,,sunagtumacdlmciqamz.jpg,,,,,,,,,,,,,,,
324,6,Memory,6,,,,,,,sunabanoxjtqxamkucc.jpg,,,,,,,,,,,,,,,
325,6,Memory,6,,,,,,,sunaivflshbyfrfzhqb.jpg,,,,,,,,,,,,,,,
326,6,Memory,6,,,,,,,00197940128fa.jpg,,,,,,,,,,,,,,,
327,6,Memory,6,,,,,,,sunagpjzsbltchlwvou.jpg,,,,,,,,,,,,,,,
328,6,Memory,6,,,,,,,sunakwlvxjpddialozd.jpg,,,,,,,,,,,,,,,
329,6,Memory,6,,,,,,,00266940128fb.jpg,,,,,,,,,,,,,,,
330,6,Memory,6,,,,,,,sunabmbnddafmywtjjj.jpg,,,,,,,,,,,,,,,
331,6,Memory,6,,,,,,,00937960627fa.jpg,,,,,,,,,,,,,,,
332,6,Memory,6,,,,,,,00938960627fa.jpg,,,,,,,,,,,,,,,
333,6,Memory,6,,,,,,,00885960530fa.jpg,,,,,,,,,,,,,,,
334,6,Memory,6,,,,,,,01000960627fa.jpg,,,,,,,,,,,,,,,
335,6,Memory,6,,,,,,,sunammbnoambmhdxdwd.jpg,,,,,,,,,,,,,,,
336,6,Memory,6,,,,,,,sunagoufulkpsxrmklt.jpg,,,,,,,,,,,,,,,
337,6,Memory,6,,,,,,,sunabwfvcqqidycwypa.jpg,,,,,,,,,,,,,,,
338,6,Memory,6,,,,,,,00548940519fa.jpg,,,,,,,,,,,,,,,
339,6,Memory,6,,,,,,,00790941205fa.jpg,,,,,,,,,,,,,,,
340,6,Memory,6,,,,,,,sunagsiwrmuixqgdimb.jpg,,,,,,,,,,,,,,,
341,6,Memory,6,,,,,,,00210940128fb.jpg,,,,,,,,,,,,,,,
342,6,Memory,6,,,,,,,sunaqgjuuwvdcyiccjt.jpg,,,,,,,,,,,,,,,
343,6,Memory,6,,,,,,,sunaafbmtoniaasysgu.jpg,,,,,,,,,,,,,,,
344,6,Memory,6,,,,,,,sunabkngeblodihjvbk.jpg,,,,,,,,,,,,,,,
345,6,Memory,6,,,,,,,00073931230fa.jpg,,,,,,,,,,,,,,,
346,6,Memory,6,,,,,,,00308940422fb.jpg,,,,,,,,,,,,,,,
347,6,Memory,6,,,,,,,sunahrltmuwbiehihpe.jpg,,,,,,,,,,,,,,,
348,6,Memory,6,,,,,,,00792941205fa.jpg,,,,,,,,,,,,,,,
349,6,Memory,6,,,,,,,00795941205fa.jpg,,,,,,,,,,,,,,,
350,6,Presentation,7,00900960530fa_sunamlotskmmsjeogby.jpg,00990960627fa_sunbpflsdaxnddnwcqi.jpg,00900960530fa.jpg,sunamlotskmmsjeogby.jpg,00990960627fa.jpg,sunbpflsdaxnddnwcqi.jpg,,,>,Place,,,,,1,,,,,,,o
351,6,Presentation,7,00727941205fa_sunaeisnjeetzmkbuad.jpg,00185940422fb_sunaawqdbpihmlbwyyn.jpg,00727941205fa.jpg,sunaeisnjeetzmkbuad.jpg,00185940422fb.jpg,sunaawqdbpihmlbwyyn.jpg,,,>,Place,,,,,1,,,,,,,x
352,6,Presentation,7,00868960307fa_sunajjxttslobudoqbv.jpg,00943960627fa_sunarpsxqkduedrrzyi.jpg,00868960307fa.jpg,sunajjxttslobudoqbv.jpg,00943960627fa.jpg,sunarpsxqkduedrrzyi.jpg,,,>,Place,,,,,1,,,,,,,x
353,6,Presentation,7,00847940307fa_sunaivdjruhkrfywfed.jpg,00242940128fa_sunabcuurugvxwparpk.jpg,00847940307fa.jpg,sunaivdjruhkrfywfed.jpg,00242940128fa.jpg,sunabcuurugvxwparpk.jpg,,,>,Place,,,,,1,,,,,,,x
354,6,Presentation,7,00267940128fb_sunablfqiwfqomjarht.jpg,00092931230fa_sunaaheqzstzxuadglu.jpg,00267940128fb.jpg,sunablfqiwfqomjarht.jpg,00092931230fa.jpg,sunaaheqzstzxuadglu.jpg,,,>,Place,,,,,1,,,,,,,x
355,6,Presentation,7,00294940422fb_sunabrlndkruqokhury.jpg,00725941201fa_sunaefgzwiramypjvtd.jpg,00294940422fb.jpg,sunabrlndkruqokhury.jpg,00725941201fa.jpg,sunaefgzwiramypjvtd.jpg,,,>,Place,,,,,1,,,,,,,o
356,6,Presentation,7,00749941201fa_sunaeuvjbmdpknaqqaj.jpg,00069931230fb_sunaaeowapdkwzqpgqr.jpg,00749941201fa.jpg,sunaeuvjbmdpknaqqaj.jpg,00069931230fb.jpg,sunaaeowapdkwzqpgqr.jpg,,,>,Place,,,,,0,,,,,,,o
357,6,Presentation,7,00095931230fa_sunaahzooisqkwlxwoz.jpg,00109931230fa_sunaajuzribjrizdshh.jpg,00095931230fa.jpg,sunaahzooisqkwlxwoz.jpg,00109931230fa.jpg,sunaajuzribjrizdshh.jpg,,,>,Place,,,,,0,,,,,,,o
358,6,Presentation,7,00260940128fa_sunabgfhvifeijihhjw.jpg,00797960620fa_sunagufzbeteqdjxais.jpg,00260940128fa.jpg,sunabgfhvifeijihhjw.jpg,00797960620fa.jpg,sunagufzbeteqdjxais.jpg,,,>,Place,,,,,1,,,,,,,x
359,6,Presentation,7,00145931230fb_sunaatjesvdupctftmn.jpg,00131931230fb_sunaangbuylfvckqqoo.jpg,00145931230fb.jpg,sunaatjesvdupctftmn.jpg,00131931230fb.jpg,sunaangbuylfvckqqoo.jpg,,,>,Place,,,,,1,,,,,,,x
360,6,Memory,7,,,,,,,00864940307fa.jpg,,,,,,,,,,,,,,,
361,6,Memory,7,,,,,,,sunacycdoztxoluxjyk.jpg,,,,,,,,,,,,,,,
362,6,Memory,7,,,,,,,00749941201fa.jpg,,,,,,,,,,,,,,,
363,6,Memory,7,,,,,,,00797960620fa.jpg,,,,,,,,,,,,,,,
364,6,Memory,7,,,,,,,00294940422fb.jpg,,,,,,,,,,,,,,,
365,6,Memory,7,,,,,,,00095931230fa.jpg,,,,,,,,,,,,,,,
366,6,Memory,7,,,,,,,00944960627fa.jpg,,,,,,,,,,,,,,,
367,6,Memory,7,,,,,,,00725941201fa.jpg,,,,,,,,,,,,,,,
368,6,Memory,7,,,,,,,00913960530fa.jpg,,,,,,,,,,,,,,,
369,6,Memory,7,,,,,,,00996960627fa.jpg,,,,,,,,,,,,,,,
370,6,Memory,7,,,,,,,sunbpflsdaxnddnwcqi.jpg,,,,,,,,,,,,,,,
371,6,Memory,7,,,,,,,sunabcuurugvxwparpk.jpg,,,,,,,,,,,,,,,
372,6,Memory,7,,,,,,,sunaefgzwiramypjvtd.jpg,,,,,,,,,,,,,,,
373,6,Memory,7,,,,,,,sunaatjesvdupctftmn.jpg,,,,,,,,,,,,,,,
374,6,Memory,7,,,,,,,sunabrlndkruqokhury.jpg,,,,,,,,,,,,,,,
375,6,Memory,7,,,,,,,sunajawzbrlrwafowen.jpg,,,,,,,,,,,,,,,
376,6,Memory,7,,,,,,,00777941205fa.jpg,,,,,,,,,,,,,,,
377,6,Memory,7,,,,,,,sunagcinxkccdtrjmlv.jpg,,,,,,,,,,,,,,,
378,6,Memory,7,,,,,,,sunasbbntuiheekqyaq.jpg,,,,,,,,,,,,,,,
379,6,Memory,7,,,,,,,sunaawqdbpihmlbwyyn.jpg,,,,,,,,,,,,,,,
380,6,Memory,7,,,,,,,00609940928fa.jpg,,,,,,,,,,,,,,,
381,6,Memory,7,,,,,,,sunaeuvjbmdpknaqqaj.jpg,,,,,,,,,,,,,,,
382,6,Memory,7,,,,,,,00184940128fa.jpg,,,,,,,,,,,,,,,
383,6,Memory,7,,,,,,,sunbpvgllfdejxcpjqp.jpg,,,,,,,,,,,,,,,
384,6,Memory,7,,,,,,,00185940422fb.jpg,,,,,,,,,,,,,,,
385,6,Memory,7,,,,,,,00145931230fb.jpg,,,,,,,,,,,,,,,
386,6,Memory,7,,,,,,,00900960530fa.jpg,,,,,,,,,,,,,,,
387,6,Memory,7,,,,,,,00242940128fa.jpg,,,,,,,,,,,,,,,
388,6,Memory,7,,,,,,,sunagufzbeteqdjxais.jpg,,,,,,,,,,,,,,,
389,6,Memory,7,,,,,,,00909960530.jpg,,,,,,,,,,,,,,,
390,6,Memory,7,,,,,,,sunaobtizabegtwfwul.jpg,,,,,,,,,,,,,,,
391,6,Memory,7,,,,,,,sunaedtgwjvvziytspa.jpg,,,,,,,,,,,,,,,
392,6,Memory,7,,,,,,,00723941201fa.jpg,,,,,,,,,,,,,,,
393,6,Memory,7,,,,,,,sunaahzooisqkwlxwoz.jpg,,,,,,,,,,,,,,,
394,6,Memory,7,,,,,,,sunaavtbadenwnzeutj.jpg,,,,,,,,,,,,,,,
395,6,Memory,7,,,,,,,sunamlotskmmsjeogby.jpg,,,,,,,,,,,,,,,
396,6,Memory,7,,,,,,,00793941205fa.jpg,,,,,,,,,,,,,,,
397,6,Memory,7,,,,,,,sunagtjwilqjvxohypn.jpg,,,,,,,,,,,,,,,
398,6,Memory,7,,,,,,,sunaooffzffbhcpirmm.jpg,,,,,,,,,,,,,,,
399,6,Memory,7,,,,,,,00990960627fa.jpg,,,,,,,,,,,,,,,
