,Subject,Trial Type,Run,Cued Composite,Uncued Composite,Cued Face,Cued Place,Uncued Face,Uncued Place,Memory Image,Category,Cued Side,Cued Category,Attention Reaction Time (s),Familiarity Reaction Time (s),Familiarity Rating,Attention Level,Cue Validity,Post Invalid Cue,Pre Invalid Cue,Attention Button,Rating History,Stimulus Onset,Stimulus End,Attention Probe
0,14,Presentation,0,00314940422fa_sunabwmcbaxwioksdgw.jpg,00264940128fb_sunabjzyxcjnmztdonj.jpg,00314940422fa.jpg,sunabwmcbaxwioksdgw.jpg,00264940128fb.jpg,sunabjzyxcjnmztdonj.jpg,,,<,Face,,,,,1,,,,,,,o
1,14,Presentation,0,00124931230fa_sunaalhlvzmjmitybdn.jpg,00598940928fa_sunacxeheuiigkcgquf.jpg,00124931230fa.jpg,sunaalhlvzmjmitybdn.jpg,00598940928fa.jpg,sunacxeheuiigkcgquf.jpg,,,>,Place,,,,,1,,,,,,,x
2,14,Presentation,0,00805941205fa_sunagwzdbtlixdhgolm.jpg,00859940307fa_sunaiycurtqsfkvcaso.jpg,00805941205fa.jpg,sunagwzdbtlixdhgolm.jpg,00859940307fa.jpg,sunaiycurtqsfkvcaso.jpg,,,>,Face,,,,,1,,,,,,,o
3,14,Presentation,0,00060931230fa_sunaaehaikpckyjsety.jpg,00306940422fa_sunabueyoajufbkraki.jpg,00060931230fa.jpg,sunaaehaikpckyjsety.jpg,00306940422fa.jpg,sunabueyoajufbkraki.jpg,,,<,Place,,,,,1,,,,,,,o
4,14,Presentation,0,00871940307_sunajrujcsdxmfbssmc.jpg,00132931230fb_sunaanjcbzdvtvblsdy.jpg,00871940307.jpg,sunajrujcsdxmfbssmc.jpg,00132931230fb.jpg,sunaanjcbzdvtvblsdy.jpg,,,<,Place,,,,,1,,,,,,,o
5,14,Presentation,0,00988960627fa_sunbmaiocftdtvnzgap.jpg,00892960530fa_sunalntxqqadigcletd.jpg,00988960627fa.jpg,sunbmaiocftdtvnzgap.jpg,00892960530fa.jpg,sunalntxqqadigcletd.jpg,,,>,Place,,,,,1,,,,,,,x
6,14,Presentation,0,00197940128fa_sunaaylzyqlqrsmfwif.jpg,00481940519fa_sunabxsuqbleluwczoy.jpg,00197940128fa.jpg,sunaaylzyqlqrsmfwif.jpg,00481940519fa.jpg,sunabxsuqbleluwczoy.jpg,,,<,Face,,,,,1,,,,,,,x
7,14,Presentation,0,00987960627fa_sunbloeoiozwjjsiamp.jpg,00557940519fa_sunachtuarilwyqnvjx.jpg,00987960627fa.jpg,sunbloeoiozwjjsiamp.jpg,00557940519fa.jpg,sunachtuarilwyqnvjx.jpg,,,>,Place,,,,,1,,,,,,,x
8,14,Presentation,0,00694941121fa_sunadrmfzmstgdjdcod.jpg,00728941205fa_sunaejnvnpltdmhbcsi.jpg,00694941121fa.jpg,sunadrmfzmstgdjdcod.jpg,00728941205fa.jpg,sunaejnvnpltdmhbcsi.jpg,,,>,Face,,,,,1,,,,,,,o
9,14,Presentation,0,00562941031fa_sunacjnahdmqfnjfwqx.jpg,00576941031fa_sunacvjlsylseoghjup.jpg,00562941031fa.jpg,sunacjnahdmqfnjfwqx.jpg,00576941031fa.jpg,sunacvjlsylseoghjup.jpg,,,<,Face,,,,,1,,,,,,,x
10,14,Memory,0,,,,,,,sunahiphsekjihkafsl.jpg,,,,,,,,,,,,,,,
11,14,Memory,0,,,,,,,sunabwmcbaxwioksdgw.jpg,,,,,,,,,,,,,,,
12,14,Memory,0,,,,,,,01002960627fb.jpg,,,,,,,,,,,,,,,
13,14,Memory,0,,,,,,,sunagfvluwixdsozaql.jpg,,,,,,,,,,,,,,,
14,14,Memory,0,,,,,,,00221940128fa.jpg,,,,,,,,,,,,,,,
15,14,Memory,0,,,,,,,00124931230fa.jpg,,,,,,,,,,,,,,,
16,14,Memory,0,,,,,,,sunadrmfzmstgdjdcod.jpg,,,,,,,,,,,,,,,
17,14,Memory,0,,,,,,,00576941031fa.jpg,,,,,,,,,,,,,,,
18,14,Memory,0,,,,,,,sunacypmnujalygkunp.jpg,,,,,,,,,,,,,,,
19,14,Memory,0,,,,,,,sunabjzyxcjnmztdonj.jpg,,,,,,,,,,,,,,,
20,14,Memory,0,,,,,,,00620940928fa.jpg,,,,,,,,,,,,,,,
21,14,Memory,0,,,,,,,sunacvjlsylseoghjup.jpg,,,,,,,,,,,,,,,
22,14,Memory,0,,,,,,,sunaygrtwrwfezqjizr.jpg,,,,,,,,,,,,,,,
23,14,Memory,0,,,,,,,sunacxeheuiigkcgquf.jpg,,,,,,,,,,,,,,,
24,14,Memory,0,,,,,,,sunbwaafjdebjzttuvq.jpg,,,,,,,,,,,,,,,
25,14,Memory,0,,,,,,,sunabcfpwlpolnutyju.jpg,,,,,,,,,,,,,,,
26,14,Memory,0,,,,,,,00132931230fb.jpg,,,,,,,,,,,,,,,
27,14,Memory,0,,,,,,,sunabwfvcqqidycwypa.jpg,,,,,,,,,,,,,,,
28,14,Memory,0,,,,,,,sunaanjcbzdvtvblsdy.jpg,,,,,,,,,,,,,,,
29,14,Memory,0,,,,,,,00308940422fb.jpg,,,,,,,,,,,,,,,
30,14,Memory,0,,,,,,,00694941121fa.jpg,,,,,,,,,,,,,,,
31,14,Memory,0,,,,,,,00264940128fb.jpg,,,,,,,,,,,,,,,
32,14,Memory,0,,,,,,,00197940128fa.jpg,,,,,,,,,,,,,,,
33,14,Memory,0,,,,,,,00125931230fa.jpg,,,,,,,,,,,,,,,
34,14,Memory,0,,,,,,,00815941205fa.jpg,,,,,,,,,,,,,,,
35,14,Memory,0,,,,,,,sunabasphceswhwwqvv.jpg,,,,,,,,,,,,,,,
36,14,Memory,0,,,,,,,sunacjnahdmqfnjfwqx.jpg,,,,,,,,,,,,,,,
37,14,Memory,0,,,,,,,sunaaylzyqlqrsmfwif.jpg,,,,,,,,,,,,,,,
38,14,Memory,0,,,,,,,00782941205fa.jpg,,,,,,,,,,,,,,,
39,14,Memory,0,,,,,,,sunaalltyvjhbzhkmvg.jpg,,,,,,,,,,,,,,,
40,14,Memory,0,,,,,,,00598940928fa.jpg,,,,,,,,,,,,,,,
41,14,Memory,0,,,,,,,00314940422fa.jpg,,,,,,,,,,,,,,,
42,14,Memory,0,,,,,,,sunaalhlvzmjmitybdn.jpg,,,,,,,,,,,,,,,
43,14,Memory,0,,,,,,,00562941031fa.jpg,,,,,,,,,,,,,,,
44,14,Memory,0,,,,,,,00211940128fa.jpg,,,,,,,,,,,,,,,
45,14,Memory,0,,,,,,,sunacjkmnpawfzbyvae.jpg,,,,,,,,,,,,,,,
46,14,Memory,0,,,,,,,00966960627fa.jpg,,,,,,,,,,,,,,,
47,14,Memory,0,,,,,,,00559940519fa.jpg,,,,,,,,,,,,,,,
48,14,Memory,0,,,,,,,sunaiycurtqsfkvcaso.jpg,,,,,,,,,,,,,,,
49,14,Memory,0,,,,,,,00859940307fa.jpg,,,,,,,,,,,,,,,
50,14,Presentation,1,00747941201fa_sunaeutbrtswvsozxyk.jpg,00131931230fb_sunaangbuylfvckqqoo.jpg,00747941201fa.jpg,sunaeutbrtswvsozxyk.jpg,00131931230fb.jpg,sunaangbuylfvckqqoo.jpg,,,<,Face,,,,,1,,,,,,,x
51,14,Presentation,1,00548940519fa_sunacerqowiaeoqkmsq.jpg,00902960530fa_sunanaacmmosxrfwmvl.jpg,00548940519fa.jpg,sunacerqowiaeoqkmsq.jpg,00902960530fa.jpg,sunanaacmmosxrfwmvl.jpg,,,<,Face,,,,,1,,,,,,,o
52,14,Presentation,1,01004960627fa_sunbwtlihsuptkrckid.jpg,00969960627fa_sunbaoizrfijvhpnnjn.jpg,01004960627fa.jpg,sunbwtlihsuptkrckid.jpg,00969960627fa.jpg,sunbaoizrfijvhpnnjn.jpg,,,<,Place,,,,,1,,,,,,,x
53,14,Presentation,1,00961960627fa_sunawotxrevnqvamsfp.jpg,00787960620fa_sunagoufulkpsxrmklt.jpg,00961960627fa.jpg,sunawotxrevnqvamsfp.jpg,00787960620fa.jpg,sunagoufulkpsxrmklt.jpg,,,>,Face,,,,,1,,,,,,,o
54,14,Presentation,1,00086931230fa_sunaafynehyrzpsoaml.jpg,00191940128fb_sunaawsdjisukbbginm.jpg,00086931230fa.jpg,sunaafynehyrzpsoaml.jpg,00191940128fb.jpg,sunaawsdjisukbbginm.jpg,,,>,Face,,,,,1,,,,,,,x
55,14,Presentation,1,00271940422fa_sunabmbnddafmywtjjj.jpg,00970960627fa_sunbasypfgzjtomktmu.jpg,00271940422fa.jpg,sunabmbnddafmywtjjj.jpg,00970960627fa.jpg,sunbasypfgzjtomktmu.jpg,,,<,Place,,,,,0,,,,,,,x
56,14,Presentation,1,00762941201fa_sunafgzgbisbopcyslr.jpg,00827940307fa_sunahtfxgsrmkiulnwk.jpg,00762941201fa.jpg,sunafgzgbisbopcyslr.jpg,00827940307fa.jpg,sunahtfxgsrmkiulnwk.jpg,,,>,Place,,,,,1,,,,,,,o
57,14,Presentation,1,00741941201fa_sunaemcowdozyphwknd.jpg,00895960530fa_sunamczizlzavhzhpay.jpg,00741941201fa.jpg,sunaemcowdozyphwknd.jpg,00895960530fa.jpg,sunamczizlzavhzhpay.jpg,,,<,Place,,,,,1,,,,,,,o
58,14,Presentation,1,00816941205fa_sunahmhrncocyhsjpxk.jpg,00836940307fa_sunainqelldeebvxtcz.jpg,00816941205fa.jpg,sunahmhrncocyhsjpxk.jpg,00836940307fa.jpg,sunainqelldeebvxtcz.jpg,,,>,Face,,,,,1,,,,,,,x
59,14,Presentation,1,00779941205fa_sunagdzlvkqtpnfxfcg.jpg,00194940128fb_sunaayehfdqcyxggsej.jpg,00779941205fa.jpg,sunagdzlvkqtpnfxfcg.jpg,00194940128fb.jpg,sunaayehfdqcyxggsej.jpg,,,>,Place,,,,,0,,,,,,,o
60,14,Memory,1,,,,,,,00194940128fb.jpg,,,,,,,,,,,,,,,
61,14,Memory,1,,,,,,,01004960627fa.jpg,,,,,,,,,,,,,,,
62,14,Memory,1,,,,,,,sunaemcowdozyphwknd.jpg,,,,,,,,,,,,,,,
63,14,Memory,1,,,,,,,00271940422fa.jpg,,,,,,,,,,,,,,,
64,14,Memory,1,,,,,,,sunaawsdjisukbbginm.jpg,,,,,,,,,,,,,,,
65,14,Memory,1,,,,,,,sunamkmeblgteyggink.jpg,,,,,,,,,,,,,,,
66,14,Memory,1,,,,,,,00969960627fa.jpg,,,,,,,,,,,,,,,
67,14,Memory,1,,,,,,,00961960627fa.jpg,,,,,,,,,,,,,,,
68,14,Memory,1,,,,,,,sunafvsxtzaizojicxx.jpg,,,,,,,,,,,,,,,
69,14,Memory,1,,,,,,,sunbgklxeqjhdbyfhhy.jpg,,,,,,,,,,,,,,,
70,14,Memory,1,,,,,,,sunahtfxgsrmkiulnwk.jpg,,,,,,,,,,,,,,,
71,14,Memory,1,,,,,,,sunaangbuylfvckqqoo.jpg,,,,,,,,,,,,,,,
72,14,Memory,1,,,,,,,00191940128fb.jpg,,,,,,,,,,,,,,,
73,14,Memory,1,,,,,,,00741941201fa.jpg,,,,,,,,,,,,,,,
74,14,Memory,1,,,,,,,sunaeutbrtswvsozxyk.jpg,,,,,,,,,,,,,,,
75,14,Memory,1,,,,,,,sunaagcpoejbuzyvddd.jpg,,,,,,,,,,,,,,,
76,14,Memory,1,,,,,,,00290940422fa.jpg,,,,,,,,,,,,,,,
77,14,Memory,1,,,,,,,sunbwtlihsuptkrckid.jpg,,,,,,,,,,,,,,,
78,14,Memory,1,,,,,,,sunabmbnddafmywtjjj.jpg,,,,,,,,,,,,,,,
79,14,Memory,1,,,,,,,00316940422fa.jpg,,,,,,,,,,,,,,,
80,14,Memory,1,,,,,,,00127931230fa.jpg,,,,,,,,,,,,,,,
81,14,Memory,1,,,,,,,00985960627fa.jpg,,,,,,,,,,,,,,,
82,14,Memory,1,,,,,,,00184940128fa.jpg,,,,,,,,,,,,,,,
83,14,Memory,1,,,,,,,sunaampvucecsfbdafn.jpg,,,,,,,,,,,,,,,
84,14,Memory,1,,,,,,,sunaavtbadenwnzeutj.jpg,,,,,,,,,,,,,,,
85,14,Memory,1,,,,,,,sunaayehfdqcyxggsej.jpg,,,,,,,,,,,,,,,
86,14,Memory,1,,,,,,,00242940128fa.jpg,,,,,,,,,,,,,,,
87,14,Memory,1,,,,,,,00827940307fa.jpg,,,,,,,,,,,,,,,
88,14,Memory,1,,,,,,,00071940128fa.jpg,,,,,,,,,,,,,,,
89,14,Memory,1,,,,,,,00089931230fa.jpg,,,,,,,,,,,,,,,
90,14,Memory,1,,,,,,,sunabxmguapjekttvwm.jpg,,,,,,,,,,,,,,,
91,14,Memory,1,,,,,,,00773960620fa.jpg,,,,,,,,,,,,,,,
92,14,Memory,1,,,,,,,00131931230fb.jpg,,,,,,,,,,,,,,,
93,14,Memory,1,,,,,,,sunabcuurugvxwparpk.jpg,,,,,,,,,,,,,,,
94,14,Memory,1,,,,,,,sunawotxrevnqvamsfp.jpg,,,,,,,,,,,,,,,
95,14,Memory,1,,,,,,,sunaaexpnawiehinlpy.jpg,,,,,,,,,,,,,,,
96,14,Memory,1,,,,,,,00898960530fa.jpg,,,,,,,,,,,,,,,
97,14,Memory,1,,,,,,,sunabqowuarvqqcnipn.jpg,,,,,,,,,,,,,,,
98,14,Memory,1,,,,,,,sunbaoizrfijvhpnnjn.jpg,,,,,,,,,,,,,,,
99,14,Memory,1,,,,,,,00747941201fa.jpg,,,,,,,,,,,,,,,
100,14,Presentation,2,00136931230fb_sunaanptmsknhirrzed.jpg,00116931230fa_sunaakqepfoeqomfgxf.jpg,00136931230fb.jpg,sunaanptmsknhirrzed.jpg,00116931230fa.jpg,sunaakqepfoeqomfgxf.jpg,,,<,Face,,,,,1,,,,,,,x
101,14,Presentation,2,00266940128fb_sunabkngeblodihjvbk.jpg,00267940128fb_sunablfqiwfqomjarht.jpg,00266940128fb.jpg,sunabkngeblodihjvbk.jpg,00267940128fb.jpg,sunablfqiwfqomjarht.jpg,,,<,Face,,,,,1,,,,,,,o
102,14,Presentation,2,00929960627fa_sunaprnrbmgkomdbchr.jpg,00877960530fa_sunajxpkuhbizeveguy.jpg,00929960627fa.jpg,sunaprnrbmgkomdbchr.jpg,00877960530fa.jpg,sunajxpkuhbizeveguy.jpg,,,>,Face,,,,,1,,,,,,,x
103,14,Presentation,2,00811960530fa_sunahedfrhtcwpneund.jpg,00876960620fa_sunajwqkfsykceonyig.jpg,00811960530fa.jpg,sunahedfrhtcwpneund.jpg,00876960620fa.jpg,sunajwqkfsykceonyig.jpg,,,<,Place,,,,,1,,,,,,,o
104,14,Presentation,2,00719941201fa_sunadvithllcgmfxsrn.jpg,00789960620fa_sunagpancjmxqfazssf.jpg,00719941201fa.jpg,sunadvithllcgmfxsrn.jpg,00789960620fa.jpg,sunagpancjmxqfazssf.jpg,,,>,Face,,,,,1,,,,,,,o
105,14,Presentation,2,00894960620fa_sunalqmfgeadpqsyzpd.jpg,00115931230fa_sunaakmxzhuceuiryah.jpg,00894960620fa.jpg,sunalqmfgeadpqsyzpd.jpg,00115931230fa.jpg,sunaakmxzhuceuiryah.jpg,,,<,Place,,,,,1,,,,,,,x
106,14,Presentation,2,00108960530fa_sunaajtnvzzpsjdzres.jpg,00952960627fa_sunathzzbcwjykldrem.jpg,00108960530fa.jpg,sunaajtnvzzpsjdzres.jpg,00952960627fa.jpg,sunathzzbcwjykldrem.jpg,,,>,Place,,,,,0,,,,,,,o
107,14,Presentation,2,00933960627fa_sunapwjkcxdaeqehfql.jpg,00705960530fa_sunaduslxfzlbxlllnz.jpg,00933960627fa.jpg,sunapwjkcxdaeqehfql.jpg,00705960530fa.jpg,sunaduslxfzlbxlllnz.jpg,,,>,Face,,,,,1,,,,,,,x
108,14,Presentation,2,00742941201fa_sunaenwuebvlpdmntju.jpg,00968960627fa_sunbagfpovqwbuexqdn.jpg,00742941201fa.jpg,sunaenwuebvlpdmntju.jpg,00968960627fa.jpg,sunbagfpovqwbuexqdn.jpg,,,<,Place,,,,,1,,,,,,,o
109,14,Presentation,2,00772941201fa_sunafpfpiiujzoesnqg.jpg,00908960530fa_sunanwjjyqqwzqrqagd.jpg,00772941201fa.jpg,sunafpfpiiujzoesnqg.jpg,00908960530fa.jpg,sunanwjjyqqwzqrqagd.jpg,,,>,Place,,,,,1,,,,,,,x
110,14,Memory,2,,,,,,,sunaazezcsunmhttzxz.jpg,,,,,,,,,,,,,,,
111,14,Memory,2,,,,,,,sunaaelotvjgibjtjhs.jpg,,,,,,,,,,,,,,,
112,14,Memory,2,,,,,,,00532960627fa.jpg,,,,,,,,,,,,,,,
113,14,Memory,2,,,,,,,00933960627fa.jpg,,,,,,,,,,,,,,,
114,14,Memory,2,,,,,,,sunaccdtpgenvcbcbcf.jpg,,,,,,,,,,,,,,,
115,14,Memory,2,,,,,,,sunabwjvmoaddlyxfjr.jpg,,,,,,,,,,,,,,,
116,14,Memory,2,,,,,,,sunagvxkjokqimstxpe.jpg,,,,,,,,,,,,,,,
117,14,Memory,2,,,,,,,00115931230fa.jpg,,,,,,,,,,,,,,,
118,14,Memory,2,,,,,,,sunaajtnvzzpsjdzres.jpg,,,,,,,,,,,,,,,
119,14,Memory,2,,,,,,,00803941205fa.jpg,,,,,,,,,,,,,,,
120,14,Memory,2,,,,,,,00062931230fb.jpg,,,,,,,,,,,,,,,
121,14,Memory,2,,,,,,,00894960620fa.jpg,,,,,,,,,,,,,,,
122,14,Memory,2,,,,,,,sunapwjkcxdaeqehfql.jpg,,,,,,,,,,,,,,,
123,14,Memory,2,,,,,,,sunaakqepfoeqomfgxf.jpg,,,,,,,,,,,,,,,
124,14,Memory,2,,,,,,,sunahedfrhtcwpneund.jpg,,,,,,,,,,,,,,,
125,14,Memory,2,,,,,,,sunacvbrcejzwmcgnoq.jpg,,,,,,,,,,,,,,,
126,14,Memory,2,,,,,,,00944960627fa.jpg,,,,,,,,,,,,,,,
127,14,Memory,2,,,,,,,sunaalcrrdbjgdztbiz.jpg,,,,,,,,,,,,,,,
128,14,Memory,2,,,,,,,sunaakmxzhuceuiryah.jpg,,,,,,,,,,,,,,,
129,14,Memory,2,,,,,,,00876960620fa.jpg,,,,,,,,,,,,,,,
130,14,Memory,2,,,,,,,00313940422fa.jpg,,,,,,,,,,,,,,,
131,14,Memory,2,,,,,,,sunajwqkfsykceonyig.jpg,,,,,,,,,,,,,,,
132,14,Memory,2,,,,,,,00908960530fa.jpg,,,,,,,,,,,,,,,
133,14,Memory,2,,,,,,,00198940128fb.jpg,,,,,,,,,,,,,,,
134,14,Memory,2,,,,,,,00136931230fb.jpg,,,,,,,,,,,,,,,
135,14,Memory,2,,,,,,,sunasbbntuiheekqyaq.jpg,,,,,,,,,,,,,,,
136,14,Memory,2,,,,,,,sunaanptmsknhirrzed.jpg,,,,,,,,,,,,,,,
137,14,Memory,2,,,,,,,sunaduslxfzlbxlllnz.jpg,,,,,,,,,,,,,,,
138,14,Memory,2,,,,,,,00123931230fb.jpg,,,,,,,,,,,,,,,
139,14,Memory,2,,,,,,,sunahqldjibofgsfdgb.jpg,,,,,,,,,,,,,,,
140,14,Memory,2,,,,,,,00819940307fa.jpg,,,,,,,,,,,,,,,
141,14,Memory,2,,,,,,,00811960530fa.jpg,,,,,,,,,,,,,,,
142,14,Memory,2,,,,,,,00108960530fa.jpg,,,,,,,,,,,,,,,
143,14,Memory,2,,,,,,,sunalqmfgeadpqsyzpd.jpg,,,,,,,,,,,,,,,
144,14,Memory,2,,,,,,,00116931230fa.jpg,,,,,,,,,,,,,,,
145,14,Memory,2,,,,,,,00880960530fa.jpg,,,,,,,,,,,,,,,
146,14,Memory,2,,,,,,,00705960530fa.jpg,,,,,,,,,,,,,,,
147,14,Memory,2,,,,,,,00574940928fa.jpg,,,,,,,,,,,,,,,
148,14,Memory,2,,,,,,,sunanwjjyqqwzqrqagd.jpg,,,,,,,,,,,,,,,
149,14,Memory,2,,,,,,,sunakmnfgklupjijsgf.jpg,,,,,,,,,,,,,,,
150,14,Presentation,3,00773941201fa_sunafvcflzhlqloapyo.jpg,00540940519fa_sunacdnquypmsshhsbk.jpg,00773941201fa.jpg,sunafvcflzhlqloapyo.jpg,00540940519fa.jpg,sunacdnquypmsshhsbk.jpg,,,<,Place,,,,,1,,,,,,,o
151,14,Presentation,3,00111931230fb_sunaakgekhjklxmvulj.jpg,01007960627fa_sunbxarcshsnqsefemx.jpg,00111931230fb.jpg,sunaakgekhjklxmvulj.jpg,01007960627fa.jpg,sunbxarcshsnqsefemx.jpg,,,>,Face,,,,,1,,,,,,,o
152,14,Presentation,3,00868960307fa_sunajjxttslobudoqbv.jpg,00676941121fa_sunadpnqovzckyikrjo.jpg,00868960307fa.jpg,sunajjxttslobudoqbv.jpg,00676941121fa.jpg,sunadpnqovzckyikrjo.jpg,,,>,Place,,,,,1,,,,,,,o
153,14,Presentation,3,00982960627fa_sunbesrwkdsffeogeqq.jpg,00119931230fb_sunaakvmbftkrgqhjun.jpg,00982960627fa.jpg,sunbesrwkdsffeogeqq.jpg,00119931230fb.jpg,sunaakvmbftkrgqhjun.jpg,,,>,Place,,,,,1,,,,,,,o
154,14,Presentation,3,00828940307fa_sunahuynahneraqftyz.jpg,00780960530fa_sunagetqixeypsysbpn.jpg,00828940307fa.jpg,sunahuynahneraqftyz.jpg,00780960530fa.jpg,sunagetqixeypsysbpn.jpg,,,<,Place,,,,,1,,,,,,,o
155,14,Presentation,3,00810941205fa_sunahctntqrunhdxhtb.jpg,01010960627fa_suncnkvbhypnivcohyx.jpg,00810941205fa.jpg,sunahctntqrunhdxhtb.jpg,01010960627fa.jpg,suncnkvbhypnivcohyx.jpg,,,>,Face,,,,,1,,,,,,,o
156,14,Presentation,3,00926960627Fa_sunapqwoeotxshkukbh.jpg,00972960627fa_sunbbfqwjpdxniyhies.jpg,00926960627Fa.jpg,sunapqwoeotxshkukbh.jpg,00972960627fa.jpg,sunbbfqwjpdxniyhies.jpg,,,<,Face,,,,,1,,,,,,,x
157,14,Presentation,3,00634940928fa_sunadcphrizvfpljiqt.jpg,00209940128fb_sunabaergayifsgacxt.jpg,00634940928fa.jpg,sunadcphrizvfpljiqt.jpg,00209940128fb.jpg,sunabaergayifsgacxt.jpg,,,<,Face,,,,,1,,,,,,,x
158,14,Presentation,3,00750941201fa_sunaeuzwggvibufclwf.jpg,00743941201fa_sunaeoghzrjarigmwua.jpg,00750941201fa.jpg,sunaeuzwggvibufclwf.jpg,00743941201fa.jpg,sunaeoghzrjarigmwua.jpg,,,>,Face,,,,,1,,,,,,,x
159,14,Presentation,3,00122931230fa_sunaakxjfbrrequcjmx.jpg,00185940422fb_sunaawqdbpihmlbwyyn.jpg,00122931230fa.jpg,sunaakxjfbrrequcjmx.jpg,00185940422fb.jpg,sunaawqdbpihmlbwyyn.jpg,,,<,Place,,,,,1,,,,,,,x
160,14,Memory,3,,,,,,,sunaozisvwfbmlkfhzv.jpg,,,,,,,,,,,,,,,
161,14,Memory,3,,,,,,,00554940519fa.jpg,,,,,,,,,,,,,,,
162,14,Memory,3,,,,,,,sunaavchcbptaerhcfy.jpg,,,,,,,,,,,,,,,
163,14,Memory,3,,,,,,,sunagvjurcwdbixvnyi.jpg,,,,,,,,,,,,,,,
164,14,Memory,3,,,,,,,sunaawqdbpihmlbwyyn.jpg,,,,,,,,,,,,,,,
165,14,Memory,3,,,,,,,00972960627fa.jpg,,,,,,,,,,,,,,,
166,14,Memory,3,,,,,,,00750941201fa.jpg,,,,,,,,,,,,,,,
167,14,Memory,3,,,,,,,sunafkmnlytenlsywia.jpg,,,,,,,,,,,,,,,
168,14,Memory,3,,,,,,,sunbbfqwjpdxniyhies.jpg,,,,,,,,,,,,,,,
169,14,Memory,3,,,,,,,sunafvcflzhlqloapyo.jpg,,,,,,,,,,,,,,,
170,14,Memory,3,,,,,,,00800941205fb.jpg,,,,,,,,,,,,,,,
171,14,Memory,3,,,,,,,00868960307fa.jpg,,,,,,,,,,,,,,,
172,14,Memory,3,,,,,,,00773941201fa.jpg,,,,,,,,,,,,,,,
173,14,Memory,3,,,,,,,sunasrjlmglmjzbmqxb.jpg,,,,,,,,,,,,,,,
174,14,Memory,3,,,,,,,sunaathajvxrgptwhoj.jpg,,,,,,,,,,,,,,,
175,14,Memory,3,,,,,,,sunadpnqovzckyikrjo.jpg,,,,,,,,,,,,,,,
176,14,Memory,3,,,,,,,00768941205fa.jpg,,,,,,,,,,,,,,,
177,14,Memory,3,,,,,,,sunagetqixeypsysbpn.jpg,,,,,,,,,,,,,,,
178,14,Memory,3,,,,,,,sunaeuzwggvibufclwf.jpg,,,,,,,,,,,,,,,
179,14,Memory,3,,,,,,,00874940307fa.jpg,,,,,,,,,,,,,,,
180,14,Memory,3,,,,,,,sunacfdkbsrughwqwtt.jpg,,,,,,,,,,,,,,,
181,14,Memory,3,,,,,,,00828940307fa.jpg,,,,,,,,,,,,,,,
182,14,Memory,3,,,,,,,00914960620fa.jpg,,,,,,,,,,,,,,,
183,14,Memory,3,,,,,,,sunahuynahneraqftyz.jpg,,,,,,,,,,,,,,,
184,14,Memory,3,,,,,,,00185940422fb.jpg,,,,,,,,,,,,,,,
185,14,Memory,3,,,,,,,00676941121fa.jpg,,,,,,,,,,,,,,,
186,14,Memory,3,,,,,,,00144931230fb.jpg,,,,,,,,,,,,,,,
187,14,Memory,3,,,,,,,00122931230fa.jpg,,,,,,,,,,,,,,,
188,14,Memory,3,,,,,,,00770941201fa.jpg,,,,,,,,,,,,,,,
189,14,Memory,3,,,,,,,sunajjxttslobudoqbv.jpg,,,,,,,,,,,,,,,
190,14,Memory,3,,,,,,,00158931230fb.jpg,,,,,,,,,,,,,,,
191,14,Memory,3,,,,,,,sunajtrfunvzdfticna.jpg,,,,,,,,,,,,,,,
192,14,Memory,3,,,,,,,sunaedtgwjvvziytspa.jpg,,,,,,,,,,,,,,,
193,14,Memory,3,,,,,,,sunaakvmbftkrgqhjun.jpg,,,,,,,,,,,,,,,
194,14,Memory,3,,,,,,,00723941201fa.jpg,,,,,,,,,,,,,,,
195,14,Memory,3,,,,,,,00780960530fa.jpg,,,,,,,,,,,,,,,
196,14,Memory,3,,,,,,,sunaakxjfbrrequcjmx.jpg,,,,,,,,,,,,,,,
197,14,Memory,3,,,,,,,sunaflojskatpeqyzqp.jpg,,,,,,,,,,,,,,,
198,14,Memory,3,,,,,,,00950960627fa.jpg,,,,,,,,,,,,,,,
199,14,Memory,3,,,,,,,00119931230fb.jpg,,,,,,,,,,,,,,,
200,14,Presentation,4,00971960627fa_sunbbegcweqnetpdlrh.jpg,00778941205fa_sunagcthdfirrcawoic.jpg,00971960627fa.jpg,sunbbegcweqnetpdlrh.jpg,00778941205fa.jpg,sunagcthdfirrcawoic.jpg,,,<,Face,,,,,1,,,,,,,x
201,14,Presentation,4,00965960627fa_sunaydywdmvlfddbxbk.jpg,00935960627fa_sunaqbmgkgqucajzrkp.jpg,00965960627fa.jpg,sunaydywdmvlfddbxbk.jpg,00935960627fa.jpg,sunaqbmgkgqucajzrkp.jpg,,,<,Place,,,,,1,,,,,,,x
202,14,Presentation,4,00638941031fa_sunadfktsqjthoglcsm.jpg,00913960530fa_sunaooffzffbhcpirmm.jpg,00638941031fa.jpg,sunadfktsqjthoglcsm.jpg,00913960530fa.jpg,sunaooffzffbhcpirmm.jpg,,,<,Face,,,,,1,,,,,,,x
203,14,Presentation,4,00101931230fb_sunaajqmsaavkmgbsth.jpg,00265940128fb_sunabkmdplkdbvxriff.jpg,00101931230fb.jpg,sunaajqmsaavkmgbsth.jpg,00265940128fb.jpg,sunabkmdplkdbvxriff.jpg,,,>,Place,,,,,1,,,,,,,x
204,14,Presentation,4,00270940422fb_sunabllobxadqcyttej.jpg,00727941205fa_sunaeisnjeetzmkbuad.jpg,00270940422fb.jpg,sunabllobxadqcyttej.jpg,00727941205fa.jpg,sunaeisnjeetzmkbuad.jpg,,,<,Face,,,,,0,,,,,,,o
205,14,Presentation,4,00070940307fa_sunaaeplwsfslcbtojr.jpg,00906960530fa_sunantryfbloeaomfta.jpg,00070940307fa.jpg,sunaaeplwsfslcbtojr.jpg,00906960530fa.jpg,sunantryfbloeaomfta.jpg,,,>,Face,,,,,1,,,,,,,o
206,14,Presentation,4,00102931230fa_sunaajspcoepticvplv.jpg,00763941205fa_sunafhmnhsdurlvddpw.jpg,00102931230fa.jpg,sunaajspcoepticvplv.jpg,00763941205fa.jpg,sunafhmnhsdurlvddpw.jpg,,,<,Place,,,,,0,,,,,,,o
207,14,Presentation,4,00911960530fa_sunaooaqzputrowwbsw.jpg,00910960530fa_sunaofikylqtxphvdem.jpg,00911960530fa.jpg,sunaooaqzputrowwbsw.jpg,00910960530fa.jpg,sunaofikylqtxphvdem.jpg,,,>,Face,,,,,0,,,,,,,o
208,14,Presentation,4,00571940928fa_sunacuatpqpqhyjhjqk.jpg,00963960627fa_sunayaepykrqvenaqqy.jpg,00571940928fa.jpg,sunacuatpqpqhyjhjqk.jpg,00963960627fa.jpg,sunayaepykrqvenaqqy.jpg,,,>,Place,,,,,1,,,,,,,x
209,14,Presentation,4,00777941205fa_sunagcinxkccdtrjmlv.jpg,00938960627fa_sunaqyylsngywqzwfmx.jpg,00777941205fa.jpg,sunagcinxkccdtrjmlv.jpg,00938960627fa.jpg,sunaqyylsngywqzwfmx.jpg,,,>,Place,,,,,1,,,,,,,x
210,14,Memory,4,,,,,,,sunaaeplwsfslcbtojr.jpg,,,,,,,,,,,,,,,
211,14,Memory,4,,,,,,,00999960627fa.jpg,,,,,,,,,,,,,,,
212,14,Memory,4,,,,,,,sunaajspcoepticvplv.jpg,,,,,,,,,,,,,,,
213,14,Memory,4,,,,,,,sunayaepykrqvenaqqy.jpg,,,,,,,,,,,,,,,
214,14,Memory,4,,,,,,,00965960627fa.jpg,,,,,,,,,,,,,,,
215,14,Memory,4,,,,,,,sunaknlirqjqiwbbeeg.jpg,,,,,,,,,,,,,,,
216,14,Memory,4,,,,,,,sunavhxgmgrqsaptynb.jpg,,,,,,,,,,,,,,,
217,14,Memory,4,,,,,,,00102931230fa.jpg,,,,,,,,,,,,,,,
218,14,Memory,4,,,,,,,00130931230fa.jpg,,,,,,,,,,,,,,,
219,14,Memory,4,,,,,,,00921960627fa.jpg,,,,,,,,,,,,,,,
220,14,Memory,4,,,,,,,sunapqkyghktgtosuuk.jpg,,,,,,,,,,,,,,,
221,14,Memory,4,,,,,,,sunaooaqzputrowwbsw.jpg,,,,,,,,,,,,,,,
222,14,Memory,4,,,,,,,00070940307fa.jpg,,,,,,,,,,,,,,,
223,14,Memory,4,,,,,,,sunadfktsqjthoglcsm.jpg,,,,,,,,,,,,,,,
224,14,Memory,4,,,,,,,sunapqkpqdfvxlbqwyo.jpg,,,,,,,,,,,,,,,
225,14,Memory,4,,,,,,,sunaffstbkappprzxnv.jpg,,,,,,,,,,,,,,,
226,14,Memory,4,,,,,,,00882960530fa.jpg,,,,,,,,,,,,,,,
227,14,Memory,4,,,,,,,sunaydywdmvlfddbxbk.jpg,,,,,,,,,,,,,,,
228,14,Memory,4,,,,,,,00959960627fa.jpg,,,,,,,,,,,,,,,
229,14,Memory,4,,,,,,,00265940128fb.jpg,,,,,,,,,,,,,,,
230,14,Memory,4,,,,,,,00193940928fa.jpg,,,,,,,,,,,,,,,
231,14,Memory,4,,,,,,,00957960627fa.jpg,,,,,,,,,,,,,,,
232,14,Memory,4,,,,,,,00922960627fa.jpg,,,,,,,,,,,,,,,
233,14,Memory,4,,,,,,,sunavxokzybtomhbmvm.jpg,,,,,,,,,,,,,,,
234,14,Memory,4,,,,,,,00778941205fa.jpg,,,,,,,,,,,,,,,
235,14,Memory,4,,,,,,,sunaofikylqtxphvdem.jpg,,,,,,,,,,,,,,,
236,14,Memory,4,,,,,,,00647941031fa.jpg,,,,,,,,,,,,,,,
237,14,Memory,4,,,,,,,sunadflbrkckmepztql.jpg,,,,,,,,,,,,,,,
238,14,Memory,4,,,,,,,sunabkmdplkdbvxriff.jpg,,,,,,,,,,,,,,,
239,14,Memory,4,,,,,,,sunaamvxnvouicstkjb.jpg,,,,,,,,,,,,,,,
240,14,Memory,4,,,,,,,sunafhmnhsdurlvddpw.jpg,,,,,,,,,,,,,,,
241,14,Memory,4,,,,,,,sunaaxjpzcnxligjtjq.jpg,,,,,,,,,,,,,,,
242,14,Memory,4,,,,,,,00963960627fa.jpg,,,,,,,,,,,,,,,
243,14,Memory,4,,,,,,,sunagcthdfirrcawoic.jpg,,,,,,,,,,,,,,,
244,14,Memory,4,,,,,,,00911960530fa.jpg,,,,,,,,,,,,,,,
245,14,Memory,4,,,,,,,00763941205fa.jpg,,,,,,,,,,,,,,,
246,14,Memory,4,,,,,,,sunbvbrvgbpanfrawft.jpg,,,,,,,,,,,,,,,
247,14,Memory,4,,,,,,,00910960530fa.jpg,,,,,,,,,,,,,,,
248,14,Memory,4,,,,,,,00638941031fa.jpg,,,,,,,,,,,,,,,
249,14,Memory,4,,,,,,,00760960620fa.jpg,,,,,,,,,,,,,,,
250,14,Presentation,5,00809960620fa_sunahbvlpavurqoxdeq.jpg,00670941121fa_sunadochqcucscehsgk.jpg,00809960620fa.jpg,sunahbvlpavurqoxdeq.jpg,00670941121fa.jpg,sunadochqcucscehsgk.jpg,,,<,Face,,,,,1,,,,,,,x
251,14,Presentation,5,00864940307fa_sunajawzbrlrwafowen.jpg,00839940307fa_sunaipyohrqlwngaqif.jpg,00864940307fa.jpg,sunajawzbrlrwafowen.jpg,00839940307fa.jpg,sunaipyohrqlwngaqif.jpg,,,>,Place,,,,,1,,,,,,,o
252,14,Presentation,5,00529940519fa_sunacbeefkxpymwevpk.jpg,00296940422fa_sunabrwnslxalcohfre.jpg,00529940519fa.jpg,sunacbeefkxpymwevpk.jpg,00296940422fa.jpg,sunabrwnslxalcohfre.jpg,,,>,Face,,,,,1,,,,,,,x
253,14,Presentation,5,00978960627fa_sunbddbivbptlrlauhy.jpg,00681941121fa_sunadqmjrhfjyuzyvdd.jpg,00978960627fa.jpg,sunbddbivbptlrlauhy.jpg,00681941121fa.jpg,sunadqmjrhfjyuzyvdd.jpg,,,<,Place,,,,,1,,,,,,,x
254,14,Presentation,5,00884960530fa_sunakodkcslgqhqlgwl.jpg,00794960620fa_sunagtqhhwxjeuxdebe.jpg,00884960530fa.jpg,sunakodkcslgqhqlgwl.jpg,00794960620fa.jpg,sunagtqhhwxjeuxdebe.jpg,,,<,Face,,,,,1,,,,,,,x
255,14,Presentation,5,00796941205fa_sunaguchqqnrtodtezq.jpg,00797960620fa_sunagufzbeteqdjxais.jpg,00796941205fa.jpg,sunaguchqqnrtodtezq.jpg,00797960620fa.jpg,sunagufzbeteqdjxais.jpg,,,>,Face,,,,,1,,,,,,,x
256,14,Presentation,5,00214940128fa_sunabbafjowbzcvbucc.jpg,00482940519fa_sunabyfxcxhdebvdyfd.jpg,00214940128fa.jpg,sunabbafjowbzcvbucc.jpg,00482940519fa.jpg,sunabyfxcxhdebvdyfd.jpg,,,<,Face,,,,,1,,,,,,,x
257,14,Presentation,5,00294940422fb_sunabrlndkruqokhury.jpg,00996960627fa_sunbpvgllfdejxcpjqp.jpg,00294940422fb.jpg,sunabrlndkruqokhury.jpg,00996960627fa.jpg,sunbpvgllfdejxcpjqp.jpg,,,>,Place,,,,,0,,,,,,,o
258,14,Presentation,5,00939960627fa_sunarceibpcyacbmfga.jpg,00745941205fa_sunaeouogqolxvggaoq.jpg,00939960627fa.jpg,sunarceibpcyacbmfga.jpg,00745941205fa.jpg,sunaeouogqolxvggaoq.jpg,,,<,Place,,,,,1,,,,,,,o
259,14,Presentation,5,00851940307fa_sunaivflshbyfrfzhqb.jpg,00834940307fa_sunaibnpvhkdpdnzcnz.jpg,00851940307fa.jpg,sunaivflshbyfrfzhqb.jpg,00834940307fa.jpg,sunaibnpvhkdpdnzcnz.jpg,,,>,Place,,,,,1,,,,,,,o
260,14,Memory,5,,,,,,,sunaijsqpvodplbwxkf.jpg,,,,,,,,,,,,,,,
261,14,Memory,5,,,,,,,00943960627fa.jpg,,,,,,,,,,,,,,,
262,14,Memory,5,,,,,,,00796941205fa.jpg,,,,,,,,,,,,,,,
263,14,Memory,5,,,,,,,sunahrltmuwbiehihpe.jpg,,,,,,,,,,,,,,,
264,14,Memory,5,,,,,,,sunakodkcslgqhqlgwl.jpg,,,,,,,,,,,,,,,
265,14,Memory,5,,,,,,,sunbondbduabvijnmch.jpg,,,,,,,,,,,,,,,
266,14,Memory,5,,,,,,,00958960627fa.jpg,,,,,,,,,,,,,,,
267,14,Memory,5,,,,,,,00939960627fa.jpg,,,,,,,,,,,,,,,
268,14,Memory,5,,,,,,,sunaeouogqolxvggaoq.jpg,,,,,,,,,,,,,,,
269,14,Memory,5,,,,,,,00884960530fa.jpg,,,,,,,,,,,,,,,
270,14,Memory,5,,,,,,,00878960530fa.jpg,,,,,,,,,,,,,,,
271,14,Memory,5,,,,,,,sunavspxmxubqaeidjt.jpg,,,,,,,,,,,,,,,
272,14,Memory,5,,,,,,,00797960620fa.jpg,,,,,,,,,,,,,,,
273,14,Memory,5,,,,,,,sunabtlfmiwtljmoues.jpg,,,,,,,,,,,,,,,
274,14,Memory,5,,,,,,,sunakgbnzxmfohgehnu.jpg,,,,,,,,,,,,,,,
275,14,Memory,5,,,,,,,00302940422fa.jpg,,,,,,,,,,,,,,,
276,14,Memory,5,,,,,,,00670941121fa.jpg,,,,,,,,,,,,,,,
277,14,Memory,5,,,,,,,00825940307fa.jpg,,,,,,,,,,,,,,,
278,14,Memory,5,,,,,,,sunaguchqqnrtodtezq.jpg,,,,,,,,,,,,,,,
279,14,Memory,5,,,,,,,sunaqsolmfydodnakub.jpg,,,,,,,,,,,,,,,
280,14,Memory,5,,,,,,,sunabrlndkruqokhury.jpg,,,,,,,,,,,,,,,
281,14,Memory,5,,,,,,,sunajawzbrlrwafowen.jpg,,,,,,,,,,,,,,,
282,14,Memory,5,,,,,,,00989960627fa.jpg,,,,,,,,,,,,,,,
283,14,Memory,5,,,,,,,00937960627fa.jpg,,,,,,,,,,,,,,,
284,14,Memory,5,,,,,,,00835940307fa.jpg,,,,,,,,,,,,,,,
285,14,Memory,5,,,,,,,sunagufzbeteqdjxais.jpg,,,,,,,,,,,,,,,
286,14,Memory,5,,,,,,,sunarpsxqkduedrrzyi.jpg,,,,,,,,,,,,,,,
287,14,Memory,5,,,,,,,sunafijbgncijwykrnl.jpg,,,,,,,,,,,,,,,
288,14,Memory,5,,,,,,,00294940422fb.jpg,,,,,,,,,,,,,,,
289,14,Memory,5,,,,,,,00864940307fa.jpg,,,,,,,,,,,,,,,
290,14,Memory,5,,,,,,,00766960620fa.jpg,,,,,,,,,,,,,,,
291,14,Memory,5,,,,,,,sunadochqcucscehsgk.jpg,,,,,,,,,,,,,,,
292,14,Memory,5,,,,,,,00839940307fa.jpg,,,,,,,,,,,,,,,
293,14,Memory,5,,,,,,,sunaipyohrqlwngaqif.jpg,,,,,,,,,,,,,,,
294,14,Memory,5,,,,,,,sunahqrxievfeusiqlt.jpg,,,,,,,,,,,,,,,
295,14,Memory,5,,,,,,,00745941205fa.jpg,,,,,,,,,,,,,,,
296,14,Memory,5,,,,,,,sunabrwnslxalcohfre.jpg,,,,,,,,,,,,,,,
297,14,Memory,5,,,,,,,00822940307fa.jpg,,,,,,,,,,,,,,,
298,14,Memory,5,,,,,,,sunarceibpcyacbmfga.jpg,,,,,,,,,,,,,,,
299,14,Memory,5,,,,,,,00296940422fa.jpg,,,,,,,,,,,,,,,
300,14,Presentation,6,00153931230fa_sunaauhozyxzeeqstxi.jpg,00564941031fa_sunacsaovnjezqwbykf.jpg,00153931230fa.jpg,sunaauhozyxzeeqstxi.jpg,00564941031fa.jpg,sunacsaovnjezqwbykf.jpg,,,>,Place,,,,,1,,,,,,,x
301,14,Presentation,6,00960960627fa_sunawksfbacycuhbrsc.jpg,00993960627fa_sunbprywzqxjcezkbch.jpg,00960960627fa.jpg,sunawksfbacycuhbrsc.jpg,00993960627fa.jpg,sunbprywzqxjcezkbch.jpg,,,<,Place,,,,,1,,,,,,,x
302,14,Presentation,6,00977960627fa_sunbbxkanhzjgbwyxqs.jpg,00744941201fa_sunaeomlfaabhpswasy.jpg,00977960627fa.jpg,sunbbxkanhzjgbwyxqs.jpg,00744941201fa.jpg,sunaeomlfaabhpswasy.jpg,,,<,Face,,,,,1,,,,,,,o
303,14,Presentation,6,00705941205fa_sunadtlxenqqxsyjvix.jpg,00942960627fa_sunarfdklgdnjgeqfjg.jpg,00705941205fa.jpg,sunadtlxenqqxsyjvix.jpg,00942960627fa.jpg,sunarfdklgdnjgeqfjg.jpg,,,<,Face,,,,,1,,,,,,,o
304,14,Presentation,6,00931960627fa_sunaptrqvaooxfvktvw.jpg,00581940928fa_sunacvzhvcksnwqcqbw.jpg,00931960627fa.jpg,sunaptrqvaooxfvktvw.jpg,00581940928fa.jpg,sunacvzhvcksnwqcqbw.jpg,,,>,Place,,,,,1,,,,,,,x
305,14,Presentation,6,00795941205fa_sunagtumacdlmciqamz.jpg,00754941201fa_sunaffgsyyvoqdlkmnk.jpg,00795941205fa.jpg,sunagtumacdlmciqamz.jpg,00754941201fa.jpg,sunaffgsyyvoqdlkmnk.jpg,,,>,Face,,,,,1,,,,,,,o
306,14,Presentation,6,00675941121fa_sunadoxcchtmsxewsau.jpg,00984960627fa_sunbfzchmomnvzhbxdg.jpg,00675941121fa.jpg,sunadoxcchtmsxewsau.jpg,00984960627fa.jpg,sunbfzchmomnvzhbxdg.jpg,,,>,Face,,,,,1,,,,,,,o
307,14,Presentation,6,00636941031fa_sunaddtdkycxbqlpfqa.jpg,01005960627fa_sunbwyuesflwdpqtgoy.jpg,00636941031fa.jpg,sunaddtdkycxbqlpfqa.jpg,01005960627fa.jpg,sunbwyuesflwdpqtgoy.jpg,,,<,Place,,,,,1,,,,,,,o
308,14,Presentation,6,00208940128fa_sunaazzyhbvqjpmazjq.jpg,00790941205fa_sunagpjzsbltchlwvou.jpg,00208940128fa.jpg,sunaazzyhbvqjpmazjq.jpg,00790941205fa.jpg,sunagpjzsbltchlwvou.jpg,,,<,Face,,,,,1,,,,,,,o
309,14,Presentation,6,00146960620fb_sunaatpeezlljqaxlhj.jpg,00903960620fa_sunanainkqdvktzoxyl.jpg,00146960620fb.jpg,sunaatpeezlljqaxlhj.jpg,00903960620fa.jpg,sunanainkqdvktzoxyl.jpg,,,>,Place,,,,,1,,,,,,,x
310,14,Memory,6,,,,,,,00635941031fa.jpg,,,,,,,,,,,,,,,
311,14,Memory,6,,,,,,,00753941201fa.jpg,,,,,,,,,,,,,,,
312,14,Memory,6,,,,,,,00208940128fa.jpg,,,,,,,,,,,,,,,
313,14,Memory,6,,,,,,,sunacvzhvcksnwqcqbw.jpg,,,,,,,,,,,,,,,
314,14,Memory,6,,,,,,,sunadoxcchtmsxewsau.jpg,,,,,,,,,,,,,,,
315,14,Memory,6,,,,,,,00960960627fa.jpg,,,,,,,,,,,,,,,
316,14,Memory,6,,,,,,,sunbfzchmomnvzhbxdg.jpg,,,,,,,,,,,,,,,
317,14,Memory,6,,,,,,,sunafcofuuzebuadceo.jpg,,,,,,,,,,,,,,,
318,14,Memory,6,,,,,,,sunabeyhmxodahoieyk.jpg,,,,,,,,,,,,,,,
319,14,Memory,6,,,,,,,sunagjzcrjvmxzqzljx.jpg,,,,,,,,,,,,,,,
320,14,Memory,6,,,,,,,01005960627fa.jpg,,,,,,,,,,,,,,,
321,14,Memory,6,,,,,,,00581940928fa.jpg,,,,,,,,,,,,,,,
322,14,Memory,6,,,,,,,00245940128fa.jpg,,,,,,,,,,,,,,,
323,14,Memory,6,,,,,,,sunawksfbacycuhbrsc.jpg,,,,,,,,,,,,,,,
324,14,Memory,6,,,,,,,00783941205fa.jpg,,,,,,,,,,,,,,,
325,14,Memory,6,,,,,,,00498960627fa.jpg,,,,,,,,,,,,,,,
326,14,Memory,6,,,,,,,sunaletopenvvozhpxc.jpg,,,,,,,,,,,,,,,
327,14,Memory,6,,,,,,,sunadtlxenqqxsyjvix.jpg,,,,,,,,,,,,,,,
328,14,Memory,6,,,,,,,00507940519fa.jpg,,,,,,,,,,,,,,,
329,14,Memory,6,,,,,,,00705941205fa.jpg,,,,,,,,,,,,,,,
330,14,Memory,6,,,,,,,sunarfdklgdnjgeqfjg.jpg,,,,,,,,,,,,,,,
331,14,Memory,6,,,,,,,sunacacflqoyxhsqzhe.jpg,,,,,,,,,,,,,,,
332,14,Memory,6,,,,,,,sunauburywlkjszngcq.jpg,,,,,,,,,,,,,,,
333,14,Memory,6,,,,,,,sunagtumacdlmciqamz.jpg,,,,,,,,,,,,,,,
334,14,Memory,6,,,,,,,00905960530fa.jpg,,,,,,,,,,,,,,,
335,14,Memory,6,,,,,,,00754941201fa.jpg,,,,,,,,,,,,,,,
336,14,Memory,6,,,,,,,00784941205fb.jpg,,,,,,,,,,,,,,,
337,14,Memory,6,,,,,,,sunanmoqeyprjjjfxjt.jpg,,,,,,,,,,,,,,,
338,14,Memory,6,,,,,,,00889960530fa.jpg,,,,,,,,,,,,,,,
339,14,Memory,6,,,,,,,sunabzjxlmkwnwzimua.jpg,,,,,,,,,,,,,,,
340,14,Memory,6,,,,,,,sunagjeesomrwjsfqie.jpg,,,,,,,,,,,,,,,
341,14,Memory,6,,,,,,,sunaffgsyyvoqdlkmnk.jpg,,,,,,,,,,,,,,,
342,14,Memory,6,,,,,,,00795941205fa.jpg,,,,,,,,,,,,,,,
343,14,Memory,6,,,,,,,00984960627fa.jpg,,,,,,,,,,,,,,,
344,14,Memory,6,,,,,,,00955960627fb.jpg,,,,,,,,,,,,,,,
345,14,Memory,6,,,,,,,sunaazzyhbvqjpmazjq.jpg,,,,,,,,,,,,,,,
346,14,Memory,6,,,,,,,00942960627fa.jpg,,,,,,,,,,,,,,,
347,14,Memory,6,,,,,,,sunbwyuesflwdpqtgoy.jpg,,,,,,,,,,,,,,,
348,14,Memory,6,,,,,,,sunaddsaeicthrfbkhe.jpg,,,,,,,,,,,,,,,
349,14,Memory,6,,,,,,,00675941121fa.jpg,,,,,,,,,,,,,,,
350,14,Presentation,7,00147931230fb_sunaatpkocdkocwxpkb.jpg,00841940307fa_sunaisiwfgppimtnmxl.jpg,00147931230fb.jpg,sunaatpkocdkocwxpkb.jpg,00841940307fa.jpg,sunaisiwfgppimtnmxl.jpg,,,<,Place,,,,,0,,,,,,,o
351,14,Presentation,7,00227940128fa_sunabckqabszusgcykj.jpg,00857940307fa_sunaiwfobocrruqznsv.jpg,00227940128fa.jpg,sunabckqabszusgcykj.jpg,00857940307fa.jpg,sunaiwfobocrruqznsv.jpg,,,>,Face,,,,,1,,,,,,,o
352,14,Presentation,7,00280940422fb_sunabohxbskznglnrhv.jpg,00589940928fa_sunacwggadqsfpovdjv.jpg,00280940422fb.jpg,sunabohxbskznglnrhv.jpg,00589940928fa.jpg,sunacwggadqsfpovdjv.jpg,,,>,Face,,,,,1,,,,,,,o
353,14,Presentation,7,00263940128fb_sunabjuovqvyfuzvqwt.jpg,00631940928fa_sunadbdqzigzwipuipr.jpg,00263940128fb.jpg,sunabjuovqvyfuzvqwt.jpg,00631940928fa.jpg,sunadbdqzigzwipuipr.jpg,,,>,Place,,,,,1,,,,,,,x
354,14,Presentation,7,00073931230fa_sunaafbmtoniaasysgu.jpg,00479940519fa_sunabxsbfwjccqxxzxq.jpg,00073931230fa.jpg,sunaafbmtoniaasysgu.jpg,00479940519fa.jpg,sunabxsbfwjccqxxzxq.jpg,,,<,Face,,,,,1,,,,,,,o
355,14,Presentation,7,00792941205fa_sunagsiwrmuixqgdimb.jpg,00869940307fa_sunajoveqhiprwqgoco.jpg,00792941205fa.jpg,sunagsiwrmuixqgdimb.jpg,00869940307fa.jpg,sunajoveqhiprwqgoco.jpg,,,<,Place,,,,,1,,,,,,,x
356,14,Presentation,7,00096931230fa_sunaaiqiqcggrskoqgy.jpg,00749941201fa_sunaeuvjbmdpknaqqaj.jpg,00096931230fa.jpg,sunaaiqiqcggrskoqgy.jpg,00749941201fa.jpg,sunaeuvjbmdpknaqqaj.jpg,,,>,Place,,,,,1,,,,,,,x
357,14,Presentation,7,00095931230fa_sunaahzooisqkwlxwoz.jpg,00909960530_sunaobtizabegtwfwul.jpg,00095931230fa.jpg,sunaahzooisqkwlxwoz.jpg,00909960530.jpg,sunaobtizabegtwfwul.jpg,,,<,Face,,,,,1,,,,,,,o
358,14,Presentation,7,00138931230fa_sunaapfaivxqoynnwwp.jpg,00858940307fa_sunaixpqndlwhwjtjek.jpg,00138931230fa.jpg,sunaapfaivxqoynnwwp.jpg,00858940307fa.jpg,sunaixpqndlwhwjtjek.jpg,,,<,Place,,,,,1,,,,,,,x
359,14,Presentation,7,00090931230fa_sunaahedjlmtqekgyvj.jpg,00720960620fa_sunaecpkgfewqqreqwe.jpg,00090931230fa.jpg,sunaahedjlmtqekgyvj.jpg,00720960620fa.jpg,sunaecpkgfewqqreqwe.jpg,,,>,Face,,,,,1,,,,,,,x
360,14,Memory,7,,,,,,,sunafgdqbclkwfocdhg.jpg,,,,,,,,,,,,,,,
361,14,Memory,7,,,,,,,00149931230fa.jpg,,,,,,,,,,,,,,,
362,14,Memory,7,,,,,,,sunaaexqbtdswxrqjvz.jpg,,,,,,,,,,,,,,,
363,14,Memory,7,,,,,,,sunaatpkocdkocwxpkb.jpg,,,,,,,,,,,,,,,
364,14,Memory,7,,,,,,,00761960627fa.jpg,,,,,,,,,,,,,,,
365,14,Memory,7,,,,,,,00841940307fa.jpg,,,,,,,,,,,,,,,
366,14,Memory,7,,,,,,,sunaapfaivxqoynnwwp.jpg,,,,,,,,,,,,,,,
367,14,Memory,7,,,,,,,00071941031fa.jpg,,,,,,,,,,,,,,,
368,14,Memory,7,,,,,,,sunbtpilbhhbmhmeuzq.jpg,,,,,,,,,,,,,,,
369,14,Memory,7,,,,,,,sunaobtizabegtwfwul.jpg,,,,,,,,,,,,,,,
370,14,Memory,7,,,,,,,00073931230fa.jpg,,,,,,,,,,,,,,,
371,14,Memory,7,,,,,,,sunaauglwmctnkxyird.jpg,,,,,,,,,,,,,,,
372,14,Memory,7,,,,,,,00663941121fa.jpg,,,,,,,,,,,,,,,
373,14,Memory,7,,,,,,,00631940928fa.jpg,,,,,,,,,,,,,,,
374,14,Memory,7,,,,,,,sunaahzooisqkwlxwoz.jpg,,,,,,,,,,,,,,,
375,14,Memory,7,,,,,,,sunabxsbfwjccqxxzxq.jpg,,,,,,,,,,,,,,,
376,14,Memory,7,,,,,,,00096931230fa.jpg,,,,,,,,,,,,,,,
377,14,Memory,7,,,,,,,00997960627fa.jpg,,,,,,,,,,,,,,,
378,14,Memory,7,,,,,,,00076931230fa.jpg,,,,,,,,,,,,,,,
379,14,Memory,7,,,,,,,00479940519fa.jpg,,,,,,,,,,,,,,,
380,14,Memory,7,,,,,,,00095931230fa.jpg,,,,,,,,,,,,,,,
381,14,Memory,7,,,,,,,00630941031fa.jpg,,,,,,,,,,,,,,,
382,14,Memory,7,,,,,,,sunaajpqmulidejvjsr.jpg,,,,,,,,,,,,,,,
383,14,Memory,7,,,,,,,sunaaiqiqcggrskoqgy.jpg,,,,,,,,,,,,,,,
384,14,Memory,7,,,,,,,00138931230fa.jpg,,,,,,,,,,,,,,,
385,14,Memory,7,,,,,,,00858940307fa.jpg,,,,,,,,,,,,,,,
386,14,Memory,7,,,,,,,sunaixpqndlwhwjtjek.jpg,,,,,,,,,,,,,,,
387,14,Memory,7,,,,,,,sunadakkdovnuzlycvp.jpg,,,,,,,,,,,,,,,
388,14,Memory,7,,,,,,,00909960530.jpg,,,,,,,,,,,,,,,
389,14,Memory,7,,,,,,,00147931230fb.jpg,,,,,,,,,,,,,,,
390,14,Memory,7,,,,,,,sunaafbmtoniaasysgu.jpg,,,,,,,,,,,,,,,
391,14,Memory,7,,,,,,,sunbaejotfklekvpxcz.jpg,,,,,,,,,,,,,,,
392,14,Memory,7,,,,,,,sunaczwgyukesaajxnx.jpg,,,,,,,,,,,,,,,
393,14,Memory,7,,,,,,,sunadnjjzohjhbohlwq.jpg,,,,,,,,,,,,,,,
394,14,Memory,7,,,,,,,00630940928fa.jpg,,,,,,,,,,,,,,,
395,14,Memory,7,,,,,,,sunaafewhewbxmjiurz.jpg,,,,,,,,,,,,,,,
396,14,Memory,7,,,,,,,sunadbdqzigzwipuipr.jpg,,,,,,,,,,,,,,,
397,14,Memory,7,,,,,,,sunaisiwfgppimtnmxl.jpg,,,,,,,,,,,,,,,
398,14,Memory,7,,,,,,,00098931230fa.jpg,,,,,,,,,,,,,,,
399,14,Memory,7,,,,,,,00967960627fa.jpg,,,,,,,,,,,,,,,
