,Subject,Trial Type,Run,Cued Composite,Uncued Composite,Cued Face,Cued Place,Uncued Face,Uncued Place,Memory Image,Category,Cued Side,Cued Category,Attention Reaction Time (s),Familiarity Reaction Time (s),Familiarity Rating,Attention Level,Cue Validity,Post Invalid Cue,Pre Invalid Cue,Attention Button,Rating History,Stimulus Onset,Stimulus End,Attention Probe
210,14,Memory,4,,,,,,,sunaaeplwsfslcbtojr.jpg,,,,,1.587,2.0,,,,,,,1553884488.198353,1553884490.24622,
211,14,Memory,4,,,,,,,00999960627fa.jpg,,,,,0.899,3.0,,,,,,,1553884491.532683,1553884493.494466,
212,14,Memory,4,,,,,,,sunaajspcoepticvplv.jpg,,,,,1.153,4.0,,,,,,,1553884494.751415,1553884496.713955,
213,14,Memory,4,,,,,,,sunayaepykrqvenaqqy.jpg,,,,,1.816,1.0,,,,,,,1553884497.980733,1553884499.950182,
214,14,Memory,4,,,,,,,00965960627fa.jpg,,,,,0.934,3.0,,,,,,,1553884501.214745,1553884503.184247,
215,14,Memory,4,,,,,,,sunaknlirqjqiwbbeeg.jpg,,,,,0.618,4.0,,,,,,,1553884504.449066,1553884506.449835,
216,14,Memory,4,,,,,,,sunavhxgmgrqsaptynb.jpg,,,,,0.952,3.0,,,,,,,1553884507.700042,1553884509.750383,
217,14,Memory,4,,,,,,,00102931230fa.jpg,,,,,0.925,3.0,,,,,,,1553884511.055628,1553884513.684996,
218,14,Memory,4,,,,,,,00130931230fa.jpg,,,,,1.367,2.0,,,,,,,1553884514.940471,1553884517.068921,
219,14,Memory,4,,,,,,,00921960627fa.jpg,,,,,0.876,1.0,,,,,,,1553884518.358009,1553884520.697368,
220,14,Memory,4,,,,,,,sunapqkyghktgtosuuk.jpg,,,,,1.508,3.0,,,,,,,1553884522.009725,1553884524.361459,
221,14,Memory,4,,,,,,,sunaooaqzputrowwbsw.jpg,,,,,1.258,2.0,,,,,,,1553884525.643209,1553884528.32332,
222,14,Memory,4,,,,,,,00070940307fa.jpg,,,,,2.092,3.0,,,,,,,1553884529.594771,1553884531.974469,
223,14,Memory,4,,,,,,,sunadfktsqjthoglcsm.jpg,,,,,0.927,4.0,,,,,,,1553884533.296241,1553884535.833881,
224,14,Memory,4,,,,,,,sunapqkpqdfvxlbqwyo.jpg,,,,,1.176,3.0,,,,,,,1553884537.114166,1553884539.377777,
225,14,Memory,4,,,,,,,sunaffstbkappprzxnv.jpg,,,,,1.159,3.0,,,,,,,1553884540.665092,1553884543.178272,
226,14,Memory,4,,,,,,,00882960530fa.jpg,,,,,0.925,3.0,,,,,,,1553884544.467377,1553884546.816836,
227,14,Memory,4,,,,,,,sunaydywdmvlfddbxbk.jpg,,,,,0.942,2.0,,,,,,,1553884548.084878,1553884550.490215,
228,14,Memory,4,,,,,,,00959960627fa.jpg,,,,,0.909,2.0,,,,,,,1553884551.752119,1553884554.124123,
229,14,Memory,4,,,,,,,00265940128fb.jpg,,,,,0.808,3.0,,,,,,,1553884555.403373,1553884558.157191,
230,14,Memory,4,,,,,,,00193940928fa.jpg,,,,,1.793,2.0,,,,,,,1553884559.438671,1553884561.967141,
231,14,Memory,4,,,,,,,00957960627fa.jpg,,,,,1.526,3.0,,,,,,,1553884563.238728,1553884565.835685,
232,14,Memory,4,,,,,,,00922960627fa.jpg,,,,,0.791,3.0,,,,,,,1553884567.107756,1553884569.475833,
233,14,Memory,4,,,,,,,sunavxokzybtomhbmvm.jpg,,,,,0.824,4.0,,,,,,,1553884570.792308,1553884573.010631,
234,14,Memory,4,,,,,,,00778941205fa.jpg,,,,,0.76,3.0,,,,,,,1553884574.309608,1553884577.177585,
235,14,Memory,4,,,,,,,sunaofikylqtxphvdem.jpg,,,,,1.823,4.0,,,,,,,1553884578.477344,1553884581.073252,
236,14,Memory,4,,,,,,,00647941031fa.jpg,,,,,0.808,3.0,,,,,,,1553884582.361938,1553884585.008339,
237,14,Memory,4,,,,,,,sunadflbrkckmepztql.jpg,,,,,0.958,1.0,,,,,,,1553884586.297037,1553884588.663451,
238,14,Memory,4,,,,,,,sunabkmdplkdbvxriff.jpg,,,,,1.993,2.0,,,,,,,1553884589.965305,1553884592.882237,
239,14,Memory,4,,,,,,,sunaamvxnvouicstkjb.jpg,,,,,0.809,1.0,,,,,,,1553884594.183227,1553884596.66362,
240,14,Memory,4,,,,,,,sunafhmnhsdurlvddpw.jpg,,,,,2.608,1.0,,,,,,,1553884597.933679,1553884600.847375,
241,14,Memory,4,,,,,,,sunaaxjpzcnxligjtjq.jpg,,,,,1.243,3.0,,,,,,,1553884602.167936,1553884604.46528,
242,14,Memory,4,,,,,,,00963960627fa.jpg,,,,,2.008,3.0,,,,,,,1553884605.752946,1553884608.469229,
243,14,Memory,4,,,,,,,sunagcthdfirrcawoic.jpg,,,,,1.058,2.0,,,,,,,1553884609.771282,1553884612.538246,
244,14,Memory,4,,,,,,,00911960530fa.jpg,,,,,0.541,1.0,,,,,,,1553884613.83868,1553884616.102438,
245,14,Memory,4,,,,,,,00763941205fa.jpg,,,,,0.926,1.0,,,,,,,1553884617.389663,1553884620.019535,
246,14,Memory,4,,,,,,,sunbvbrvgbpanfrawft.jpg,,,,,1.293,4.0,,,,,,,1553884621.307885,1553884624.020891,
247,14,Memory,4,,,,,,,00910960530fa.jpg,,,,,0.892,1.0,,,,,,,1553884625.293304,1553884627.777779,
248,14,Memory,4,,,,,,,00638941031fa.jpg,,,,,0.759,1.0,,,,,,,1553884629.078282,1553884631.777584,
249,14,Memory,4,,,,,,,00760960620fa.jpg,,,,,0.575,1.0,,,,,,,1553884633.062431,1553884635.44973,
