,Subject,Trial Type,Run,Cued Composite,Uncued Composite,Cued Face,Cued Place,Uncued Face,Uncued Place,Memory Image,Category,Cued Side,Cued Category,Attention Response Time (s),Familiarity Reaction Time (s),Familiarity Rating,Attention Level,Cue Validity,Post Invalid Cue,Pre Invalid Cue,Attention Button,Rating History,Stimulus Onset,Stimulus End,Attention Probe
0,19,Presentation,0,00218940128fa_sunabbwggenhfbftyvi.jpg,00108960530fa_sunaajtnvzzpsjdzres.jpg,00218940128fa.jpg,sunabbwggenhfbftyvi.jpg,00108960530fa.jpg,sunaajtnvzzpsjdzres.jpg,,,<,Place,,,,,1,,,,,,,o
1,19,Presentation,0,00290940422fa_sunabqowuarvqqcnipn.jpg,00910960530fa_sunaofikylqtxphvdem.jpg,00290940422fa.jpg,sunabqowuarvqqcnipn.jpg,00910960530fa.jpg,sunaofikylqtxphvdem.jpg,,,<,Place,,,,,1,,,,,,,x
2,19,Presentation,0,00898960530fa_sunamkmeblgteyggink.jpg,00264940128fb_sunabjzyxcjnmztdonj.jpg,00898960530fa.jpg,sunamkmeblgteyggink.jpg,00264940128fb.jpg,sunabjzyxcjnmztdonj.jpg,,,<,Place,,,,,1,,,,,,,x
3,19,Presentation,0,00730960620fa_sunaekgzpfilgjxpeyq.jpg,00785941205fa_sunaglqunwuycxydmyu.jpg,00730960620fa.jpg,sunaekgzpfilgjxpeyq.jpg,00785941205fa.jpg,sunaglqunwuycxydmyu.jpg,,,<,Place,,,,,1,,,,,,,x
4,19,Presentation,0,00302940422fa_sunabtlfmiwtljmoues.jpg,00967960627fa_sunbaejotfklekvpxcz.jpg,00302940422fa.jpg,sunabtlfmiwtljmoues.jpg,00967960627fa.jpg,sunbaejotfklekvpxcz.jpg,,,<,Place,,,,,1,,,,,,,o
5,19,Presentation,0,00070940307fa_sunaaeplwsfslcbtojr.jpg,00766960620fa_sunafijbgncijwykrnl.jpg,00070940307fa.jpg,sunaaeplwsfslcbtojr.jpg,00766960620fa.jpg,sunafijbgncijwykrnl.jpg,,,<,Place,,,,,1,,,,,,,x
6,19,Presentation,0,00481940519fa_sunabxsuqbleluwczoy.jpg,00562941031fa_sunacjnahdmqfnjfwqx.jpg,00481940519fa.jpg,sunabxsuqbleluwczoy.jpg,00562941031fa.jpg,sunacjnahdmqfnjfwqx.jpg,,,<,Place,,,,,1,,,,,,,x
7,19,Presentation,0,00953960627fa_sunatstrpjxhvtbaczf.jpg,00877960530fa_sunajxpkuhbizeveguy.jpg,00953960627fa.jpg,sunatstrpjxhvtbaczf.jpg,00877960530fa.jpg,sunajxpkuhbizeveguy.jpg,,,<,Place,,,,,1,,,,,,,o
8,19,Presentation,0,00999960627fa_sunbvbrvgbpanfrawft.jpg,00786941205fa_sunagmhildamktmqjss.jpg,00999960627fa.jpg,sunbvbrvgbpanfrawft.jpg,00786941205fa.jpg,sunagmhildamktmqjss.jpg,,,<,Place,,,,,1,,,,,,,o
9,19,Presentation,0,00949960627fb_sunasnqkkyhilqkxiqm.jpg,00235940128fb_sunabclssnoeuigtawp.jpg,00949960627fb.jpg,sunasnqkkyhilqkxiqm.jpg,00235940128fb.jpg,sunabclssnoeuigtawp.jpg,,,<,Place,,,,,1,,,,,,,x
10,19,Memory,0,,,,,,,sunaglqunwuycxydmyu.jpg,,,,,,,,,,,,,,,
11,19,Memory,0,,,,,,,sunafijbgncijwykrnl.jpg,,,,,,,,,,,,,,,
12,19,Memory,0,,,,,,,sunagmhildamktmqjss.jpg,,,,,,,,,,,,,,,
13,19,Memory,0,,,,,,,sunahqrxievfeusiqlt.jpg,,,,,,,,,,,,,,,
14,19,Memory,0,,,,,,,00302940422fa.jpg,,,,,,,,,,,,,,,
15,19,Memory,0,,,,,,,sunasnqkkyhilqkxiqm.jpg,,,,,,,,,,,,,,,
16,19,Memory,0,,,,,,,sunaekgzpfilgjxpeyq.jpg,,,,,,,,,,,,,,,
17,19,Memory,0,,,,,,,00910960530fa.jpg,,,,,,,,,,,,,,,
18,19,Memory,0,,,,,,,00745941205fa.jpg,,,,,,,,,,,,,,,
19,19,Memory,0,,,,,,,00481940519fa.jpg,,,,,,,,,,,,,,,
20,19,Memory,0,,,,,,,00786941205fa.jpg,,,,,,,,,,,,,,,
21,19,Memory,0,,,,,,,sunabjzyxcjnmztdonj.jpg,,,,,,,,,,,,,,,
22,19,Memory,0,,,,,,,00783941205fa.jpg,,,,,,,,,,,,,,,
23,19,Memory,0,,,,,,,sunaahedjlmtqekgyvj.jpg,,,,,,,,,,,,,,,
24,19,Memory,0,,,,,,,00198940128fb.jpg,,,,,,,,,,,,,,,
25,19,Memory,0,,,,,,,00785941205fa.jpg,,,,,,,,,,,,,,,
26,19,Memory,0,,,,,,,00620940928fa.jpg,,,,,,,,,,,,,,,
27,19,Memory,0,,,,,,,00124931230fa.jpg,,,,,,,,,,,,,,,
28,19,Memory,0,,,,,,,00949960627fb.jpg,,,,,,,,,,,,,,,
29,19,Memory,0,,,,,,,sunaalhlvzmjmitybdn.jpg,,,,,,,,,,,,,,,
30,19,Memory,0,,,,,,,00725941201fa.jpg,,,,,,,,,,,,,,,
31,19,Memory,0,,,,,,,sunaazezcsunmhttzxz.jpg,,,,,,,,,,,,,,,
32,19,Memory,0,,,,,,,00898960530fa.jpg,,,,,,,,,,,,,,,
33,19,Memory,0,,,,,,,00090931230fa.jpg,,,,,,,,,,,,,,,
34,19,Memory,0,,,,,,,sunadqmjrhfjyuzyvdd.jpg,,,,,,,,,,,,,,,
35,19,Memory,0,,,,,,,sunacbeefkxpymwevpk.jpg,,,,,,,,,,,,,,,
36,19,Memory,0,,,,,,,sunaefgzwiramypjvtd.jpg,,,,,,,,,,,,,,,
37,19,Memory,0,,,,,,,sunabxsuqbleluwczoy.jpg,,,,,,,,,,,,,,,
38,19,Memory,0,,,,,,,sunagjeesomrwjsfqie.jpg,,,,,,,,,,,,,,,
39,19,Memory,0,,,,,,,00730960620fa.jpg,,,,,,,,,,,,,,,
40,19,Memory,0,,,,,,,00681941121fa.jpg,,,,,,,,,,,,,,,
41,19,Memory,0,,,,,,,sunaeouogqolxvggaoq.jpg,,,,,,,,,,,,,,,
42,19,Memory,0,,,,,,,sunabtlfmiwtljmoues.jpg,,,,,,,,,,,,,,,
43,19,Memory,0,,,,,,,sunamkmeblgteyggink.jpg,,,,,,,,,,,,,,,
44,19,Memory,0,,,,,,,00529940519fa.jpg,,,,,,,,,,,,,,,
45,19,Memory,0,,,,,,,00264940128fb.jpg,,,,,,,,,,,,,,,
46,19,Memory,0,,,,,,,00766960620fa.jpg,,,,,,,,,,,,,,,
47,19,Memory,0,,,,,,,00822940307fa.jpg,,,,,,,,,,,,,,,
48,19,Memory,0,,,,,,,sunaofikylqtxphvdem.jpg,,,,,,,,,,,,,,,
49,19,Memory,0,,,,,,,sunacypmnujalygkunp.jpg,,,,,,,,,,,,,,,
50,19,Presentation,1,00694941121fa_sunadrmfzmstgdjdcod.jpg,00093931230fa_sunaahwnmtqsrhocysw.jpg,00694941121fa.jpg,sunadrmfzmstgdjdcod.jpg,00093931230fa.jpg,sunaahwnmtqsrhocysw.jpg,,,>,Face,,,,,1,,,,,,,x
51,19,Presentation,1,00838940307fa_sunaiozxhxgtfrmoagh.jpg,00197940128fa_sunaaylzyqlqrsmfwif.jpg,00838940307fa.jpg,sunaiozxhxgtfrmoagh.jpg,00197940128fa.jpg,sunaaylzyqlqrsmfwif.jpg,,,>,Face,,,,,1,,,,,,,o
52,19,Presentation,1,00267940128fb_sunablfqiwfqomjarht.jpg,00719960620fa_sunadzuvtmtmgupotmf.jpg,00267940128fb.jpg,sunablfqiwfqomjarht.jpg,00719960620fa.jpg,sunadzuvtmtmgupotmf.jpg,,,>,Face,,,,,1,,,,,,,x
53,19,Presentation,1,00210940128fb_sunabanoxjtqxamkucc.jpg,00768941205fa_sunafkmnlytenlsywia.jpg,00210940128fb.jpg,sunabanoxjtqxamkucc.jpg,00768941205fa.jpg,sunafkmnlytenlsywia.jpg,,,>,Face,,,,,1,,,,,,,x
54,19,Presentation,1,00851940307fa_sunaivflshbyfrfzhqb.jpg,00789960620fa_sunagpancjmxqfazssf.jpg,00851940307fa.jpg,sunaivflshbyfrfzhqb.jpg,00789960620fa.jpg,sunagpancjmxqfazssf.jpg,,,>,Face,,,,,1,,,,,,,o
55,19,Presentation,1,00266940128fb_sunabkngeblodihjvbk.jpg,00795941205fa_sunagtumacdlmciqamz.jpg,00266940128fb.jpg,sunabkngeblodihjvbk.jpg,00795941205fa.jpg,sunagtumacdlmciqamz.jpg,,,>,Face,,,,,1,,,,,,,o
56,19,Presentation,1,00727941205fa_sunaeisnjeetzmkbuad.jpg,00876960620fa_sunajwqkfsykceonyig.jpg,00727941205fa.jpg,sunaeisnjeetzmkbuad.jpg,00876960620fa.jpg,sunajwqkfsykceonyig.jpg,,,>,Face,,,,,1,,,,,,,x
57,19,Presentation,1,00498960627fa_sunabzjxlmkwnwzimua.jpg,00987960627fa_sunbloeoiozwjjsiamp.jpg,00498960627fa.jpg,sunabzjxlmkwnwzimua.jpg,00987960627fa.jpg,sunbloeoiozwjjsiamp.jpg,,,>,Face,,,,,1,,,,,,,o
58,19,Presentation,1,00115931230fa_sunaakmxzhuceuiryah.jpg,00675941121fa_sunadoxcchtmsxewsau.jpg,00115931230fa.jpg,sunaakmxzhuceuiryah.jpg,00675941121fa.jpg,sunadoxcchtmsxewsau.jpg,,,>,Face,,,,,1,,,,,,,x
59,19,Presentation,1,00723941201fa_sunaedtgwjvvziytspa.jpg,00943960627fa_sunarpsxqkduedrrzyi.jpg,00723941201fa.jpg,sunaedtgwjvvziytspa.jpg,00943960627fa.jpg,sunarpsxqkduedrrzyi.jpg,,,>,Face,,,,,1,,,,,,,x
60,19,Memory,1,,,,,,,sunacepzfrmtkiqonpy.jpg,,,,,,,,,,,,,,,
61,19,Memory,1,,,,,,,00851940307fa.jpg,,,,,,,,,,,,,,,
62,19,Memory,1,,,,,,,sunablfqiwfqomjarht.jpg,,,,,,,,,,,,,,,
63,19,Memory,1,,,,,,,sunajwqkfsykceonyig.jpg,,,,,,,,,,,,,,,
64,19,Memory,1,,,,,,,00221940128fa.jpg,,,,,,,,,,,,,,,
65,19,Memory,1,,,,,,,00115931230fa.jpg,,,,,,,,,,,,,,,
66,19,Memory,1,,,,,,,00955960627fb.jpg,,,,,,,,,,,,,,,
67,19,Memory,1,,,,,,,sunaivflshbyfrfzhqb.jpg,,,,,,,,,,,,,,,
68,19,Memory,1,,,,,,,sunaakmxzhuceuiryah.jpg,,,,,,,,,,,,,,,
69,19,Memory,1,,,,,,,sunadzuvtmtmgupotmf.jpg,,,,,,,,,,,,,,,
70,19,Memory,1,,,,,,,sunahctntqrunhdxhtb.jpg,,,,,,,,,,,,,,,
71,19,Memory,1,,,,,,,00763941205fa.jpg,,,,,,,,,,,,,,,
72,19,Memory,1,,,,,,,sunasrjlmglmjzbmqxb.jpg,,,,,,,,,,,,,,,
73,19,Memory,1,,,,,,,00933960627fa.jpg,,,,,,,,,,,,,,,
74,19,Memory,1,,,,,,,00727941205fa.jpg,,,,,,,,,,,,,,,
75,19,Memory,1,,,,,,,sunaahwnmtqsrhocysw.jpg,,,,,,,,,,,,,,,
76,19,Memory,1,,,,,,,sunbloeoiozwjjsiamp.jpg,,,,,,,,,,,,,,,
77,19,Memory,1,,,,,,,sunaeisnjeetzmkbuad.jpg,,,,,,,,,,,,,,,
78,19,Memory,1,,,,,,,00543940519fa.jpg,,,,,,,,,,,,,,,
79,19,Memory,1,,,,,,,sunabcfpwlpolnutyju.jpg,,,,,,,,,,,,,,,
80,19,Memory,1,,,,,,,00876960620fa.jpg,,,,,,,,,,,,,,,
81,19,Memory,1,,,,,,,00943960627fa.jpg,,,,,,,,,,,,,,,
82,19,Memory,1,,,,,,,sunarpsxqkduedrrzyi.jpg,,,,,,,,,,,,,,,
83,19,Memory,1,,,,,,,00267940128fb.jpg,,,,,,,,,,,,,,,
84,19,Memory,1,,,,,,,sunauburywlkjszngcq.jpg,,,,,,,,,,,,,,,
85,19,Memory,1,,,,,,,00210940128fb.jpg,,,,,,,,,,,,,,,
86,19,Memory,1,,,,,,,sunaejnvnpltdmhbcsi.jpg,,,,,,,,,,,,,,,
87,19,Memory,1,,,,,,,00728941205fa.jpg,,,,,,,,,,,,,,,
88,19,Memory,1,,,,,,,sunafhmnhsdurlvddpw.jpg,,,,,,,,,,,,,,,
89,19,Memory,1,,,,,,,sunaauhozyxzeeqstxi.jpg,,,,,,,,,,,,,,,
90,19,Memory,1,,,,,,,00576941031fa.jpg,,,,,,,,,,,,,,,
91,19,Memory,1,,,,,,,00810941205fa.jpg,,,,,,,,,,,,,,,
92,19,Memory,1,,,,,,,sunabanoxjtqxamkucc.jpg,,,,,,,,,,,,,,,
93,19,Memory,1,,,,,,,sunapwjkcxdaeqehfql.jpg,,,,,,,,,,,,,,,
94,19,Memory,1,,,,,,,sunacvjlsylseoghjup.jpg,,,,,,,,,,,,,,,
95,19,Memory,1,,,,,,,00093931230fa.jpg,,,,,,,,,,,,,,,
96,19,Memory,1,,,,,,,00987960627fa.jpg,,,,,,,,,,,,,,,
97,19,Memory,1,,,,,,,00153931230fa.jpg,,,,,,,,,,,,,,,
98,19,Memory,1,,,,,,,00950960627fa.jpg,,,,,,,,,,,,,,,
99,19,Memory,1,,,,,,,00719960620fa.jpg,,,,,,,,,,,,,,,
100,19,Presentation,2,00270940422fb_sunabllobxadqcyttej.jpg,00316940422fa_sunabxmguapjekttvwm.jpg,00270940422fb.jpg,sunabllobxadqcyttej.jpg,00316940422fa.jpg,sunabxmguapjekttvwm.jpg,,,<,Face,,,,,1,,,,,,,o
101,19,Presentation,2,00990960627fa_sunbpflsdaxnddnwcqi.jpg,00777941205fa_sunagcinxkccdtrjmlv.jpg,00990960627fa.jpg,sunbpflsdaxnddnwcqi.jpg,00777941205fa.jpg,sunagcinxkccdtrjmlv.jpg,,,<,Face,,,,,1,,,,,,,o
102,19,Presentation,2,00761960627fa_sunafgdqbclkwfocdhg.jpg,00902960530fa_sunanaacmmosxrfwmvl.jpg,00761960627fa.jpg,sunafgdqbclkwfocdhg.jpg,00902960530fa.jpg,sunanaacmmosxrfwmvl.jpg,,,<,Face,,,,,1,,,,,,,o
103,19,Presentation,2,00185940422fb_sunaawqdbpihmlbwyyn.jpg,01011960627fa_sundahdxwmcdluscvot.jpg,00185940422fb.jpg,sunaawqdbpihmlbwyyn.jpg,01011960627fa.jpg,sundahdxwmcdluscvot.jpg,,,<,Face,,,,,1,,,,,,,x
104,19,Presentation,2,00773960620fa_sunafvsxtzaizojicxx.jpg,00784941205fb_sunagjzcrjvmxzqzljx.jpg,00773960620fa.jpg,sunafvsxtzaizojicxx.jpg,00784941205fb.jpg,sunagjzcrjvmxzqzljx.jpg,,,<,Face,,,,,1,,,,,,,o
105,19,Presentation,2,00650941031fa_sunadikxpvqeabxrvvc.jpg,00858940307fa_sunaixpqndlwhwjtjek.jpg,00650941031fa.jpg,sunadikxpvqeabxrvvc.jpg,00858940307fa.jpg,sunaixpqndlwhwjtjek.jpg,,,<,Face,,,,,1,,,,,,,o
106,19,Presentation,2,00929960627fa_sunaprnrbmgkomdbchr.jpg,01003960627fb_sunbwdrdvsweerwsdrj.jpg,00929960627fa.jpg,sunaprnrbmgkomdbchr.jpg,01003960627fb.jpg,sunbwdrdvsweerwsdrj.jpg,,,<,Face,,,,,0,,,,,,,x
107,19,Presentation,2,00973960627fa_sunbbgtoeuzierkkajt.jpg,00960960627fa_sunawksfbacycuhbrsc.jpg,00973960627fa.jpg,sunbbgtoeuzierkkajt.jpg,00960960627fa.jpg,sunawksfbacycuhbrsc.jpg,,,<,Face,,,,,1,,,,,,,o
108,19,Presentation,2,00313940422fa_sunabwjvmoaddlyxfjr.jpg,00942960627fa_sunarfdklgdnjgeqfjg.jpg,00313940422fa.jpg,sunabwjvmoaddlyxfjr.jpg,00942960627fa.jpg,sunarfdklgdnjgeqfjg.jpg,,,<,Face,,,,,1,,,,,,,o
109,19,Presentation,2,01004960627fa_sunbwtlihsuptkrckid.jpg,00779941205fa_sunagdzlvkqtpnfxfcg.jpg,01004960627fa.jpg,sunbwtlihsuptkrckid.jpg,00779941205fa.jpg,sunagdzlvkqtpnfxfcg.jpg,,,<,Face,,,,,1,,,,,,,o
110,19,Memory,2,,,,,,,00847940307fa.jpg,,,,,,,,,,,,,,,
111,19,Memory,2,,,,,,,sunabllobxadqcyttej.jpg,,,,,,,,,,,,,,,
112,19,Memory,2,,,,,,,00184940128fa.jpg,,,,,,,,,,,,,,,
113,19,Memory,2,,,,,,,00902960530fa.jpg,,,,,,,,,,,,,,,
114,19,Memory,2,,,,,,,sunaivdjruhkrfywfed.jpg,,,,,,,,,,,,,,,
115,19,Memory,2,,,,,,,00903960620fa.jpg,,,,,,,,,,,,,,,
116,19,Memory,2,,,,,,,00963960627fa.jpg,,,,,,,,,,,,,,,
117,19,Memory,2,,,,,,,sunagdzlvkqtpnfxfcg.jpg,,,,,,,,,,,,,,,
118,19,Memory,2,,,,,,,00858940307fa.jpg,,,,,,,,,,,,,,,
119,19,Memory,2,,,,,,,sunaixpqndlwhwjtjek.jpg,,,,,,,,,,,,,,,
120,19,Memory,2,,,,,,,sunayaepykrqvenaqqy.jpg,,,,,,,,,,,,,,,
121,19,Memory,2,,,,,,,sunaavtbadenwnzeutj.jpg,,,,,,,,,,,,,,,
122,19,Memory,2,,,,,,,00936960627fa.jpg,,,,,,,,,,,,,,,
123,19,Memory,2,,,,,,,00076931230fa.jpg,,,,,,,,,,,,,,,
124,19,Memory,2,,,,,,,00804960530fa.jpg,,,,,,,,,,,,,,,
125,19,Memory,2,,,,,,,sunbpflsdaxnddnwcqi.jpg,,,,,,,,,,,,,,,
126,19,Memory,2,,,,,,,sunagtqhhwxjeuxdebe.jpg,,,,,,,,,,,,,,,
127,19,Memory,2,,,,,,,sunanainkqdvktzoxyl.jpg,,,,,,,,,,,,,,,
128,19,Memory,2,,,,,,,sunagwswhkvnsmuszlz.jpg,,,,,,,,,,,,,,,
129,19,Memory,2,,,,,,,00973960627fa.jpg,,,,,,,,,,,,,,,
130,19,Memory,2,,,,,,,00784941205fb.jpg,,,,,,,,,,,,,,,
131,19,Memory,2,,,,,,,00794960620fa.jpg,,,,,,,,,,,,,,,
132,19,Memory,2,,,,,,,00990960627fa.jpg,,,,,,,,,,,,,,,
133,19,Memory,2,,,,,,,sunbbgtoeuzierkkajt.jpg,,,,,,,,,,,,,,,
134,19,Memory,2,,,,,,,sunaafewhewbxmjiurz.jpg,,,,,,,,,,,,,,,
135,19,Memory,2,,,,,,,00092931230fa.jpg,,,,,,,,,,,,,,,
136,19,Memory,2,,,,,,,sunaprnrbmgkomdbchr.jpg,,,,,,,,,,,,,,,
137,19,Memory,2,,,,,,,00270940422fb.jpg,,,,,,,,,,,,,,,
138,19,Memory,2,,,,,,,sunanaacmmosxrfwmvl.jpg,,,,,,,,,,,,,,,
139,19,Memory,2,,,,,,,00929960627fa.jpg,,,,,,,,,,,,,,,
140,19,Memory,2,,,,,,,sunaqgjuuwvdcyiccjt.jpg,,,,,,,,,,,,,,,
141,19,Memory,2,,,,,,,sunafgdqbclkwfocdhg.jpg,,,,,,,,,,,,,,,
142,19,Memory,2,,,,,,,00966960627fa.jpg,,,,,,,,,,,,,,,
143,19,Memory,2,,,,,,,00960960627fa.jpg,,,,,,,,,,,,,,,
144,19,Memory,2,,,,,,,sunawksfbacycuhbrsc.jpg,,,,,,,,,,,,,,,
145,19,Memory,2,,,,,,,sunaygrtwrwfezqjizr.jpg,,,,,,,,,,,,,,,
146,19,Memory,2,,,,,,,sunagjzcrjvmxzqzljx.jpg,,,,,,,,,,,,,,,
147,19,Memory,2,,,,,,,sunaaheqzstzxuadglu.jpg,,,,,,,,,,,,,,,
148,19,Memory,2,,,,,,,00779941205fa.jpg,,,,,,,,,,,,,,,
149,19,Memory,2,,,,,,,00761960627fa.jpg,,,,,,,,,,,,,,,
150,19,Presentation,3,00915960620fa_sunapileznnbbmrwoei.jpg,00747941201fa_sunaeutbrtswvsozxyk.jpg,00915960620fa.jpg,sunapileznnbbmrwoei.jpg,00747941201fa.jpg,sunaeutbrtswvsozxyk.jpg,,,>,Place,,,,,1,,,,,,,x
151,19,Presentation,3,00554940519fa_sunacfdkbsrughwqwtt.jpg,00574940928fa_sunacvbrcejzwmcgnoq.jpg,00554940519fa.jpg,sunacfdkbsrughwqwtt.jpg,00574940928fa.jpg,sunacvbrcejzwmcgnoq.jpg,,,>,Place,,,,,1,,,,,,,x
152,19,Presentation,3,00984960627fa_sunbfzchmomnvzhbxdg.jpg,00630940928fa_sunaczwgyukesaajxnx.jpg,00984960627fa.jpg,sunbfzchmomnvzhbxdg.jpg,00630940928fa.jpg,sunaczwgyukesaajxnx.jpg,,,>,Place,,,,,1,,,,,,,o
153,19,Presentation,3,00775941205fa_sunafvwfsmqkjrutjta.jpg,00239940128fa_sunabctlikybqabezjv.jpg,00775941205fa.jpg,sunafvwfsmqkjrutjta.jpg,00239940128fa.jpg,sunabctlikybqabezjv.jpg,,,>,Place,,,,,1,,,,,,,o
154,19,Presentation,3,00887960530_sunalcrtwiycqobgelp.jpg,00571940928fa_sunacuatpqpqhyjhjqk.jpg,00887960530.jpg,sunalcrtwiycqobgelp.jpg,00571940928fa.jpg,sunacuatpqpqhyjhjqk.jpg,,,>,Place,,,,,1,,,,,,,x
155,19,Presentation,3,00061931230fb_sunaaekxzjzrfgtkwjf.jpg,00771941205fa_sunafowswglhxcsufpo.jpg,00061931230fb.jpg,sunaaekxzjzrfgtkwjf.jpg,00771941205fa.jpg,sunafowswglhxcsufpo.jpg,,,>,Place,,,,,1,,,,,,,o
156,19,Presentation,3,00112931230fa_sunaakjaacuzulqckgl.jpg,00071941031fa_sunaaexqbtdswxrqjvz.jpg,00112931230fa.jpg,sunaakjaacuzulqckgl.jpg,00071941031fa.jpg,sunaaexqbtdswxrqjvz.jpg,,,>,Place,,,,,1,,,,,,,o
157,19,Presentation,3,00969960627fa_sunbaoizrfijvhpnnjn.jpg,00276940422fa_sunabmytpyhsgigllxu.jpg,00969960627fa.jpg,sunbaoizrfijvhpnnjn.jpg,00276940422fa.jpg,sunabmytpyhsgigllxu.jpg,,,>,Place,,,,,1,,,,,,,x
158,19,Presentation,3,00063931230fa_sunaaelyvurpntclgau.jpg,00836940307fa_sunainqelldeebvxtcz.jpg,00063931230fa.jpg,sunaaelyvurpntclgau.jpg,00836940307fa.jpg,sunainqelldeebvxtcz.jpg,,,>,Place,,,,,1,,,,,,,o
159,19,Presentation,3,00976960627fa_sunbbhqyyzmsxhsbjmp.jpg,00989960627fa_sunbondbduabvijnmch.jpg,00976960627fa.jpg,sunbbhqyyzmsxhsbjmp.jpg,00989960627fa.jpg,sunbondbduabvijnmch.jpg,,,>,Place,,,,,1,,,,,,,x
160,19,Memory,3,,,,,,,00984960627fa.jpg,,,,,,,,,,,,,,,
161,19,Memory,3,,,,,,,sunaakjaacuzulqckgl.jpg,,,,,,,,,,,,,,,
162,19,Memory,3,,,,,,,sunaooaqzputrowwbsw.jpg,,,,,,,,,,,,,,,
163,19,Memory,3,,,,,,,sunainqelldeebvxtcz.jpg,,,,,,,,,,,,,,,
164,19,Memory,3,,,,,,,sunacvzhvcksnwqcqbw.jpg,,,,,,,,,,,,,,,
165,19,Memory,3,,,,,,,sunacuatpqpqhyjhjqk.jpg,,,,,,,,,,,,,,,
166,19,Memory,3,,,,,,,sunafowswglhxcsufpo.jpg,,,,,,,,,,,,,,,
167,19,Memory,3,,,,,,,sunavspxmxubqaeidjt.jpg,,,,,,,,,,,,,,,
168,19,Memory,3,,,,,,,00069931230fb.jpg,,,,,,,,,,,,,,,
169,19,Memory,3,,,,,,,sunacfdkbsrughwqwtt.jpg,,,,,,,,,,,,,,,
170,19,Memory,3,,,,,,,sunammbnoambmhdxdwd.jpg,,,,,,,,,,,,,,,
171,19,Memory,3,,,,,,,00554940519fa.jpg,,,,,,,,,,,,,,,
172,19,Memory,3,,,,,,,sunbdycacjfaujxitbw.jpg,,,,,,,,,,,,,,,
173,19,Memory,3,,,,,,,sunaisiwfgppimtnmxl.jpg,,,,,,,,,,,,,,,
174,19,Memory,3,,,,,,,sunaiwfobocrruqznsv.jpg,,,,,,,,,,,,,,,
175,19,Memory,3,,,,,,,00836940307fa.jpg,,,,,,,,,,,,,,,
176,19,Memory,3,,,,,,,00841940307fa.jpg,,,,,,,,,,,,,,,
177,19,Memory,3,,,,,,,sunbfzchmomnvzhbxdg.jpg,,,,,,,,,,,,,,,
178,19,Memory,3,,,,,,,sunapileznnbbmrwoei.jpg,,,,,,,,,,,,,,,
179,19,Memory,3,,,,,,,00581940928fa.jpg,,,,,,,,,,,,,,,
180,19,Memory,3,,,,,,,00958960627fa.jpg,,,,,,,,,,,,,,,
181,19,Memory,3,,,,,,,sunabgfhvifeijihhjw.jpg,,,,,,,,,,,,,,,
182,19,Memory,3,,,,,,,00071941031fa.jpg,,,,,,,,,,,,,,,
183,19,Memory,3,,,,,,,00901960530fa.jpg,,,,,,,,,,,,,,,
184,19,Memory,3,,,,,,,sunbasypfgzjtomktmu.jpg,,,,,,,,,,,,,,,
185,19,Memory,3,,,,,,,00969960627fa.jpg,,,,,,,,,,,,,,,
186,19,Memory,3,,,,,,,sunaaeowapdkwzqpgqr.jpg,,,,,,,,,,,,,,,
187,19,Memory,3,,,,,,,00260940128fa.jpg,,,,,,,,,,,,,,,
188,19,Memory,3,,,,,,,sunbaoizrfijvhpnnjn.jpg,,,,,,,,,,,,,,,
189,19,Memory,3,,,,,,,sunabmytpyhsgigllxu.jpg,,,,,,,,,,,,,,,
190,19,Memory,3,,,,,,,sunaaexqbtdswxrqjvz.jpg,,,,,,,,,,,,,,,
191,19,Memory,3,,,,,,,00970960627fa.jpg,,,,,,,,,,,,,,,
192,19,Memory,3,,,,,,,00276940422fa.jpg,,,,,,,,,,,,,,,
193,19,Memory,3,,,,,,,00771941205fa.jpg,,,,,,,,,,,,,,,
194,19,Memory,3,,,,,,,00915960620fa.jpg,,,,,,,,,,,,,,,
195,19,Memory,3,,,,,,,00571940928fa.jpg,,,,,,,,,,,,,,,
196,19,Memory,3,,,,,,,00979960627fa.jpg,,,,,,,,,,,,,,,
197,19,Memory,3,,,,,,,00112931230fa.jpg,,,,,,,,,,,,,,,
198,19,Memory,3,,,,,,,00911960530fa.jpg,,,,,,,,,,,,,,,
199,19,Memory,3,,,,,,,00857940307fa.jpg,,,,,,,,,,,,,,,
200,19,Presentation,4,00971960627fa_sunbbegcweqnetpdlrh.jpg,00988960627fa_sunbmaiocftdtvnzgap.jpg,00971960627fa.jpg,sunbbegcweqnetpdlrh.jpg,00988960627fa.jpg,sunbmaiocftdtvnzgap.jpg,,,>,Face,,,,,0,,,,,,,o
201,19,Presentation,4,00880960530fa_sunakmnfgklupjijsgf.jpg,00296940422fa_sunabrwnslxalcohfre.jpg,00880960530fa.jpg,sunakmnfgklupjijsgf.jpg,00296940422fa.jpg,sunabrwnslxalcohfre.jpg,,,>,Face,,,,,1,,,,,,,o
202,19,Presentation,4,00834940307fa_sunaibnpvhkdpdnzcnz.jpg,00663941121fa_sunadnjjzohjhbohlwq.jpg,00834940307fa.jpg,sunaibnpvhkdpdnzcnz.jpg,00663941121fa.jpg,sunadnjjzohjhbohlwq.jpg,,,>,Face,,,,,0,,,,,,,o
203,19,Presentation,4,00957960627fa_sunavhxgmgrqsaptynb.jpg,00746941201fa_sunaetydippjxikifsb.jpg,00957960627fa.jpg,sunavhxgmgrqsaptynb.jpg,00746941201fa.jpg,sunaetydippjxikifsb.jpg,,,>,Face,,,,,0,,,,,,,o
204,19,Presentation,4,00884960530fa_sunakodkcslgqhqlgwl.jpg,00977960627fa_sunbbxkanhzjgbwyxqs.jpg,00884960530fa.jpg,sunakodkcslgqhqlgwl.jpg,00977960627fa.jpg,sunbbxkanhzjgbwyxqs.jpg,,,>,Face,,,,,0,,,,,,,o
205,19,Presentation,4,00993960627fa_sunbprywzqxjcezkbch.jpg,00819940307fa_sunahqldjibofgsfdgb.jpg,00993960627fa.jpg,sunbprywzqxjcezkbch.jpg,00819940307fa.jpg,sunahqldjibofgsfdgb.jpg,,,>,Face,,,,,1,,,,,,,o
206,19,Presentation,4,00071940128fa_sunaaexpnawiehinlpy.jpg,00947960627fa_sunasmmcxdddtmtazwx.jpg,00071940128fa.jpg,sunaaexpnawiehinlpy.jpg,00947960627fa.jpg,sunasmmcxdddtmtazwx.jpg,,,>,Face,,,,,1,,,,,,,x
207,19,Presentation,4,00741941201fa_sunaemcowdozyphwknd.jpg,00864940307fa_sunajawzbrlrwafowen.jpg,00741941201fa.jpg,sunaemcowdozyphwknd.jpg,00864940307fa.jpg,sunajawzbrlrwafowen.jpg,,,>,Face,,,,,1,,,,,,,o
208,19,Presentation,4,00589940928fa_sunacwggadqsfpovdjv.jpg,00978960627fa_sunbddbivbptlrlauhy.jpg,00589940928fa.jpg,sunacwggadqsfpovdjv.jpg,00978960627fa.jpg,sunbddbivbptlrlauhy.jpg,,,>,Face,,,,,1,,,,,,,o
209,19,Presentation,4,00145931230fb_sunaatjesvdupctftmn.jpg,00138931230fa_sunaapfaivxqoynnwwp.jpg,00145931230fb.jpg,sunaatjesvdupctftmn.jpg,00138931230fa.jpg,sunaapfaivxqoynnwwp.jpg,,,>,Face,,,,,1,,,,,,,x
210,19,Memory,4,,,,,,,sunavhxgmgrqsaptynb.jpg,,,,,,,,,,,,,,,
211,19,Memory,4,,,,,,,00288940422fa.jpg,,,,,,,,,,,,,,,
212,19,Memory,4,,,,,,,sunanwjjyqqwzqrqagd.jpg,,,,,,,,,,,,,,,
213,19,Memory,4,,,,,,,00977960627fa.jpg,,,,,,,,,,,,,,,
214,19,Memory,4,,,,,,,sunbprywzqxjcezkbch.jpg,,,,,,,,,,,,,,,
215,19,Memory,4,,,,,,,sunaemcowdozyphwknd.jpg,,,,,,,,,,,,,,,
216,19,Memory,4,,,,,,,sunadfktsqjthoglcsm.jpg,,,,,,,,,,,,,,,
217,19,Memory,4,,,,,,,00864940307fa.jpg,,,,,,,,,,,,,,,
218,19,Memory,4,,,,,,,sunaakvmbftkrgqhjun.jpg,,,,,,,,,,,,,,,
219,19,Memory,4,,,,,,,00589940928fa.jpg,,,,,,,,,,,,,,,
220,19,Memory,4,,,,,,,sunahqldjibofgsfdgb.jpg,,,,,,,,,,,,,,,
221,19,Memory,4,,,,,,,00144931230fb.jpg,,,,,,,,,,,,,,,
222,19,Memory,4,,,,,,,sunasmmcxdddtmtazwx.jpg,,,,,,,,,,,,,,,
223,19,Memory,4,,,,,,,00648941031fa.jpg,,,,,,,,,,,,,,,
224,19,Memory,4,,,,,,,sunabzuqsrgcsonqlkz.jpg,,,,,,,,,,,,,,,
225,19,Memory,4,,,,,,,sunabwfvcqqidycwypa.jpg,,,,,,,,,,,,,,,
226,19,Memory,4,,,,,,,sunaetydippjxikifsb.jpg,,,,,,,,,,,,,,,
227,19,Memory,4,,,,,,,sunabppokiyglaxpcha.jpg,,,,,,,,,,,,,,,
228,19,Memory,4,,,,,,,00957960627fa.jpg,,,,,,,,,,,,,,,
229,19,Memory,4,,,,,,,00947960627fa.jpg,,,,,,,,,,,,,,,
230,19,Memory,4,,,,,,,sunajawzbrlrwafowen.jpg,,,,,,,,,,,,,,,
231,19,Memory,4,,,,,,,sunaathajvxrgptwhoj.jpg,,,,,,,,,,,,,,,
232,19,Memory,4,,,,,,,00741941201fa.jpg,,,,,,,,,,,,,,,
233,19,Memory,4,,,,,,,sunadbhmrgrrpyzglxs.jpg,,,,,,,,,,,,,,,
234,19,Memory,4,,,,,,,00908960530fa.jpg,,,,,,,,,,,,,,,
235,19,Memory,4,,,,,,,sunakodkcslgqhqlgwl.jpg,,,,,,,,,,,,,,,
236,19,Memory,4,,,,,,,sunabasphceswhwwqvv.jpg,,,,,,,,,,,,,,,
237,19,Memory,4,,,,,,,00211940128fa.jpg,,,,,,,,,,,,,,,
238,19,Memory,4,,,,,,,00119931230fb.jpg,,,,,,,,,,,,,,,
239,19,Memory,4,,,,,,,00633940928fa.jpg,,,,,,,,,,,,,,,
240,19,Memory,4,,,,,,,sunacwggadqsfpovdjv.jpg,,,,,,,,,,,,,,,
241,19,Memory,4,,,,,,,00746941201fa.jpg,,,,,,,,,,,,,,,
242,19,Memory,4,,,,,,,00819940307fa.jpg,,,,,,,,,,,,,,,
243,19,Memory,4,,,,,,,00884960530fa.jpg,,,,,,,,,,,,,,,
244,19,Memory,4,,,,,,,sunadfndyrtqqiasoig.jpg,,,,,,,,,,,,,,,
245,19,Memory,4,,,,,,,00993960627fa.jpg,,,,,,,,,,,,,,,
246,19,Memory,4,,,,,,,00505960627fa.jpg,,,,,,,,,,,,,,,
247,19,Memory,4,,,,,,,00308940422fb.jpg,,,,,,,,,,,,,,,
248,19,Memory,4,,,,,,,00638941031fa.jpg,,,,,,,,,,,,,,,
249,19,Memory,4,,,,,,,sunbbxkanhzjgbwyxqs.jpg,,,,,,,,,,,,,,,
250,19,Presentation,5,00062931230fb_sunaaelotvjgibjtjhs.jpg,00208940128fa_sunaazzyhbvqjpmazjq.jpg,00062931230fb.jpg,sunaaelotvjgibjtjhs.jpg,00208940128fa.jpg,sunaazzyhbvqjpmazjq.jpg,,,>,Place,,,,,1,,,,,,,x
251,19,Presentation,5,00931960627fa_sunaptrqvaooxfvktvw.jpg,00965960627fa_sunaydywdmvlfddbxbk.jpg,00931960627fa.jpg,sunaptrqvaooxfvktvw.jpg,00965960627fa.jpg,sunaydywdmvlfddbxbk.jpg,,,>,Place,,,,,1,,,,,,,x
252,19,Presentation,5,00854940307fa_sunaiwduelojtwaqeyh.jpg,00754941201fa_sunaffgsyyvoqdlkmnk.jpg,00854940307fa.jpg,sunaiwduelojtwaqeyh.jpg,00754941201fa.jpg,sunaffgsyyvoqdlkmnk.jpg,,,>,Place,,,,,1,,,,,,,o
253,19,Presentation,5,00972960627fa_sunbbfqwjpdxniyhies.jpg,00719941201fa_sunadvithllcgmfxsrn.jpg,00972960627fa.jpg,sunbbfqwjpdxniyhies.jpg,00719941201fa.jpg,sunadvithllcgmfxsrn.jpg,,,>,Place,,,,,1,,,,,,,x
254,19,Presentation,5,00507940519fa_sunacacflqoyxhsqzhe.jpg,00866940307fa_sunajbwkywmsqkldfml.jpg,00507940519fa.jpg,sunacacflqoyxhsqzhe.jpg,00866940307fa.jpg,sunajbwkywmsqkldfml.jpg,,,>,Place,,,,,1,,,,,,,x
255,19,Presentation,5,00778941205fa_sunagcthdfirrcawoic.jpg,00082931230fa_sunaafvitpexrpvumsa.jpg,00778941205fa.jpg,sunagcthdfirrcawoic.jpg,00082931230fa.jpg,sunaafvitpexrpvumsa.jpg,,,>,Place,,,,,1,,,,,,,o
256,19,Presentation,5,00131931230fb_sunaangbuylfvckqqoo.jpg,00871940307_sunajrujcsdxmfbssmc.jpg,00131931230fb.jpg,sunaangbuylfvckqqoo.jpg,00871940307.jpg,sunajrujcsdxmfbssmc.jpg,,,>,Place,,,,,0,,,,,,,x
257,19,Presentation,5,00797960620fa_sunagufzbeteqdjxais.jpg,00913960530fa_sunaooffzffbhcpirmm.jpg,00797960620fa.jpg,sunagufzbeteqdjxais.jpg,00913960530fa.jpg,sunaooffzffbhcpirmm.jpg,,,>,Place,,,,,1,,,,,,,x
258,19,Presentation,5,00839940307fa_sunaipyohrqlwngaqif.jpg,00598940928fa_sunacxeheuiigkcgquf.jpg,00839940307fa.jpg,sunaipyohrqlwngaqif.jpg,00598940928fa.jpg,sunacxeheuiigkcgquf.jpg,,,>,Place,,,,,1,,,,,,,o
259,19,Presentation,5,00705960530fa_sunaduslxfzlbxlllnz.jpg,00483940519fa_sunabyvpwkgsjtijdwj.jpg,00705960530fa.jpg,sunaduslxfzlbxlllnz.jpg,00483940519fa.jpg,sunabyvpwkgsjtijdwj.jpg,,,>,Place,,,,,1,,,,,,,x
260,19,Memory,5,,,,,,,00483940519fa.jpg,,,,,,,,,,,,,,,
261,19,Memory,5,,,,,,,sunbbfqwjpdxniyhies.jpg,,,,,,,,,,,,,,,
262,19,Memory,5,,,,,,,00191940128fb.jpg,,,,,,,,,,,,,,,
263,19,Memory,5,,,,,,,00894960620fa.jpg,,,,,,,,,,,,,,,
264,19,Memory,5,,,,,,,sunagcthdfirrcawoic.jpg,,,,,,,,,,,,,,,
265,19,Memory,5,,,,,,,sunaqsolmfydodnakub.jpg,,,,,,,,,,,,,,,
266,19,Memory,5,,,,,,,00965960627fa.jpg,,,,,,,,,,,,,,,
267,19,Memory,5,,,,,,,sunaaelotvjgibjtjhs.jpg,,,,,,,,,,,,,,,
268,19,Memory,5,,,,,,,00866940307fa.jpg,,,,,,,,,,,,,,,
269,19,Memory,5,,,,,,,sunamczizlzavhzhpay.jpg,,,,,,,,,,,,,,,
270,19,Memory,5,,,,,,,sunaajuzribjrizdshh.jpg,,,,,,,,,,,,,,,
271,19,Memory,5,,,,,,,sunacacflqoyxhsqzhe.jpg,,,,,,,,,,,,,,,
272,19,Memory,5,,,,,,,sunadochqcucscehsgk.jpg,,,,,,,,,,,,,,,
273,19,Memory,5,,,,,,,sunaafvitpexrpvumsa.jpg,,,,,,,,,,,,,,,
274,19,Memory,5,,,,,,,00760960620fa.jpg,,,,,,,,,,,,,,,
275,19,Memory,5,,,,,,,00778941205fa.jpg,,,,,,,,,,,,,,,
276,19,Memory,5,,,,,,,00895960530fa.jpg,,,,,,,,,,,,,,,
277,19,Memory,5,,,,,,,00972960627fa.jpg,,,,,,,,,,,,,,,
278,19,Memory,5,,,,,,,00670941121fa.jpg,,,,,,,,,,,,,,,
279,19,Memory,5,,,,,,,00507940519fa.jpg,,,,,,,,,,,,,,,
280,19,Memory,5,,,,,,,00557940519fa.jpg,,,,,,,,,,,,,,,
281,19,Memory,5,,,,,,,00598940928fa.jpg,,,,,,,,,,,,,,,
282,19,Memory,5,,,,,,,sunagufzbeteqdjxais.jpg,,,,,,,,,,,,,,,
283,19,Memory,5,,,,,,,00937960627fa.jpg,,,,,,,,,,,,,,,
284,19,Memory,5,,,,,,,sunachtuarilwyqnvjx.jpg,,,,,,,,,,,,,,,
285,19,Memory,5,,,,,,,sunaydywdmvlfddbxbk.jpg,,,,,,,,,,,,,,,
286,19,Memory,5,,,,,,,sunabyvpwkgsjtijdwj.jpg,,,,,,,,,,,,,,,
287,19,Memory,5,,,,,,,00082931230fa.jpg,,,,,,,,,,,,,,,
288,19,Memory,5,,,,,,,sunacxeheuiigkcgquf.jpg,,,,,,,,,,,,,,,
289,19,Memory,5,,,,,,,sunalqmfgeadpqsyzpd.jpg,,,,,,,,,,,,,,,
290,19,Memory,5,,,,,,,00109931230fa.jpg,,,,,,,,,,,,,,,
291,19,Memory,5,,,,,,,sunajbwkywmsqkldfml.jpg,,,,,,,,,,,,,,,
292,19,Memory,5,,,,,,,sunaamsdyakblkfoydx.jpg,,,,,,,,,,,,,,,
293,19,Memory,5,,,,,,,00797960620fa.jpg,,,,,,,,,,,,,,,
294,19,Memory,5,,,,,,,00914960620fa.jpg,,,,,,,,,,,,,,,
295,19,Memory,5,,,,,,,00129931230fb.jpg,,,,,,,,,,,,,,,
296,19,Memory,5,,,,,,,00062931230fb.jpg,,,,,,,,,,,,,,,
297,19,Memory,5,,,,,,,sunaawsdjisukbbginm.jpg,,,,,,,,,,,,,,,
298,19,Memory,5,,,,,,,sunaffstbkappprzxnv.jpg,,,,,,,,,,,,,,,
299,19,Memory,5,,,,,,,sunaozisvwfbmlkfhzv.jpg,,,,,,,,,,,,,,,
300,19,Presentation,6,01009960627fa_sunbxzweleltykebgan.jpg,00862940307fa_sunaizgnnplsvajzhkc.jpg,01009960627fa.jpg,sunbxzweleltykebgan.jpg,00862940307fa.jpg,sunaizgnnplsvajzhkc.jpg,,,<,Place,,,,,1,,,,,,,x
301,19,Presentation,6,00812941205fa_sunahgtbwgsmtqeodwh.jpg,00662941121fa_sunadkazmlajmohnwfl.jpg,00812941205fa.jpg,sunahgtbwgsmtqeodwh.jpg,00662941121fa.jpg,sunadkazmlajmohnwfl.jpg,,,<,Place,,,,,1,,,,,,,o
302,19,Presentation,6,00136931230fb_sunaanptmsknhirrzed.jpg,00800941205fb_sunagvjurcwdbixvnyi.jpg,00136931230fb.jpg,sunaanptmsknhirrzed.jpg,00800941205fb.jpg,sunagvjurcwdbixvnyi.jpg,,,<,Place,,,,,1,,,,,,,x
303,19,Presentation,6,00073931230fa_sunaafbmtoniaasysgu.jpg,00815941205fa_sunahiphsekjihkafsl.jpg,00073931230fa.jpg,sunaafbmtoniaasysgu.jpg,00815941205fa.jpg,sunahiphsekjihkafsl.jpg,,,<,Place,,,,,1,,,,,,,x
304,19,Presentation,6,00154931230fa_sunaauueuhhvklldjik.jpg,00271940422fa_sunabmbnddafmywtjjj.jpg,00154931230fa.jpg,sunaauueuhhvklldjik.jpg,00271940422fa.jpg,sunabmbnddafmywtjjj.jpg,,,<,Place,,,,,1,,,,,,,o
305,19,Presentation,6,00743941201fa_sunaeoghzrjarigmwua.jpg,00720960620fa_sunaecpkgfewqqreqwe.jpg,00743941201fa.jpg,sunaeoghzrjarigmwua.jpg,00720960620fa.jpg,sunaecpkgfewqqreqwe.jpg,,,<,Place,,,,,1,,,,,,,o
306,19,Presentation,6,00811960530fa_sunahedfrhtcwpneund.jpg,00952960627fa_sunathzzbcwjykldrem.jpg,00811960530fa.jpg,sunahedfrhtcwpneund.jpg,00952960627fa.jpg,sunathzzbcwjykldrem.jpg,,,<,Place,,,,,1,,,,,,,x
307,19,Presentation,6,00744941201fa_sunaeomlfaabhpswasy.jpg,00158931230fb_sunaavchcbptaerhcfy.jpg,00744941201fa.jpg,sunaeomlfaabhpswasy.jpg,00158931230fb.jpg,sunaavchcbptaerhcfy.jpg,,,<,Place,,,,,1,,,,,,,x
308,19,Presentation,6,00292940422fb_sunabrjdpmoedcdjbpo.jpg,00935960627fa_sunaqbmgkgqucajzrkp.jpg,00292940422fb.jpg,sunabrjdpmoedcdjbpo.jpg,00935960627fa.jpg,sunaqbmgkgqucajzrkp.jpg,,,<,Place,,,,,0,,,,,,,x
309,19,Presentation,6,00801941205fa_sunagvprlbprarvgdvj.jpg,00209940128fb_sunabaergayifsgacxt.jpg,00801941205fa.jpg,sunagvprlbprarvgdvj.jpg,00209940128fb.jpg,sunabaergayifsgacxt.jpg,,,<,Place,,,,,1,,,,,,,o
310,19,Memory,6,,,,,,,sunabohxbskznglnrhv.jpg,,,,,,,,,,,,,,,
311,19,Memory,6,,,,,,,sunahawfngukizslzsd.jpg,,,,,,,,,,,,,,,
312,19,Memory,6,,,,,,,00801941205fa.jpg,,,,,,,,,,,,,,,
313,19,Memory,6,,,,,,,00292940422fb.jpg,,,,,,,,,,,,,,,
314,19,Memory,6,,,,,,,sunbvzmgrdvaakxusbu.jpg,,,,,,,,,,,,,,,
315,19,Memory,6,,,,,,,01000960627fa.jpg,,,,,,,,,,,,,,,
316,19,Memory,6,,,,,,,sunaauueuhhvklldjik.jpg,,,,,,,,,,,,,,,
317,19,Memory,6,,,,,,,sunaddsaeicthrfbkhe.jpg,,,,,,,,,,,,,,,
318,19,Memory,6,,,,,,,00720960620fa.jpg,,,,,,,,,,,,,,,
319,19,Memory,6,,,,,,,00271940422fa.jpg,,,,,,,,,,,,,,,
320,19,Memory,6,,,,,,,00154931230fa.jpg,,,,,,,,,,,,,,,
321,19,Memory,6,,,,,,,00935960627fa.jpg,,,,,,,,,,,,,,,
322,19,Memory,6,,,,,,,sunabmbnddafmywtjjj.jpg,,,,,,,,,,,,,,,
323,19,Memory,6,,,,,,,00776941205fa.jpg,,,,,,,,,,,,,,,
324,19,Memory,6,,,,,,,sunafxokyavhgptyfye.jpg,,,,,,,,,,,,,,,
325,19,Memory,6,,,,,,,00158931230fb.jpg,,,,,,,,,,,,,,,
326,19,Memory,6,,,,,,,sunanmoqeyprjjjfxjt.jpg,,,,,,,,,,,,,,,
327,19,Memory,6,,,,,,,00097931230fa.jpg,,,,,,,,,,,,,,,
328,19,Memory,6,,,,,,,00835940307fa.jpg,,,,,,,,,,,,,,,
329,19,Memory,6,,,,,,,00540940519fa.jpg,,,,,,,,,,,,,,,
330,19,Memory,6,,,,,,,01009960627fa.jpg,,,,,,,,,,,,,,,
331,19,Memory,6,,,,,,,sunagvprlbprarvgdvj.jpg,,,,,,,,,,,,,,,
332,19,Memory,6,,,,,,,sunaqbmgkgqucajzrkp.jpg,,,,,,,,,,,,,,,
333,19,Memory,6,,,,,,,sunabrjdpmoedcdjbpo.jpg,,,,,,,,,,,,,,,
334,19,Memory,6,,,,,,,00905960530fa.jpg,,,,,,,,,,,,,,,
335,19,Memory,6,,,,,,,sunaecpkgfewqqreqwe.jpg,,,,,,,,,,,,,,,
336,19,Memory,6,,,,,,,00812941205fa.jpg,,,,,,,,,,,,,,,
337,19,Memory,6,,,,,,,sunaavchcbptaerhcfy.jpg,,,,,,,,,,,,,,,
338,19,Memory,6,,,,,,,sunaijsqpvodplbwxkf.jpg,,,,,,,,,,,,,,,
339,19,Memory,6,,,,,,,sunaizgnnplsvajzhkc.jpg,,,,,,,,,,,,,,,
340,19,Memory,6,,,,,,,00862940307fa.jpg,,,,,,,,,,,,,,,
341,19,Memory,6,,,,,,,sunahgtbwgsmtqeodwh.jpg,,,,,,,,,,,,,,,
342,19,Memory,6,,,,,,,sunaajayojuslbbnneg.jpg,,,,,,,,,,,,,,,
343,19,Memory,6,,,,,,,00807941205fa.jpg,,,,,,,,,,,,,,,
344,19,Memory,6,,,,,,,00635941031fa.jpg,,,,,,,,,,,,,,,
345,19,Memory,6,,,,,,,00868960307fa.jpg,,,,,,,,,,,,,,,
346,19,Memory,6,,,,,,,sunacdnquypmsshhsbk.jpg,,,,,,,,,,,,,,,
347,19,Memory,6,,,,,,,00280940422fb.jpg,,,,,,,,,,,,,,,
348,19,Memory,6,,,,,,,sunajjxttslobudoqbv.jpg,,,,,,,,,,,,,,,
349,19,Memory,6,,,,,,,sunbxzweleltykebgan.jpg,,,,,,,,,,,,,,,
350,19,Presentation,7,00133931230fa_sunaanlwnpqndclffxt.jpg,00893960530Fa_sunaloffvbvysigxent.jpg,00133931230fa.jpg,sunaanlwnpqndclffxt.jpg,00893960530Fa.jpg,sunaloffvbvysigxent.jpg,,,<,Face,,,,,1,,,,,,,x
351,19,Presentation,7,00787960620fa_sunagoufulkpsxrmklt.jpg,00996960627fa_sunbpvgllfdejxcpjqp.jpg,00787960620fa.jpg,sunagoufulkpsxrmklt.jpg,00996960627fa.jpg,sunbpvgllfdejxcpjqp.jpg,,,<,Face,,,,,1,,,,,,,x
352,19,Presentation,7,01207940128fa_sundbixjudsgeuuehrn.jpg,00125931230fa_sunaalltyvjhbzhkmvg.jpg,01207940128fa.jpg,sundbixjudsgeuuehrn.jpg,00125931230fa.jpg,sunaalltyvjhbzhkmvg.jpg,,,<,Face,,,,,1,,,,,,,x
353,19,Presentation,7,00827940307fa_sunahtfxgsrmkiulnwk.jpg,00921960627fa_sunapqkpqdfvxlbqwyo.jpg,00827940307fa.jpg,sunahtfxgsrmkiulnwk.jpg,00921960627fa.jpg,sunapqkpqdfvxlbqwyo.jpg,,,<,Face,,,,,1,,,,,,,o
354,19,Presentation,7,00214940128fa_sunabbafjowbzcvbucc.jpg,00127931230fa_sunaampvucecsfbdafn.jpg,00214940128fa.jpg,sunabbafjowbzcvbucc.jpg,00127931230fa.jpg,sunaampvucecsfbdafn.jpg,,,<,Face,,,,,0,,,,,,,x
355,19,Presentation,7,00163931230fb_sunaavodbcpygkggnfp.jpg,00922960627fa_sunapqkyghktgtosuuk.jpg,00163931230fb.jpg,sunaavodbcpygkggnfp.jpg,00922960627fa.jpg,sunapqkyghktgtosuuk.jpg,,,<,Face,,,,,1,,,,,,,o
356,19,Presentation,7,00294940422fb_sunabrlndkruqokhury.jpg,00944960627fa_sunasbbntuiheekqyaq.jpg,00294940422fb.jpg,sunabrlndkruqokhury.jpg,00944960627fa.jpg,sunasbbntuiheekqyaq.jpg,,,<,Face,,,,,1,,,,,,,x
357,19,Presentation,7,00869940307fa_sunajoveqhiprwqgoco.jpg,00700941121fa_sunadsgmtznewzyasnk.jpg,00869940307fa.jpg,sunajoveqhiprwqgoco.jpg,00700941121fa.jpg,sunadsgmtznewzyasnk.jpg,,,<,Face,,,,,1,,,,,,,o
358,19,Presentation,7,00262940128fa_sunabizydfotqddlnjp.jpg,00792941205fa_sunagsiwrmuixqgdimb.jpg,00262940128fa.jpg,sunabizydfotqddlnjp.jpg,00792941205fa.jpg,sunagsiwrmuixqgdimb.jpg,,,<,Face,,,,,1,,,,,,,x
359,19,Presentation,7,00961960627fa_sunawotxrevnqvamsfp.jpg,00828940307fa_sunahuynahneraqftyz.jpg,00961960627fa.jpg,sunawotxrevnqvamsfp.jpg,00828940307fa.jpg,sunahuynahneraqftyz.jpg,,,<,Face,,,,,1,,,,,,,o
360,19,Memory,7,,,,,,,00125931230fa.jpg,,,,,,,,,,,,,,,
361,19,Memory,7,,,,,,,00123931230fb.jpg,,,,,,,,,,,,,,,
362,19,Memory,7,,,,,,,sunagtjwilqjvxohypn.jpg,,,,,,,,,,,,,,,
363,19,Memory,7,,,,,,,sunajoveqhiprwqgoco.jpg,,,,,,,,,,,,,,,
364,19,Memory,7,,,,,,,00127931230fa.jpg,,,,,,,,,,,,,,,
365,19,Memory,7,,,,,,,sunaafynehyrzpsoaml.jpg,,,,,,,,,,,,,,,
366,19,Memory,7,,,,,,,00752960620fa.jpg,,,,,,,,,,,,,,,
367,19,Memory,7,,,,,,,sunagrmyoovzukhxmlo.jpg,,,,,,,,,,,,,,,
368,19,Memory,7,,,,,,,00214940128fa.jpg,,,,,,,,,,,,,,,
369,19,Memory,7,,,,,,,sunaccdtpgenvcbcbcf.jpg,,,,,,,,,,,,,,,
370,19,Memory,7,,,,,,,00793941205fa.jpg,,,,,,,,,,,,,,,
371,19,Memory,7,,,,,,,00305940422fa.jpg,,,,,,,,,,,,,,,
372,19,Memory,7,,,,,,,00996960627fa.jpg,,,,,,,,,,,,,,,
373,19,Memory,7,,,,,,,00564940928fa.jpg,,,,,,,,,,,,,,,
374,19,Memory,7,,,,,,,sunacmpqqfbsvlzinzl.jpg,,,,,,,,,,,,,,,
375,19,Memory,7,,,,,,,sunaampvucecsfbdafn.jpg,,,,,,,,,,,,,,,
376,19,Memory,7,,,,,,,00869940307fa.jpg,,,,,,,,,,,,,,,
377,19,Memory,7,,,,,,,00532960627fa.jpg,,,,,,,,,,,,,,,
378,19,Memory,7,,,,,,,sunbgklxeqjhdbyfhhy.jpg,,,,,,,,,,,,,,,
379,19,Memory,7,,,,,,,00086931230fa.jpg,,,,,,,,,,,,,,,
380,19,Memory,7,,,,,,,00791941205fa.jpg,,,,,,,,,,,,,,,
381,19,Memory,7,,,,,,,sunaddtdkycxbqlpfqa.jpg,,,,,,,,,,,,,,,
382,19,Memory,7,,,,,,,00787960620fa.jpg,,,,,,,,,,,,,,,
383,19,Memory,7,,,,,,,sunagsiwrmuixqgdimb.jpg,,,,,,,,,,,,,,,
384,19,Memory,7,,,,,,,00985960627fa.jpg,,,,,,,,,,,,,,,
385,19,Memory,7,,,,,,,00636941031fa.jpg,,,,,,,,,,,,,,,
386,19,Memory,7,,,,,,,00961960627fa.jpg,,,,,,,,,,,,,,,
387,19,Memory,7,,,,,,,00163931230fb.jpg,,,,,,,,,,,,,,,
388,19,Memory,7,,,,,,,00792941205fa.jpg,,,,,,,,,,,,,,,
389,19,Memory,7,,,,,,,sunagoufulkpsxrmklt.jpg,,,,,,,,,,,,,,,
390,19,Memory,7,,,,,,,sunabbafjowbzcvbucc.jpg,,,,,,,,,,,,,,,
391,19,Memory,7,,,,,,,sunafbwnojpqeyzssoe.jpg,,,,,,,,,,,,,,,
392,19,Memory,7,,,,,,,sunaalltyvjhbzhkmvg.jpg,,,,,,,,,,,,,,,
393,19,Memory,7,,,,,,,sunaavodbcpygkggnfp.jpg,,,,,,,,,,,,,,,
394,19,Memory,7,,,,,,,sunabtrnbvpppgczjim.jpg,,,,,,,,,,,,,,,
395,19,Memory,7,,,,,,,sunbpvgllfdejxcpjqp.jpg,,,,,,,,,,,,,,,
396,19,Memory,7,,,,,,,sunawotxrevnqvamsfp.jpg,,,,,,,,,,,,,,,
397,19,Memory,7,,,,,,,00922960627fa.jpg,,,,,,,,,,,,,,,
398,19,Memory,7,,,,,,,sunaalcrrdbjgdztbiz.jpg,,,,,,,,,,,,,,,
399,19,Memory,7,,,,,,,sunapqkyghktgtosuuk.jpg,,,,,,,,,,,,,,,
