,Subject,Trial Type,Run,Cued Composite,Uncued Composite,Cued Face,Cued Place,Uncued Face,Uncued Place,Memory Image,Category,Cued Side,Cued Category,Attention Reaction Time (s),Familiarity Reaction Time (s),Familiarity Rating,Attention Level,Cue Validity,Post Invalid Cue,Pre Invalid Cue,Attention Button,Rating History,Stimulus Onset,Stimulus End,Attention Probe
0,34,Presentation,0,00827940307fa_sunahtfxgsrmkiulnwk.jpg,00576941031fa_sunacvjlsylseoghjup.jpg,00827940307fa.jpg,sunahtfxgsrmkiulnwk.jpg,00576941031fa.jpg,sunacvjlsylseoghjup.jpg,,,>,Place,,,,,1,,,,,,,x
1,34,Presentation,0,00598940928fa_sunacxeheuiigkcgquf.jpg,00997960627fa_sunbtpilbhhbmhmeuzq.jpg,00598940928fa.jpg,sunacxeheuiigkcgquf.jpg,00997960627fa.jpg,sunbtpilbhhbmhmeuzq.jpg,,,<,Face,,,,,1,,,,,,,x
2,34,Presentation,0,00675941121fa_sunadoxcchtmsxewsau.jpg,00985960627fa_sunbgklxeqjhdbyfhhy.jpg,00675941121fa.jpg,sunadoxcchtmsxewsau.jpg,00985960627fa.jpg,sunbgklxeqjhdbyfhhy.jpg,,,>,Place,,,,,1,,,,,,,x
3,34,Presentation,0,00728941205fa_sunaejnvnpltdmhbcsi.jpg,00857940307fa_sunaiwfobocrruqznsv.jpg,00728941205fa.jpg,sunaejnvnpltdmhbcsi.jpg,00857940307fa.jpg,sunaiwfobocrruqznsv.jpg,,,>,Face,,,,,1,,,,,,,o
4,34,Presentation,0,00122931230fa_sunaakxjfbrrequcjmx.jpg,00783941205fa_sunagjeesomrwjsfqie.jpg,00122931230fa.jpg,sunaakxjfbrrequcjmx.jpg,00783941205fa.jpg,sunagjeesomrwjsfqie.jpg,,,<,Face,,,,,1,,,,,,,x
5,34,Presentation,0,00983960627fa_sunbfyvfqiimvdaxlqn.jpg,00142931230fb_sunaapxkpvrhpjplsok.jpg,00983960627fa.jpg,sunbfyvfqiimvdaxlqn.jpg,00142931230fb.jpg,sunaapxkpvrhpjplsok.jpg,,,>,Place,,,,,1,,,,,,,x
6,34,Presentation,0,00794960620fa_sunagtqhhwxjeuxdebe.jpg,00859940307fa_sunaiycurtqsfkvcaso.jpg,00794960620fa.jpg,sunagtqhhwxjeuxdebe.jpg,00859940307fa.jpg,sunaiycurtqsfkvcaso.jpg,,,>,Face,,,,,1,,,,,,,x
7,34,Presentation,0,00968960627fa_sunbagfpovqwbuexqdn.jpg,00828940307fa_sunahuynahneraqftyz.jpg,00968960627fa.jpg,sunbagfpovqwbuexqdn.jpg,00828940307fa.jpg,sunahuynahneraqftyz.jpg,,,<,Place,,,,,1,,,,,,,x
8,34,Presentation,0,00909960530_sunaobtizabegtwfwul.jpg,00919960620fa_sunapmfmzadmosuogaz.jpg,00909960530.jpg,sunaobtizabegtwfwul.jpg,00919960620fa.jpg,sunapmfmzadmosuogaz.jpg,,,<,Face,,,,,0,,,,,,,x
9,34,Presentation,0,00791941205fa_sunagrmyoovzukhxmlo.jpg,00984960627fa_sunbfzchmomnvzhbxdg.jpg,00791941205fa.jpg,sunagrmyoovzukhxmlo.jpg,00984960627fa.jpg,sunbfzchmomnvzhbxdg.jpg,,,<,Place,,,,,1,,,,,,,o
10,34,Memory,0,,,,,,,sunbagfpovqwbuexqdn.jpg,,,,,,,,,,,,,,,
11,34,Memory,0,,,,,,,sunavhxgmgrqsaptynb.jpg,,,,,,,,,,,,,,,
12,34,Memory,0,,,,,,,sunbwdrdvsweerwsdrj.jpg,,,,,,,,,,,,,,,
13,34,Memory,0,,,,,,,sunaiwfobocrruqznsv.jpg,,,,,,,,,,,,,,,
14,34,Memory,0,,,,,,,sunacxeheuiigkcgquf.jpg,,,,,,,,,,,,,,,
15,34,Memory,0,,,,,,,sunaagcpoejbuzyvddd.jpg,,,,,,,,,,,,,,,
16,34,Memory,0,,,,,,,00791941205fa.jpg,,,,,,,,,,,,,,,
17,34,Memory,0,,,,,,,00859940307fa.jpg,,,,,,,,,,,,,,,
18,34,Memory,0,,,,,,,01003960627fb.jpg,,,,,,,,,,,,,,,
19,34,Memory,0,,,,,,,sunbondbduabvijnmch.jpg,,,,,,,,,,,,,,,
20,34,Memory,0,,,,,,,00763941205fa.jpg,,,,,,,,,,,,,,,
21,34,Memory,0,,,,,,,00598940928fa.jpg,,,,,,,,,,,,,,,
22,34,Memory,0,,,,,,,sunbgklxeqjhdbyfhhy.jpg,,,,,,,,,,,,,,,
23,34,Memory,0,,,,,,,sunagrmyoovzukhxmlo.jpg,,,,,,,,,,,,,,,
24,34,Memory,0,,,,,,,00728941205fa.jpg,,,,,,,,,,,,,,,
25,34,Memory,0,,,,,,,00630940928fa.jpg,,,,,,,,,,,,,,,
26,34,Memory,0,,,,,,,00089931230fa.jpg,,,,,,,,,,,,,,,
27,34,Memory,0,,,,,,,00858940307fa.jpg,,,,,,,,,,,,,,,
28,34,Memory,0,,,,,,,sunbaoizrfijvhpnnjn.jpg,,,,,,,,,,,,,,,
29,34,Memory,0,,,,,,,00122931230fa.jpg,,,,,,,,,,,,,,,
30,34,Memory,0,,,,,,,00744941201fa.jpg,,,,,,,,,,,,,,,
31,34,Memory,0,,,,,,,00957960627fa.jpg,,,,,,,,,,,,,,,
32,34,Memory,0,,,,,,,sunaixpqndlwhwjtjek.jpg,,,,,,,,,,,,,,,
33,34,Memory,0,,,,,,,sunaejnvnpltdmhbcsi.jpg,,,,,,,,,,,,,,,
34,34,Memory,0,,,,,,,00857940307fa.jpg,,,,,,,,,,,,,,,
35,34,Memory,0,,,,,,,sunafhmnhsdurlvddpw.jpg,,,,,,,,,,,,,,,
36,34,Memory,0,,,,,,,sunaakxjfbrrequcjmx.jpg,,,,,,,,,,,,,,,
37,34,Memory,0,,,,,,,00969960627fa.jpg,,,,,,,,,,,,,,,
38,34,Memory,0,,,,,,,sunahuynahneraqftyz.jpg,,,,,,,,,,,,,,,
39,34,Memory,0,,,,,,,00276940422fa.jpg,,,,,,,,,,,,,,,
40,34,Memory,0,,,,,,,sunaczwgyukesaajxnx.jpg,,,,,,,,,,,,,,,
41,34,Memory,0,,,,,,,00968960627fa.jpg,,,,,,,,,,,,,,,
42,34,Memory,0,,,,,,,sunaiycurtqsfkvcaso.jpg,,,,,,,,,,,,,,,
43,34,Memory,0,,,,,,,sunabmytpyhsgigllxu.jpg,,,,,,,,,,,,,,,
44,34,Memory,0,,,,,,,sunaeomlfaabhpswasy.jpg,,,,,,,,,,,,,,,
45,34,Memory,0,,,,,,,00142931230fb.jpg,,,,,,,,,,,,,,,
46,34,Memory,0,,,,,,,00828940307fa.jpg,,,,,,,,,,,,,,,
47,34,Memory,0,,,,,,,00985960627fa.jpg,,,,,,,,,,,,,,,
48,34,Memory,0,,,,,,,sunaapxkpvrhpjplsok.jpg,,,,,,,,,,,,,,,
49,34,Memory,0,,,,,,,00989960627fa.jpg,,,,,,,,,,,,,,,
50,34,Presentation,1,00836940307fa_sunainqelldeebvxtcz.jpg,00760960620fa_sunaffstbkappprzxnv.jpg,00836940307fa.jpg,sunainqelldeebvxtcz.jpg,00760960620fa.jpg,sunaffstbkappprzxnv.jpg,,,>,Place,,,,,1,,,,,,,x
51,34,Presentation,1,00915960620fa_sunapileznnbbmrwoei.jpg,00308940422fb_sunabwfvcqqidycwypa.jpg,00915960620fa.jpg,sunapileznnbbmrwoei.jpg,00308940422fb.jpg,sunabwfvcqqidycwypa.jpg,,,<,Place,,,,,1,,,,,,,x
52,34,Presentation,1,00316940422fa_sunabxmguapjekttvwm.jpg,00785941205fa_sunaglqunwuycxydmyu.jpg,00316940422fa.jpg,sunabxmguapjekttvwm.jpg,00785941205fa.jpg,sunaglqunwuycxydmyu.jpg,,,<,Face,,,,,0,,,,,,,o
53,34,Presentation,1,00694941121fa_sunadrmfzmstgdjdcod.jpg,00109931230fa_sunaajuzribjrizdshh.jpg,00694941121fa.jpg,sunadrmfzmstgdjdcod.jpg,00109931230fa.jpg,sunaajuzribjrizdshh.jpg,,,<,Face,,,,,1,,,,,,,o
54,34,Presentation,1,00540940519fa_sunacdnquypmsshhsbk.jpg,00892960530fa_sunalntxqqadigcletd.jpg,00540940519fa.jpg,sunacdnquypmsshhsbk.jpg,00892960530fa.jpg,sunalntxqqadigcletd.jpg,,,<,Face,,,,,1,,,,,,,o
55,34,Presentation,1,00815941205fa_sunahiphsekjihkafsl.jpg,00750941201fa_sunaeuzwggvibufclwf.jpg,00815941205fa.jpg,sunahiphsekjihkafsl.jpg,00750941201fa.jpg,sunaeuzwggvibufclwf.jpg,,,>,Face,,,,,1,,,,,,,o
56,34,Presentation,1,00218940128fa_sunabbwggenhfbftyvi.jpg,00885960530fa_sunakwlvxjpddialozd.jpg,00218940128fa.jpg,sunabbwggenhfbftyvi.jpg,00885960530fa.jpg,sunakwlvxjpddialozd.jpg,,,>,Face,,,,,1,,,,,,,x
57,34,Presentation,1,00647941031fa_sunadflbrkckmepztql.jpg,00993960627fa_sunbprywzqxjcezkbch.jpg,00647941031fa.jpg,sunadflbrkckmepztql.jpg,00993960627fa.jpg,sunbprywzqxjcezkbch.jpg,,,>,Place,,,,,0,,,,,,,o
58,34,Presentation,1,00581940928fa_sunacvzhvcksnwqcqbw.jpg,00749941201fa_sunaeuvjbmdpknaqqaj.jpg,00581940928fa.jpg,sunacvzhvcksnwqcqbw.jpg,00749941201fa.jpg,sunaeuvjbmdpknaqqaj.jpg,,,>,Place,,,,,1,,,,,,,o
59,34,Presentation,1,00090931230fa_sunaahedjlmtqekgyvj.jpg,00898960530fa_sunamkmeblgteyggink.jpg,00090931230fa.jpg,sunaahedjlmtqekgyvj.jpg,00898960530fa.jpg,sunamkmeblgteyggink.jpg,,,<,Place,,,,,0,,,,,,,o
60,34,Memory,1,,,,,,,sunaeuzwggvibufclwf.jpg,,,,,,,,,,,,,,,
61,34,Memory,1,,,,,,,sunabxmguapjekttvwm.jpg,,,,,,,,,,,,,,,
62,34,Memory,1,,,,,,,sunbprywzqxjcezkbch.jpg,,,,,,,,,,,,,,,
63,34,Memory,1,,,,,,,00750941201fa.jpg,,,,,,,,,,,,,,,
64,34,Memory,1,,,,,,,00785941205fa.jpg,,,,,,,,,,,,,,,
65,34,Memory,1,,,,,,,00787960620fa.jpg,,,,,,,,,,,,,,,
66,34,Memory,1,,,,,,,00730960620fa.jpg,,,,,,,,,,,,,,,
67,34,Memory,1,,,,,,,00815941205fa.jpg,,,,,,,,,,,,,,,
68,34,Memory,1,,,,,,,00993960627fa.jpg,,,,,,,,,,,,,,,
69,34,Memory,1,,,,,,,sunaakvmbftkrgqhjun.jpg,,,,,,,,,,,,,,,
70,34,Memory,1,,,,,,,sunaekgzpfilgjxpeyq.jpg,,,,,,,,,,,,,,,
71,34,Memory,1,,,,,,,00885960530fa.jpg,,,,,,,,,,,,,,,
72,34,Memory,1,,,,,,,sunakwlvxjpddialozd.jpg,,,,,,,,,,,,,,,
73,34,Memory,1,,,,,,,00778941205fa.jpg,,,,,,,,,,,,,,,
74,34,Memory,1,,,,,,,sunagoufulkpsxrmklt.jpg,,,,,,,,,,,,,,,
75,34,Memory,1,,,,,,,sunaqsolmfydodnakub.jpg,,,,,,,,,,,,,,,
76,34,Memory,1,,,,,,,00316940422fa.jpg,,,,,,,,,,,,,,,
77,34,Memory,1,,,,,,,00090931230fa.jpg,,,,,,,,,,,,,,,
78,34,Memory,1,,,,,,,sunaaiqiqcggrskoqgy.jpg,,,,,,,,,,,,,,,
79,34,Memory,1,,,,,,,00647941031fa.jpg,,,,,,,,,,,,,,,
80,34,Memory,1,,,,,,,sunaauueuhhvklldjik.jpg,,,,,,,,,,,,,,,
81,34,Memory,1,,,,,,,sunagcthdfirrcawoic.jpg,,,,,,,,,,,,,,,
82,34,Memory,1,,,,,,,sunacacflqoyxhsqzhe.jpg,,,,,,,,,,,,,,,
83,34,Memory,1,,,,,,,00937960627fa.jpg,,,,,,,,,,,,,,,
84,34,Memory,1,,,,,,,sunaajuzribjrizdshh.jpg,,,,,,,,,,,,,,,
85,34,Memory,1,,,,,,,00096931230fa.jpg,,,,,,,,,,,,,,,
86,34,Memory,1,,,,,,,sunadflbrkckmepztql.jpg,,,,,,,,,,,,,,,
87,34,Memory,1,,,,,,,00210940128fb.jpg,,,,,,,,,,,,,,,
88,34,Memory,1,,,,,,,sunahiphsekjihkafsl.jpg,,,,,,,,,,,,,,,
89,34,Memory,1,,,,,,,sunabanoxjtqxamkucc.jpg,,,,,,,,,,,,,,,
90,34,Memory,1,,,,,,,sunafvcflzhlqloapyo.jpg,,,,,,,,,,,,,,,
91,34,Memory,1,,,,,,,00154931230fa.jpg,,,,,,,,,,,,,,,
92,34,Memory,1,,,,,,,sunaahedjlmtqekgyvj.jpg,,,,,,,,,,,,,,,
93,34,Memory,1,,,,,,,sunaglqunwuycxydmyu.jpg,,,,,,,,,,,,,,,
94,34,Memory,1,,,,,,,00507940519fa.jpg,,,,,,,,,,,,,,,
95,34,Memory,1,,,,,,,00773941201fa.jpg,,,,,,,,,,,,,,,
96,34,Memory,1,,,,,,,00836940307fa.jpg,,,,,,,,,,,,,,,
97,34,Memory,1,,,,,,,sunainqelldeebvxtcz.jpg,,,,,,,,,,,,,,,
98,34,Memory,1,,,,,,,00109931230fa.jpg,,,,,,,,,,,,,,,
99,34,Memory,1,,,,,,,00119931230fb.jpg,,,,,,,,,,,,,,,
100,34,Presentation,2,00797960620fa_sunagufzbeteqdjxais.jpg,00554940519fa_sunacfdkbsrughwqwtt.jpg,00797960620fa.jpg,sunagufzbeteqdjxais.jpg,00554940519fa.jpg,sunacfdkbsrughwqwtt.jpg,,,<,Face,,,,,1,,,,,,,x
101,34,Presentation,2,00262940128fa_sunabizydfotqddlnjp.jpg,00876960620fa_sunajwqkfsykceonyig.jpg,00262940128fa.jpg,sunabizydfotqddlnjp.jpg,00876960620fa.jpg,sunajwqkfsykceonyig.jpg,,,>,Face,,,,,1,,,,,,,x
102,34,Presentation,2,00788941205fa_sunagountlxpzkytsmp.jpg,00839940307fa_sunaipyohrqlwngaqif.jpg,00788941205fa.jpg,sunagountlxpzkytsmp.jpg,00839940307fa.jpg,sunaipyohrqlwngaqif.jpg,,,<,Place,,,,,1,,,,,,,o
103,34,Presentation,2,00061931230fb_sunaaekxzjzrfgtkwjf.jpg,00868960307fa_sunajjxttslobudoqbv.jpg,00061931230fb.jpg,sunaaekxzjzrfgtkwjf.jpg,00868960307fa.jpg,sunajjxttslobudoqbv.jpg,,,>,Place,,,,,1,,,,,,,x
104,34,Presentation,2,00294940422fb_sunabrlndkruqokhury.jpg,00766960620fa_sunafijbgncijwykrnl.jpg,00294940422fb.jpg,sunabrlndkruqokhury.jpg,00766960620fa.jpg,sunafijbgncijwykrnl.jpg,,,>,Place,,,,,1,,,,,,,x
105,34,Presentation,2,00834940307fa_sunaibnpvhkdpdnzcnz.jpg,00127931230fa_sunaampvucecsfbdafn.jpg,00834940307fa.jpg,sunaibnpvhkdpdnzcnz.jpg,00127931230fa.jpg,sunaampvucecsfbdafn.jpg,,,<,Face,,,,,1,,,,,,,o
106,34,Presentation,2,00140931230fb_sunaapllqyqlykszopd.jpg,00851940307fa_sunaivflshbyfrfzhqb.jpg,00140931230fb.jpg,sunaapllqyqlykszopd.jpg,00851940307fa.jpg,sunaivflshbyfrfzhqb.jpg,,,>,Face,,,,,1,,,,,,,o
107,34,Presentation,2,00568940928fa_sunacsdhbbsybcyxnel.jpg,00970960627fa_sunbasypfgzjtomktmu.jpg,00568940928fa.jpg,sunacsdhbbsybcyxnel.jpg,00970960627fa.jpg,sunbasypfgzjtomktmu.jpg,,,<,Place,,,,,1,,,,,,,x
108,34,Presentation,2,00125931230fa_sunaalltyvjhbzhkmvg.jpg,00862940307fa_sunaizgnnplsvajzhkc.jpg,00125931230fa.jpg,sunaalltyvjhbzhkmvg.jpg,00862940307fa.jpg,sunaizgnnplsvajzhkc.jpg,,,<,Face,,,,,1,,,,,,,x
109,34,Presentation,2,00197940128fa_sunaaylzyqlqrsmfwif.jpg,00095931230fa_sunaahzooisqkwlxwoz.jpg,00197940128fa.jpg,sunaaylzyqlqrsmfwif.jpg,00095931230fa.jpg,sunaahzooisqkwlxwoz.jpg,,,>,Place,,,,,1,,,,,,,x
110,34,Memory,2,,,,,,,sunahedfrhtcwpneund.jpg,,,,,,,,,,,,,,,
111,34,Memory,2,,,,,,,sunacsdhbbsybcyxnel.jpg,,,,,,,,,,,,,,,
112,34,Memory,2,,,,,,,00887960530.jpg,,,,,,,,,,,,,,,
113,34,Memory,2,,,,,,,sunbmaiocftdtvnzgap.jpg,,,,,,,,,,,,,,,
114,34,Memory,2,,,,,,,sunaapllqyqlykszopd.jpg,,,,,,,,,,,,,,,
115,34,Memory,2,,,,,,,00900960530fa.jpg,,,,,,,,,,,,,,,
116,34,Memory,2,,,,,,,sunaipyohrqlwngaqif.jpg,,,,,,,,,,,,,,,
117,34,Memory,2,,,,,,,sunacfdkbsrughwqwtt.jpg,,,,,,,,,,,,,,,
118,34,Memory,2,,,,,,,sunbasypfgzjtomktmu.jpg,,,,,,,,,,,,,,,
119,34,Memory,2,,,,,,,sunalcrtwiycqobgelp.jpg,,,,,,,,,,,,,,,
120,34,Memory,2,,,,,,,sunaizgnnplsvajzhkc.jpg,,,,,,,,,,,,,,,
121,34,Memory,2,,,,,,,sunaaekxzjzrfgtkwjf.jpg,,,,,,,,,,,,,,,
122,34,Memory,2,,,,,,,00811960530fa.jpg,,,,,,,,,,,,,,,
123,34,Memory,2,,,,,,,sunaatpeezlljqaxlhj.jpg,,,,,,,,,,,,,,,
124,34,Memory,2,,,,,,,00568940928fa.jpg,,,,,,,,,,,,,,,
125,34,Memory,2,,,,,,,sunabwjvmoaddlyxfjr.jpg,,,,,,,,,,,,,,,
126,34,Memory,2,,,,,,,sunaazzyhbvqjpmazjq.jpg,,,,,,,,,,,,,,,
127,34,Memory,2,,,,,,,00862940307fa.jpg,,,,,,,,,,,,,,,
128,34,Memory,2,,,,,,,sunamlotskmmsjeogby.jpg,,,,,,,,,,,,,,,
129,34,Memory,2,,,,,,,00988960627fa.jpg,,,,,,,,,,,,,,,
130,34,Memory,2,,,,,,,00313940422fa.jpg,,,,,,,,,,,,,,,
131,34,Memory,2,,,,,,,00144931230fb.jpg,,,,,,,,,,,,,,,
132,34,Memory,2,,,,,,,sunaaelyvurpntclgau.jpg,,,,,,,,,,,,,,,
133,34,Memory,2,,,,,,,00970960627fa.jpg,,,,,,,,,,,,,,,
134,34,Memory,2,,,,,,,00061931230fb.jpg,,,,,,,,,,,,,,,
135,34,Memory,2,,,,,,,00208940128fa.jpg,,,,,,,,,,,,,,,
136,34,Memory,2,,,,,,,00901960530fa.jpg,,,,,,,,,,,,,,,
137,34,Memory,2,,,,,,,00834940307fa.jpg,,,,,,,,,,,,,,,
138,34,Memory,2,,,,,,,00788941205fa.jpg,,,,,,,,,,,,,,,
139,34,Memory,2,,,,,,,00140931230fb.jpg,,,,,,,,,,,,,,,
140,34,Memory,2,,,,,,,00839940307fa.jpg,,,,,,,,,,,,,,,
141,34,Memory,2,,,,,,,00766960620fa.jpg,,,,,,,,,,,,,,,
142,34,Memory,2,,,,,,,sunammbnoambmhdxdwd.jpg,,,,,,,,,,,,,,,
143,34,Memory,2,,,,,,,00063931230fa.jpg,,,,,,,,,,,,,,,
144,34,Memory,2,,,,,,,sunaathajvxrgptwhoj.jpg,,,,,,,,,,,,,,,
145,34,Memory,2,,,,,,,00554940519fa.jpg,,,,,,,,,,,,,,,
146,34,Memory,2,,,,,,,sunafijbgncijwykrnl.jpg,,,,,,,,,,,,,,,
147,34,Memory,2,,,,,,,sunagountlxpzkytsmp.jpg,,,,,,,,,,,,,,,
148,34,Memory,2,,,,,,,sunaibnpvhkdpdnzcnz.jpg,,,,,,,,,,,,,,,
149,34,Memory,2,,,,,,,00146960620fb.jpg,,,,,,,,,,,,,,,
150,34,Presentation,3,00786941205fa_sunagmhildamktmqjss.jpg,00949960627fb_sunasnqkkyhilqkxiqm.jpg,00786941205fa.jpg,sunagmhildamktmqjss.jpg,00949960627fb.jpg,sunasnqkkyhilqkxiqm.jpg,,,<,Place,,,,,1,,,,,,,x
151,34,Presentation,3,00745941205fa_sunaeouogqolxvggaoq.jpg,00101931230fb_sunaajqmsaavkmgbsth.jpg,00745941205fa.jpg,sunaeouogqolxvggaoq.jpg,00101931230fb.jpg,sunaajqmsaavkmgbsth.jpg,,,>,Face,,,,,0,,,,,,,x
152,34,Presentation,3,00266940128fb_sunabkngeblodihjvbk.jpg,00242940128fa_sunabcuurugvxwparpk.jpg,00266940128fb.jpg,sunabkngeblodihjvbk.jpg,00242940128fa.jpg,sunabcuurugvxwparpk.jpg,,,<,Face,,,,,1,,,,,,,o
153,34,Presentation,3,00921960627fa_sunapqkpqdfvxlbqwyo.jpg,00562941031fa_sunacjnahdmqfnjfwqx.jpg,00921960627fa.jpg,sunapqkpqdfvxlbqwyo.jpg,00562941031fa.jpg,sunacjnahdmqfnjfwqx.jpg,,,>,Place,,,,,1,,,,,,,o
154,34,Presentation,3,00959960627fa_sunavxokzybtomhbmvm.jpg,00807941205fa_sunahawfngukizslzsd.jpg,00959960627fa.jpg,sunavxokzybtomhbmvm.jpg,00807941205fa.jpg,sunahawfngukizslzsd.jpg,,,<,Place,,,,,1,,,,,,,o
155,34,Presentation,3,00805941205fa_sunagwzdbtlixdhgolm.jpg,00073931230fa_sunaafbmtoniaasysgu.jpg,00805941205fa.jpg,sunagwzdbtlixdhgolm.jpg,00073931230fa.jpg,sunaafbmtoniaasysgu.jpg,,,<,Face,,,,,1,,,,,,,x
156,34,Presentation,3,00742941201fa_sunaenwuebvlpdmntju.jpg,00910960530fa_sunaofikylqtxphvdem.jpg,00742941201fa.jpg,sunaenwuebvlpdmntju.jpg,00910960530fa.jpg,sunaofikylqtxphvdem.jpg,,,>,Place,,,,,1,,,,,,,o
157,34,Presentation,3,00609940928fa_sunacycdoztxoluxjyk.jpg,00746941201fa_sunaetydippjxikifsb.jpg,00609940928fa.jpg,sunacycdoztxoluxjyk.jpg,00746941201fa.jpg,sunaetydippjxikifsb.jpg,,,>,Face,,,,,1,,,,,,,o
158,34,Presentation,3,00809960620fa_sunahbvlpavurqoxdeq.jpg,00060931230fa_sunaaehaikpckyjsety.jpg,00809960620fa.jpg,sunahbvlpavurqoxdeq.jpg,00060931230fa.jpg,sunaaehaikpckyjsety.jpg,,,<,Place,,,,,1,,,,,,,o
159,34,Presentation,3,00076931230fa_sunaafewhewbxmjiurz.jpg,00292940422fb_sunabrjdpmoedcdjbpo.jpg,00076931230fa.jpg,sunaafewhewbxmjiurz.jpg,00292940422fb.jpg,sunabrjdpmoedcdjbpo.jpg,,,>,Face,,,,,1,,,,,,,x
160,34,Memory,3,,,,,,,sunaafbmtoniaasysgu.jpg,,,,,,,,,,,,,,,
161,34,Memory,3,,,,,,,00910960530fa.jpg,,,,,,,,,,,,,,,
162,34,Memory,3,,,,,,,00786941205fa.jpg,,,,,,,,,,,,,,,
163,34,Memory,3,,,,,,,00745941205fa.jpg,,,,,,,,,,,,,,,
164,34,Memory,3,,,,,,,00805941205fa.jpg,,,,,,,,,,,,,,,
165,34,Memory,3,,,,,,,00292940422fb.jpg,,,,,,,,,,,,,,,
166,34,Memory,3,,,,,,,00959960627fa.jpg,,,,,,,,,,,,,,,
167,34,Memory,3,,,,,,,00812941205fa.jpg,,,,,,,,,,,,,,,
168,34,Memory,3,,,,,,,suncnkvbhypnivcohyx.jpg,,,,,,,,,,,,,,,
169,34,Memory,3,,,,,,,sunabrjdpmoedcdjbpo.jpg,,,,,,,,,,,,,,,
170,34,Memory,3,,,,,,,00111931230fb.jpg,,,,,,,,,,,,,,,
171,34,Memory,3,,,,,,,sunadakkdovnuzlycvp.jpg,,,,,,,,,,,,,,,
172,34,Memory,3,,,,,,,00963960627fa.jpg,,,,,,,,,,,,,,,
173,34,Memory,3,,,,,,,sunacjnahdmqfnjfwqx.jpg,,,,,,,,,,,,,,,
174,34,Memory,3,,,,,,,sunajbwkywmsqkldfml.jpg,,,,,,,,,,,,,,,
175,34,Memory,3,,,,,,,sunadvithllcgmfxsrn.jpg,,,,,,,,,,,,,,,
176,34,Memory,3,,,,,,,00795941205fa.jpg,,,,,,,,,,,,,,,
177,34,Memory,3,,,,,,,sunavxokzybtomhbmvm.jpg,,,,,,,,,,,,,,,
178,34,Memory,3,,,,,,,sunayaepykrqvenaqqy.jpg,,,,,,,,,,,,,,,
179,34,Memory,3,,,,,,,sunagwzdbtlixdhgolm.jpg,,,,,,,,,,,,,,,
180,34,Memory,3,,,,,,,00562941031fa.jpg,,,,,,,,,,,,,,,
181,34,Memory,3,,,,,,,00630941031fa.jpg,,,,,,,,,,,,,,,
182,34,Memory,3,,,,,,,sunabohxbskznglnrhv.jpg,,,,,,,,,,,,,,,
183,34,Memory,3,,,,,,,sunagmhildamktmqjss.jpg,,,,,,,,,,,,,,,
184,34,Memory,3,,,,,,,sunanainkqdvktzoxyl.jpg,,,,,,,,,,,,,,,
185,34,Memory,3,,,,,,,sunaofikylqtxphvdem.jpg,,,,,,,,,,,,,,,
186,34,Memory,3,,,,,,,sunagtumacdlmciqamz.jpg,,,,,,,,,,,,,,,
187,34,Memory,3,,,,,,,sunaeouogqolxvggaoq.jpg,,,,,,,,,,,,,,,
188,34,Memory,3,,,,,,,00719941201fa.jpg,,,,,,,,,,,,,,,
189,34,Memory,3,,,,,,,00903960620fa.jpg,,,,,,,,,,,,,,,
190,34,Memory,3,,,,,,,sunahgtbwgsmtqeodwh.jpg,,,,,,,,,,,,,,,
191,34,Memory,3,,,,,,,01010960627fa.jpg,,,,,,,,,,,,,,,
192,34,Memory,3,,,,,,,00073931230fa.jpg,,,,,,,,,,,,,,,
193,34,Memory,3,,,,,,,sunaakgekhjklxmvulj.jpg,,,,,,,,,,,,,,,
194,34,Memory,3,,,,,,,sunapqkpqdfvxlbqwyo.jpg,,,,,,,,,,,,,,,
195,34,Memory,3,,,,,,,00866940307fa.jpg,,,,,,,,,,,,,,,
196,34,Memory,3,,,,,,,00060931230fa.jpg,,,,,,,,,,,,,,,
197,34,Memory,3,,,,,,,00280940422fb.jpg,,,,,,,,,,,,,,,
198,34,Memory,3,,,,,,,00921960627fa.jpg,,,,,,,,,,,,,,,
199,34,Memory,3,,,,,,,sunaaehaikpckyjsety.jpg,,,,,,,,,,,,,,,
200,34,Presentation,4,00093931230fa_sunaahwnmtqsrhocysw.jpg,00804960530fa_sunagwswhkvnsmuszlz.jpg,00093931230fa.jpg,sunaahwnmtqsrhocysw.jpg,00804960530fa.jpg,sunagwswhkvnsmuszlz.jpg,,,<,Place,,,,,1,,,,,,,o
201,34,Presentation,4,00776941205fa_sunafxokyavhgptyfye.jpg,00825940307fa_sunahrltmuwbiehihpe.jpg,00776941205fa.jpg,sunafxokyavhgptyfye.jpg,00825940307fa.jpg,sunahrltmuwbiehihpe.jpg,,,>,Face,,,,,1,,,,,,,x
202,34,Presentation,4,00944960627fa_sunasbbntuiheekqyaq.jpg,00149931230fa_sunaauglwmctnkxyird.jpg,00944960627fa.jpg,sunasbbntuiheekqyaq.jpg,00149931230fa.jpg,sunaauglwmctnkxyird.jpg,,,>,Face,,,,,1,,,,,,,o
203,34,Presentation,4,00955960627fb_sunauburywlkjszngcq.jpg,00296940422fa_sunabrwnslxalcohfre.jpg,00955960627fb.jpg,sunauburywlkjszngcq.jpg,00296940422fa.jpg,sunabrwnslxalcohfre.jpg,,,>,Face,,,,,1,,,,,,,x
204,34,Presentation,4,00221940128fa_sunabcfpwlpolnutyju.jpg,00638941031fa_sunadfktsqjthoglcsm.jpg,00221940128fa.jpg,sunabcfpwlpolnutyju.jpg,00638941031fa.jpg,sunadfktsqjthoglcsm.jpg,,,<,Place,,,,,1,,,,,,,o
205,34,Presentation,4,00138931230fa_sunaapfaivxqoynnwwp.jpg,00214940128fa_sunabbafjowbzcvbucc.jpg,00138931230fa.jpg,sunaapfaivxqoynnwwp.jpg,00214940128fa.jpg,sunabbafjowbzcvbucc.jpg,,,>,Place,,,,,1,,,,,,,o
206,34,Presentation,4,00650941031fa_sunadikxpvqeabxrvvc.jpg,00754941201fa_sunaffgsyyvoqdlkmnk.jpg,00650941031fa.jpg,sunadikxpvqeabxrvvc.jpg,00754941201fa.jpg,sunaffgsyyvoqdlkmnk.jpg,,,>,Place,,,,,1,,,,,,,x
207,34,Presentation,4,00752960620fa_sunafbwnojpqeyzssoe.jpg,00926960627Fa_sunapqwoeotxshkukbh.jpg,00752960620fa.jpg,sunafbwnojpqeyzssoe.jpg,00926960627Fa.jpg,sunapqwoeotxshkukbh.jpg,,,<,Place,,,,,1,,,,,,,o
208,34,Presentation,4,00532960627fa_sunaccdtpgenvcbcbcf.jpg,00952960627fa_sunathzzbcwjykldrem.jpg,00532960627fa.jpg,sunaccdtpgenvcbcbcf.jpg,00952960627fa.jpg,sunathzzbcwjykldrem.jpg,,,<,Face,,,,,1,,,,,,,o
209,34,Presentation,4,00081941031fa_sunaaftlyfudyzuhqzf.jpg,00062931230fb_sunaaelotvjgibjtjhs.jpg,00081941031fa.jpg,sunaaftlyfudyzuhqzf.jpg,00062931230fb.jpg,sunaaelotvjgibjtjhs.jpg,,,<,Face,,,,,1,,,,,,,x
210,34,Memory,4,,,,,,,sunasbbntuiheekqyaq.jpg,,,,,,,,,,,,,,,
211,34,Memory,4,,,,,,,00908960530fa.jpg,,,,,,,,,,,,,,,
212,34,Memory,4,,,,,,,sunafxokyavhgptyfye.jpg,,,,,,,,,,,,,,,
213,34,Memory,4,,,,,,,sunadtlxenqqxsyjvix.jpg,,,,,,,,,,,,,,,
214,34,Memory,4,,,,,,,sunacwggadqsfpovdjv.jpg,,,,,,,,,,,,,,,
215,34,Memory,4,,,,,,,00650941031fa.jpg,,,,,,,,,,,,,,,
216,34,Memory,4,,,,,,,sunaauglwmctnkxyird.jpg,,,,,,,,,,,,,,,
217,34,Memory,4,,,,,,,sunadikxpvqeabxrvvc.jpg,,,,,,,,,,,,,,,
218,34,Memory,4,,,,,,,sunathzzbcwjykldrem.jpg,,,,,,,,,,,,,,,
219,34,Memory,4,,,,,,,sunacmpqqfbsvlzinzl.jpg,,,,,,,,,,,,,,,
220,34,Memory,4,,,,,,,sunahrltmuwbiehihpe.jpg,,,,,,,,,,,,,,,
221,34,Memory,4,,,,,,,sunaafvitpexrpvumsa.jpg,,,,,,,,,,,,,,,
222,34,Memory,4,,,,,,,00162931230fb.jpg,,,,,,,,,,,,,,,
223,34,Memory,4,,,,,,,00804960530fa.jpg,,,,,,,,,,,,,,,
224,34,Memory,4,,,,,,,00990960627fa.jpg,,,,,,,,,,,,,,,
225,34,Memory,4,,,,,,,00944960627fa.jpg,,,,,,,,,,,,,,,
226,34,Memory,4,,,,,,,00705941205fa.jpg,,,,,,,,,,,,,,,
227,34,Memory,4,,,,,,,00925960627fa.jpg,,,,,,,,,,,,,,,
228,34,Memory,4,,,,,,,00093931230fa.jpg,,,,,,,,,,,,,,,
229,34,Memory,4,,,,,,,00825940307fa.jpg,,,,,,,,,,,,,,,
230,34,Memory,4,,,,,,,00776941205fa.jpg,,,,,,,,,,,,,,,
231,34,Memory,4,,,,,,,sunaavjinpnkappuonm.jpg,,,,,,,,,,,,,,,
232,34,Memory,4,,,,,,,sunbpflsdaxnddnwcqi.jpg,,,,,,,,,,,,,,,
233,34,Memory,4,,,,,,,00589940928fa.jpg,,,,,,,,,,,,,,,
234,34,Memory,4,,,,,,,sunapqwnqzxlsfvgsjm.jpg,,,,,,,,,,,,,,,
235,34,Memory,4,,,,,,,00149931230fa.jpg,,,,,,,,,,,,,,,
236,34,Memory,4,,,,,,,00638941031fa.jpg,,,,,,,,,,,,,,,
237,34,Memory,4,,,,,,,00952960627fa.jpg,,,,,,,,,,,,,,,
238,34,Memory,4,,,,,,,sunaahwnmtqsrhocysw.jpg,,,,,,,,,,,,,,,
239,34,Memory,4,,,,,,,sunbbgtoeuzierkkajt.jpg,,,,,,,,,,,,,,,
240,34,Memory,4,,,,,,,sunanwjjyqqwzqrqagd.jpg,,,,,,,,,,,,,,,
241,34,Memory,4,,,,,,,00955960627fb.jpg,,,,,,,,,,,,,,,
242,34,Memory,4,,,,,,,sunaaexpnawiehinlpy.jpg,,,,,,,,,,,,,,,
243,34,Memory,4,,,,,,,00973960627fa.jpg,,,,,,,,,,,,,,,
244,34,Memory,4,,,,,,,00564940928fa.jpg,,,,,,,,,,,,,,,
245,34,Memory,4,,,,,,,sunagwswhkvnsmuszlz.jpg,,,,,,,,,,,,,,,
246,34,Memory,4,,,,,,,sunauburywlkjszngcq.jpg,,,,,,,,,,,,,,,
247,34,Memory,4,,,,,,,00082931230fa.jpg,,,,,,,,,,,,,,,
248,34,Memory,4,,,,,,,sunadfktsqjthoglcsm.jpg,,,,,,,,,,,,,,,
249,34,Memory,4,,,,,,,00071940128fa.jpg,,,,,,,,,,,,,,,
250,34,Presentation,5,00884960530fa_sunakodkcslgqhqlgwl.jpg,00869940307fa_sunajoveqhiprwqgoco.jpg,00884960530fa.jpg,sunakodkcslgqhqlgwl.jpg,00869940307fa.jpg,sunajoveqhiprwqgoco.jpg,,,>,Place,,,,,1,,,,,,,x
251,34,Presentation,5,00818940307fa_sunahpblecxtmuzkmxb.jpg,00913960530fa_sunaooffzffbhcpirmm.jpg,00818940307fa.jpg,sunahpblecxtmuzkmxb.jpg,00913960530fa.jpg,sunaooffzffbhcpirmm.jpg,,,>,Face,,,,,1,,,,,,,x
252,34,Presentation,5,00982960627fa_sunbesrwkdsffeogeqq.jpg,00505960627fa_sunabzuqsrgcsonqlkz.jpg,00982960627fa.jpg,sunbesrwkdsffeogeqq.jpg,00505960627fa.jpg,sunabzuqsrgcsonqlkz.jpg,,,<,Face,,,,,0,,,,,,,o
253,34,Presentation,5,00772941201fa_sunafpfpiiujzoesnqg.jpg,00848940307fa_sunaivdylrawbmhryfp.jpg,00772941201fa.jpg,sunafpfpiiujzoesnqg.jpg,00848940307fa.jpg,sunaivdylrawbmhryfp.jpg,,,>,Face,,,,,0,,,,,,,x
254,34,Presentation,5,00482940519fa_sunabyfxcxhdebvdyfd.jpg,00620940928fa_sunacypmnujalygkunp.jpg,00482940519fa.jpg,sunabyfxcxhdebvdyfd.jpg,00620940928fa.jpg,sunacypmnujalygkunp.jpg,,,<,Place,,,,,1,,,,,,,x
255,34,Presentation,5,00780960530fa_sunagetqixeypsysbpn.jpg,00092931230fa_sunaaheqzstzxuadglu.jpg,00780960530fa.jpg,sunagetqixeypsysbpn.jpg,00092931230fa.jpg,sunaaheqzstzxuadglu.jpg,,,<,Place,,,,,1,,,,,,,o
256,34,Presentation,5,00235940128fb_sunabclssnoeuigtawp.jpg,00782941205fa_sunagfvluwixdsozaql.jpg,00235940128fb.jpg,sunabclssnoeuigtawp.jpg,00782941205fa.jpg,sunagfvluwixdsozaql.jpg,,,<,Face,,,,,1,,,,,,,o
257,34,Presentation,5,00288940422fa_sunabppokiyglaxpcha.jpg,00631940928fa_sunadbdqzigzwipuipr.jpg,00288940422fa.jpg,sunabppokiyglaxpcha.jpg,00631940928fa.jpg,sunadbdqzigzwipuipr.jpg,,,<,Place,,,,,1,,,,,,,x
258,34,Presentation,5,00543940519fa_sunacepzfrmtkiqonpy.jpg,00972960627fa_sunbbfqwjpdxniyhies.jpg,00543940519fa.jpg,sunacepzfrmtkiqonpy.jpg,00972960627fa.jpg,sunbbfqwjpdxniyhies.jpg,,,>,Place,,,,,1,,,,,,,o
259,34,Presentation,5,00163931230fb_sunaavodbcpygkggnfp.jpg,00265940128fb_sunabkmdplkdbvxriff.jpg,00163931230fb.jpg,sunaavodbcpygkggnfp.jpg,00265940128fb.jpg,sunabkmdplkdbvxriff.jpg,,,>,Face,,,,,1,,,,,,,o
260,34,Memory,5,,,,,,,sunaalcrrdbjgdztbiz.jpg,,,,,,,,,,,,,,,
261,34,Memory,5,,,,,,,00884960530fa.jpg,,,,,,,,,,,,,,,
262,34,Memory,5,,,,,,,00905960530fa.jpg,,,,,,,,,,,,,,,
263,34,Memory,5,,,,,,,00123931230fb.jpg,,,,,,,,,,,,,,,
264,34,Memory,5,,,,,,,sunabkmdplkdbvxriff.jpg,,,,,,,,,,,,,,,
265,34,Memory,5,,,,,,,00069931230fb.jpg,,,,,,,,,,,,,,,
266,34,Memory,5,,,,,,,sunapqkyghktgtosuuk.jpg,,,,,,,,,,,,,,,
267,34,Memory,5,,,,,,,sunaavodbcpygkggnfp.jpg,,,,,,,,,,,,,,,
268,34,Memory,5,,,,,,,00986960627fa.jpg,,,,,,,,,,,,,,,
269,34,Memory,5,,,,,,,sunafvwfsmqkjrutjta.jpg,,,,,,,,,,,,,,,
270,34,Memory,5,,,,,,,00288940422fa.jpg,,,,,,,,,,,,,,,
271,34,Memory,5,,,,,,,sunanmoqeyprjjjfxjt.jpg,,,,,,,,,,,,,,,
272,34,Memory,5,,,,,,,00505960627fa.jpg,,,,,,,,,,,,,,,
273,34,Memory,5,,,,,,,sunagfvluwixdsozaql.jpg,,,,,,,,,,,,,,,
274,34,Memory,5,,,,,,,00799941205fa.jpg,,,,,,,,,,,,,,,
275,34,Memory,5,,,,,,,sunabzuqsrgcsonqlkz.jpg,,,,,,,,,,,,,,,
276,34,Memory,5,,,,,,,sunaivdjruhkrfywfed.jpg,,,,,,,,,,,,,,,
277,34,Memory,5,,,,,,,00982960627fa.jpg,,,,,,,,,,,,,,,
278,34,Memory,5,,,,,,,sunbgzjryivyczuvkvm.jpg,,,,,,,,,,,,,,,
279,34,Memory,5,,,,,,,00761960627fa.jpg,,,,,,,,,,,,,,,
280,34,Memory,5,,,,,,,00922960627fa.jpg,,,,,,,,,,,,,,,
281,34,Memory,5,,,,,,,sunbesrwkdsffeogeqq.jpg,,,,,,,,,,,,,,,
282,34,Memory,5,,,,,,,sunabppokiyglaxpcha.jpg,,,,,,,,,,,,,,,
283,34,Memory,5,,,,,,,00265940128fb.jpg,,,,,,,,,,,,,,,
284,34,Memory,5,,,,,,,00772941201fa.jpg,,,,,,,,,,,,,,,
285,34,Memory,5,,,,,,,sunafgdqbclkwfocdhg.jpg,,,,,,,,,,,,,,,
286,34,Memory,5,,,,,,,sunakodkcslgqhqlgwl.jpg,,,,,,,,,,,,,,,
287,34,Memory,5,,,,,,,00136931230fb.jpg,,,,,,,,,,,,,,,
288,34,Memory,5,,,,,,,00631940928fa.jpg,,,,,,,,,,,,,,,
289,34,Memory,5,,,,,,,00775941205fa.jpg,,,,,,,,,,,,,,,
290,34,Memory,5,,,,,,,sunaanptmsknhirrzed.jpg,,,,,,,,,,,,,,,
291,34,Memory,5,,,,,,,00163931230fb.jpg,,,,,,,,,,,,,,,
292,34,Memory,5,,,,,,,sunafpfpiiujzoesnqg.jpg,,,,,,,,,,,,,,,
293,34,Memory,5,,,,,,,00869940307fa.jpg,,,,,,,,,,,,,,,
294,34,Memory,5,,,,,,,sunagutjvdvnhxejerz.jpg,,,,,,,,,,,,,,,
295,34,Memory,5,,,,,,,00782941205fa.jpg,,,,,,,,,,,,,,,
296,34,Memory,5,,,,,,,sunadbdqzigzwipuipr.jpg,,,,,,,,,,,,,,,
297,34,Memory,5,,,,,,,sunajoveqhiprwqgoco.jpg,,,,,,,,,,,,,,,
298,34,Memory,5,,,,,,,00847940307fa.jpg,,,,,,,,,,,,,,,
299,34,Memory,5,,,,,,,sunaaeowapdkwzqpgqr.jpg,,,,,,,,,,,,,,,
300,34,Presentation,6,00936960627fa_sunaqgjuuwvdcyiccjt.jpg,00933960627fa_sunapwjkcxdaeqehfql.jpg,00936960627fa.jpg,sunaqgjuuwvdcyiccjt.jpg,00933960627fa.jpg,sunapwjkcxdaeqehfql.jpg,,,<,Place,,,,,1,,,,,,,x
301,34,Presentation,6,00939960627fa_sunarceibpcyacbmfga.jpg,00977960627fa_sunbbxkanhzjgbwyxqs.jpg,00939960627fa.jpg,sunarceibpcyacbmfga.jpg,00977960627fa.jpg,sunbbxkanhzjgbwyxqs.jpg,,,>,Place,,,,,1,,,,,,,o
302,34,Presentation,6,00306940422fa_sunabueyoajufbkraki.jpg,00720960620fa_sunaecpkgfewqqreqwe.jpg,00306940422fa.jpg,sunabueyoajufbkraki.jpg,00720960620fa.jpg,sunaecpkgfewqqreqwe.jpg,,,>,Face,,,,,1,,,,,,,o
303,34,Presentation,6,00889960530fa_sunaletopenvvozhpxc.jpg,00193940928fa_sunaaxjpzcnxligjtjq.jpg,00889960530fa.jpg,sunaletopenvvozhpxc.jpg,00193940928fa.jpg,sunaaxjpzcnxligjtjq.jpg,,,>,Place,,,,,1,,,,,,,o
304,34,Presentation,6,00914960620fa_sunaozisvwfbmlkfhzv.jpg,00801941205fa_sunagvprlbprarvgdvj.jpg,00914960620fa.jpg,sunaozisvwfbmlkfhzv.jpg,00801941205fa.jpg,sunagvprlbprarvgdvj.jpg,,,<,Face,,,,,1,,,,,,,x
305,34,Presentation,6,00792941205fa_sunagsiwrmuixqgdimb.jpg,00877960530fa_sunajxpkuhbizeveguy.jpg,00792941205fa.jpg,sunagsiwrmuixqgdimb.jpg,00877960530fa.jpg,sunajxpkuhbizeveguy.jpg,,,<,Place,,,,,1,,,,,,,x
306,34,Presentation,6,00938960627fa_sunaqyylsngywqzwfmx.jpg,00571940928fa_sunacuatpqpqhyjhjqk.jpg,00938960627fa.jpg,sunaqyylsngywqzwfmx.jpg,00571940928fa.jpg,sunacuatpqpqhyjhjqk.jpg,,,>,Face,,,,,0,,,,,,,o
307,34,Presentation,6,00115931230fa_sunaakmxzhuceuiryah.jpg,00935960627fa_sunaqbmgkgqucajzrkp.jpg,00115931230fa.jpg,sunaakmxzhuceuiryah.jpg,00935960627fa.jpg,sunaqbmgkgqucajzrkp.jpg,,,<,Face,,,,,1,,,,,,,x
308,34,Presentation,6,00124931230fa_sunaalhlvzmjmitybdn.jpg,01004960627fa_sunbwtlihsuptkrckid.jpg,00124931230fa.jpg,sunaalhlvzmjmitybdn.jpg,01004960627fa.jpg,sunbwtlihsuptkrckid.jpg,,,<,Face,,,,,1,,,,,,,o
309,34,Presentation,6,00768941205fa_sunafkmnlytenlsywia.jpg,00950960627fa_sunasrjlmglmjzbmqxb.jpg,00768941205fa.jpg,sunafkmnlytenlsywia.jpg,00950960627fa.jpg,sunasrjlmglmjzbmqxb.jpg,,,>,Place,,,,,1,,,,,,,o
310,34,Memory,6,,,,,,,00263940128fb.jpg,,,,,,,,,,,,,,,
311,34,Memory,6,,,,,,,00097931230fa.jpg,,,,,,,,,,,,,,,
312,34,Memory,6,,,,,,,sunacvbrcejzwmcgnoq.jpg,,,,,,,,,,,,,,,
313,34,Memory,6,,,,,,,sunagvjurcwdbixvnyi.jpg,,,,,,,,,,,,,,,
314,34,Memory,6,,,,,,,00939960627fa.jpg,,,,,,,,,,,,,,,
315,34,Memory,6,,,,,,,sunaletopenvvozhpxc.jpg,,,,,,,,,,,,,,,
316,34,Memory,6,,,,,,,00193940928fa.jpg,,,,,,,,,,,,,,,
317,34,Memory,6,,,,,,,sunaajayojuslbbnneg.jpg,,,,,,,,,,,,,,,
318,34,Memory,6,,,,,,,sunaafjszryxyavjzln.jpg,,,,,,,,,,,,,,,
319,34,Memory,6,,,,,,,00950960627fa.jpg,,,,,,,,,,,,,,,
320,34,Memory,6,,,,,,,00648941031fa.jpg,,,,,,,,,,,,,,,
321,34,Memory,6,,,,,,,sunbwtlihsuptkrckid.jpg,,,,,,,,,,,,,,,
322,34,Memory,6,,,,,,,sunaaxjpzcnxligjtjq.jpg,,,,,,,,,,,,,,,
323,34,Memory,6,,,,,,,00978960627fa.jpg,,,,,,,,,,,,,,,
324,34,Memory,6,,,,,,,00938960627fa.jpg,,,,,,,,,,,,,,,
325,34,Memory,6,,,,,,,00245940128fa.jpg,,,,,,,,,,,,,,,
326,34,Memory,6,,,,,,,00800941205fb.jpg,,,,,,,,,,,,,,,
327,34,Memory,6,,,,,,,sunbddbivbptlrlauhy.jpg,,,,,,,,,,,,,,,
328,34,Memory,6,,,,,,,sunasrjlmglmjzbmqxb.jpg,,,,,,,,,,,,,,,
329,34,Memory,6,,,,,,,sunaamsdyakblkfoydx.jpg,,,,,,,,,,,,,,,
330,34,Memory,6,,,,,,,sunabjzyxcjnmztdonj.jpg,,,,,,,,,,,,,,,
331,34,Memory,6,,,,,,,sunaqbmgkgqucajzrkp.jpg,,,,,,,,,,,,,,,
332,34,Memory,6,,,,,,,sunabeyhmxodahoieyk.jpg,,,,,,,,,,,,,,,
333,34,Memory,6,,,,,,,01004960627fa.jpg,,,,,,,,,,,,,,,
334,34,Memory,6,,,,,,,sunafkmnlytenlsywia.jpg,,,,,,,,,,,,,,,
335,34,Memory,6,,,,,,,00080931230fb.jpg,,,,,,,,,,,,,,,
336,34,Memory,6,,,,,,,sunarceibpcyacbmfga.jpg,,,,,,,,,,,,,,,
337,34,Memory,6,,,,,,,00768941205fa.jpg,,,,,,,,,,,,,,,
338,34,Memory,6,,,,,,,00914960620fa.jpg,,,,,,,,,,,,,,,
339,34,Memory,6,,,,,,,00977960627fa.jpg,,,,,,,,,,,,,,,
340,34,Memory,6,,,,,,,sunaqyylsngywqzwfmx.jpg,,,,,,,,,,,,,,,
341,34,Memory,6,,,,,,,00264940128fb.jpg,,,,,,,,,,,,,,,
342,34,Memory,6,,,,,,,00129931230fb.jpg,,,,,,,,,,,,,,,
343,34,Memory,6,,,,,,,00935960627fa.jpg,,,,,,,,,,,,,,,
344,34,Memory,6,,,,,,,00574940928fa.jpg,,,,,,,,,,,,,,,
345,34,Memory,6,,,,,,,sunbbxkanhzjgbwyxqs.jpg,,,,,,,,,,,,,,,
346,34,Memory,6,,,,,,,sunadfndyrtqqiasoig.jpg,,,,,,,,,,,,,,,
347,34,Memory,6,,,,,,,sunabjuovqvyfuzvqwt.jpg,,,,,,,,,,,,,,,
348,34,Memory,6,,,,,,,00889960530fa.jpg,,,,,,,,,,,,,,,
349,34,Memory,6,,,,,,,sunaozisvwfbmlkfhzv.jpg,,,,,,,,,,,,,,,
350,34,Presentation,7,00727941205fa_sunaeisnjeetzmkbuad.jpg,00239940128fa_sunabctlikybqabezjv.jpg,00727941205fa.jpg,sunaeisnjeetzmkbuad.jpg,00239940128fa.jpg,sunabctlikybqabezjv.jpg,,,<,Face,,,,,1,,,,,,,x
351,34,Presentation,7,00130931230fa_sunaamvxnvouicstkjb.jpg,00829940307fa_sunahwgbqkqcrwprgvh.jpg,00130931230fa.jpg,sunaamvxnvouicstkjb.jpg,00829940307fa.jpg,sunahwgbqkqcrwprgvh.jpg,,,>,Place,,,,,1,,,,,,,x
352,34,Presentation,7,00065931230fb_sunaaemixhfquhnxxlm.jpg,00071941031fa_sunaaexqbtdswxrqjvz.jpg,00065931230fb.jpg,sunaaemixhfquhnxxlm.jpg,00071941031fa.jpg,sunaaexqbtdswxrqjvz.jpg,,,>,Face,,,,,1,,,,,,,o
353,34,Presentation,7,00548940519fa_sunacerqowiaeoqkmsq.jpg,00987960627fa_sunbloeoiozwjjsiamp.jpg,00548940519fa.jpg,sunacerqowiaeoqkmsq.jpg,00987960627fa.jpg,sunbloeoiozwjjsiamp.jpg,,,<,Place,,,,,1,,,,,,,x
354,34,Presentation,7,00498960627fa_sunabzjxlmkwnwzimua.jpg,00227940128fa_sunabckqabszusgcykj.jpg,00498960627fa.jpg,sunabzjxlmkwnwzimua.jpg,00227940128fa.jpg,sunabckqabszusgcykj.jpg,,,>,Face,,,,,1,,,,,,,x
355,34,Presentation,7,00958960627fa_sunavspxmxubqaeidjt.jpg,00773960620fa_sunafvsxtzaizojicxx.jpg,00958960627fa.jpg,sunavspxmxubqaeidjt.jpg,00773960620fa.jpg,sunafvsxtzaizojicxx.jpg,,,<,Place,,,,,1,,,,,,,x
356,34,Presentation,7,00966960627fa_sunaygrtwrwfezqjizr.jpg,00290940422fa_sunabqowuarvqqcnipn.jpg,00966960627fa.jpg,sunaygrtwrwfezqjizr.jpg,00290940422fa.jpg,sunabqowuarvqqcnipn.jpg,,,>,Place,,,,,1,,,,,,,o
357,34,Presentation,7,00479940519fa_sunabxsbfwjccqxxzxq.jpg,00822940307fa_sunahqrxievfeusiqlt.jpg,00479940519fa.jpg,sunabxsbfwjccqxxzxq.jpg,00822940307fa.jpg,sunahqrxievfeusiqlt.jpg,,,<,Face,,,,,1,,,,,,,o
358,34,Presentation,7,00784941205fb_sunagjzcrjvmxzqzljx.jpg,00681941121fa_sunadqmjrhfjyuzyvdd.jpg,00784941205fb.jpg,sunagjzcrjvmxzqzljx.jpg,00681941121fa.jpg,sunadqmjrhfjyuzyvdd.jpg,,,>,Place,,,,,1,,,,,,,o
359,34,Presentation,7,01005960627fa_sunbwyuesflwdpqtgoy.jpg,00891960530fa_sunalkiibhqpxfamlll.jpg,01005960627fa.jpg,sunbwyuesflwdpqtgoy.jpg,00891960530fa.jpg,sunalkiibhqpxfamlll.jpg,,,<,Face,,,,,1,,,,,,,o
360,34,Memory,7,,,,,,,sunafvtpfczkzopbgue.jpg,,,,,,,,,,,,,,,
361,34,Memory,7,,,,,,,00947960627fa.jpg,,,,,,,,,,,,,,,
362,34,Memory,7,,,,,,,sunaedtgwjvvziytspa.jpg,,,,,,,,,,,,,,,
363,34,Memory,7,,,,,,,sunagcinxkccdtrjmlv.jpg,,,,,,,,,,,,,,,
364,34,Memory,7,,,,,,,sunaisiwfgppimtnmxl.jpg,,,,,,,,,,,,,,,
365,34,Memory,7,,,,,,,00841940307fa.jpg,,,,,,,,,,,,,,,
366,34,Memory,7,,,,,,,00681941121fa.jpg,,,,,,,,,,,,,,,
367,34,Memory,7,,,,,,,sunaamvxnvouicstkjb.jpg,,,,,,,,,,,,,,,
368,34,Memory,7,,,,,,,00483940519fa.jpg,,,,,,,,,,,,,,,
369,34,Memory,7,,,,,,,00891960530fa.jpg,,,,,,,,,,,,,,,
370,34,Memory,7,,,,,,,sunaayehfdqcyxggsej.jpg,,,,,,,,,,,,,,,
371,34,Memory,7,,,,,,,00966960627fa.jpg,,,,,,,,,,,,,,,
372,34,Memory,7,,,,,,,sunbvbrvgbpanfrawft.jpg,,,,,,,,,,,,,,,
373,34,Memory,7,,,,,,,00773960620fa.jpg,,,,,,,,,,,,,,,
374,34,Memory,7,,,,,,,00065931230fb.jpg,,,,,,,,,,,,,,,
375,34,Memory,7,,,,,,,sunajtrfunvzdfticna.jpg,,,,,,,,,,,,,,,
376,34,Memory,7,,,,,,,sunabxsbfwjccqxxzxq.jpg,,,,,,,,,,,,,,,
377,34,Memory,7,,,,,,,00774941201fa.jpg,,,,,,,,,,,,,,,
378,34,Memory,7,,,,,,,00777941205fa.jpg,,,,,,,,,,,,,,,
379,34,Memory,7,,,,,,,sunasmmcxdddtmtazwx.jpg,,,,,,,,,,,,,,,
380,34,Memory,7,,,,,,,sunaygrtwrwfezqjizr.jpg,,,,,,,,,,,,,,,
381,34,Memory,7,,,,,,,00967960627fa.jpg,,,,,,,,,,,,,,,
382,34,Memory,7,,,,,,,00829940307fa.jpg,,,,,,,,,,,,,,,
383,34,Memory,7,,,,,,,sunavspxmxubqaeidjt.jpg,,,,,,,,,,,,,,,
384,34,Memory,7,,,,,,,sunabqowuarvqqcnipn.jpg,,,,,,,,,,,,,,,
385,34,Memory,7,,,,,,,00130931230fa.jpg,,,,,,,,,,,,,,,
386,34,Memory,7,,,,,,,sunaaemixhfquhnxxlm.jpg,,,,,,,,,,,,,,,
387,34,Memory,7,,,,,,,sunafvsxtzaizojicxx.jpg,,,,,,,,,,,,,,,
388,34,Memory,7,,,,,,,sunahwgbqkqcrwprgvh.jpg,,,,,,,,,,,,,,,
389,34,Memory,7,,,,,,,00479940519fa.jpg,,,,,,,,,,,,,,,
390,34,Memory,7,,,,,,,00874940307fa.jpg,,,,,,,,,,,,,,,
391,34,Memory,7,,,,,,,00723941201fa.jpg,,,,,,,,,,,,,,,
392,34,Memory,7,,,,,,,00194940128fb.jpg,,,,,,,,,,,,,,,
393,34,Memory,7,,,,,,,00290940422fa.jpg,,,,,,,,,,,,,,,
394,34,Memory,7,,,,,,,sunadqmjrhfjyuzyvdd.jpg,,,,,,,,,,,,,,,
395,34,Memory,7,,,,,,,00999960627fa.jpg,,,,,,,,,,,,,,,
396,34,Memory,7,,,,,,,sunabyvpwkgsjtijdwj.jpg,,,,,,,,,,,,,,,
397,34,Memory,7,,,,,,,sunalkiibhqpxfamlll.jpg,,,,,,,,,,,,,,,
398,34,Memory,7,,,,,,,sunbaejotfklekvpxcz.jpg,,,,,,,,,,,,,,,
399,34,Memory,7,,,,,,,00958960627fa.jpg,,,,,,,,,,,,,,,
