,Subject,Trial Type,Run,Cued Composite,Uncued Composite,Cued Face,Cued Place,Uncued Face,Uncued Place,Memory Image,Category,Cued Side,Cued Category,Attention Reaction Time (s),Familiarity Reaction Time (s),Familiarity Rating,Attention Level,Cue Validity,Post Invalid Cue,Pre Invalid Cue,Attention Button,Rating History,Stimulus Onset,Stimulus End,Attention Probe
210,34,Memory,4,,,,,,,sunasbbntuiheekqyaq.jpg,,,,,1.265,2.0,,,,,,,1556382990.232959,1556382992.718271,
211,34,Memory,4,,,,,,,00908960530fa.jpg,,,,,1.238,1.0,,,,,,,1556382994.017983,1556382996.449306,
212,34,Memory,4,,,,,,,sunafxokyavhgptyfye.jpg,,,,,1.077,3.0,,,,,,,1556382997.735213,1556383000.397975,
213,34,Memory,4,,,,,,,sunadtlxenqqxsyjvix.jpg,,,,,1.076,2.0,,,,,,,1556383001.669277,1556383004.139016,
214,34,Memory,4,,,,,,,sunacwggadqsfpovdjv.jpg,,,,,0.842,2.0,,,,,,,1556383005.43765,1556383007.733595,
215,34,Memory,4,,,,,,,00650941031fa.jpg,,,,,0.954,3.0,,,,,,,1556383009.005575,1556383011.805945,
216,34,Memory,4,,,,,,,sunaauglwmctnkxyird.jpg,,,,,1.043,2.0,,,,,,,1556383013.106893,1556383015.991898,
217,34,Memory,4,,,,,,,sunadikxpvqeabxrvvc.jpg,,,,,0.892,4.0,,,,,,,1556383017.307428,1556383019.941734,
218,34,Memory,4,,,,,,,sunathzzbcwjykldrem.jpg,,,,,0.871,1.0,,,,,,,1556383021.209049,1556383023.728344,
219,34,Memory,4,,,,,,,sunacmpqqfbsvlzinzl.jpg,,,,,0.81,2.0,,,,,,,1556383025.026934,1556383027.376447,
220,34,Memory,4,,,,,,,sunahrltmuwbiehihpe.jpg,,,,,1.075,3.0,,,,,,,1556383028.645758,1556383031.277806,
221,34,Memory,4,,,,,,,sunaafvitpexrpvumsa.jpg,,,,,0.852,2.0,,,,,,,1556383032.629876,1556383034.99264,
222,34,Memory,4,,,,,,,00162931230fb.jpg,,,,,0.802,2.0,,,,,,,1556383036.2981,1556383038.310321,
223,34,Memory,4,,,,,,,00804960530fa.jpg,,,,,1.093,3.0,,,,,,,1556383039.598526,1556383042.214044,
224,34,Memory,4,,,,,,,00990960627fa.jpg,,,,,0.776,2.0,,,,,,,1556383043.516019,1556383046.047272,
225,34,Memory,4,,,,,,,00944960627fa.jpg,,,,,0.842,3.0,,,,,,,1556383047.350145,1556383049.867418,
226,34,Memory,4,,,,,,,00705941205fa.jpg,,,,,0.638,2.0,,,,,,,1556383051.168424,1556383053.290185,
227,34,Memory,4,,,,,,,00925960627fa.jpg,,,,,0.709,3.0,,,,,,,1556383054.570342,1556383056.92536,
228,34,Memory,4,,,,,,,00093931230fa.jpg,,,,,0.943,2.0,,,,,,,1556383058.203819,1556383060.626857,
229,34,Memory,4,,,,,,,00825940307fa.jpg,,,,,1.092,4.0,,,,,,,1556383061.904997,1556383064.473856,
230,34,Memory,4,,,,,,,00776941205fa.jpg,,,,,0.776,2.0,,,,,,,1556383065.756963,1556383068.059691,
231,34,Memory,4,,,,,,,sunaavjinpnkappuonm.jpg,,,,,0.842,3.0,,,,,,,1556383069.408341,1556383072.541503,
232,34,Memory,4,,,,,,,sunbpflsdaxnddnwcqi.jpg,,,,,0.924,3.0,,,,,,,1556383073.842567,1556383076.077522,
233,34,Memory,4,,,,,,,00589940928fa.jpg,,,,,0.979,3.0,,,,,,,1556383077.360202,1556383079.613837,
234,34,Memory,4,,,,,,,sunapqwnqzxlsfvgsjm.jpg,,,,,0.926,3.0,,,,,,,1556383080.911774,1556383083.596727,
235,34,Memory,4,,,,,,,00149931230fa.jpg,,,,,1.208,3.0,,,,,,,1556383084.963239,1556383087.43515,
236,34,Memory,4,,,,,,,00638941031fa.jpg,,,,,0.742,2.0,,,,,,,1556383088.715884,1556383091.043852,
237,34,Memory,4,,,,,,,00952960627fa.jpg,,,,,1.185,1.0,,,,,,,1556383092.332284,1556383094.67073,
238,34,Memory,4,,,,,,,sunaahwnmtqsrhocysw.jpg,,,,,1.126,4.0,,,,,,,1556383095.966674,1556383098.47122,
239,34,Memory,4,,,,,,,sunbbgtoeuzierkkajt.jpg,,,,,0.777,2.0,,,,,,,1556383099.767911,1556383102.190892,
240,34,Memory,4,,,,,,,sunanwjjyqqwzqrqagd.jpg,,,,,0.926,3.0,,,,,,,1556383103.487087,1556383105.851788,
241,34,Memory,4,,,,,,,00955960627fb.jpg,,,,,0.848,3.0,,,,,,,1556383107.153458,1556383109.533584,
242,34,Memory,4,,,,,,,sunaaexpnawiehinlpy.jpg,,,,,0.992,2.0,,,,,,,1556383110.82147,1556383113.568954,
243,34,Memory,4,,,,,,,00973960627fa.jpg,,,,,1.11,3.0,,,,,,,1556383114.857566,1556383117.235327,
244,34,Memory,4,,,,,,,00564940928fa.jpg,,,,,0.675,2.0,,,,,,,1556383118.558649,1556383120.870875,
245,34,Memory,4,,,,,,,sunagwswhkvnsmuszlz.jpg,,,,,0.919,3.0,,,,,,,1556383122.158939,1556383124.388799,
246,34,Memory,4,,,,,,,sunauburywlkjszngcq.jpg,,,,,0.943,3.0,,,,,,,1556383125.677161,1556383128.511763,
247,34,Memory,4,,,,,,,00082931230fa.jpg,,,,,0.609,2.0,,,,,,,1556383129.794681,1556383132.324101,
248,34,Memory,4,,,,,,,sunadfktsqjthoglcsm.jpg,,,,,0.775,3.0,,,,,,,1556383133.613455,1556383136.095081,
249,34,Memory,4,,,,,,,00071940128fa.jpg,,,,,0.727,2.0,,,,,,,1556383137.39704,1556383139.896353,
