,Subject,Trial Type,Run,Cued Composite,Uncued Composite,Cued Face,Cued Place,Uncued Face,Uncued Place,Memory Image,Category,Cued Side,Cued Category,Attention Reaction Time (s),Familiarity Reaction Time (s),Familiarity Rating,Attention Level,Cue Validity,Post Invalid Cue,Pre Invalid Cue,Attention Button,Rating History,Stimulus Onset,Stimulus End,Attention Probe
360,34,Memory,7,,,,,,,sunafvtpfczkzopbgue.jpg,,,,,1.117,2.0,,,,,,,1556383939.541506,1556383942.160179,
361,34,Memory,7,,,,,,,00947960627fa.jpg,,,,,1.21,3.0,,,,,,,1556383943.458575,1556383945.974311,
362,34,Memory,7,,,,,,,sunaedtgwjvvziytspa.jpg,,,,,1.543,2.0,,,,,,,1556383947.243018,1556383950.290518,
363,34,Memory,7,,,,,,,sunagcinxkccdtrjmlv.jpg,,,,,0.842,3.0,,,,,,,1556383951.545112,1556383953.928342,
364,34,Memory,7,,,,,,,sunaisiwfgppimtnmxl.jpg,,,,,1.159,2.0,,,,,,,1556383955.180466,1556383958.115522,
365,34,Memory,7,,,,,,,00841940307fa.jpg,,,,,0.711,2.0,,,,,,,1556383959.398515,1556383961.848652,
366,34,Memory,7,,,,,,,00681941121fa.jpg,,,,,0.678,3.0,,,,,,,1556383963.115629,1556383965.685955,
367,34,Memory,7,,,,,,,sunaamvxnvouicstkjb.jpg,,,,,1.009,3.0,,,,,,,1556383966.950166,1556383969.547228,
368,34,Memory,7,,,,,,,00483940519fa.jpg,,,,,0.792,2.0,,,,,,,1556383970.852138,1556383973.264002,
369,34,Memory,7,,,,,,,00891960530fa.jpg,,,,,1.043,2.0,,,,,,,1556383974.520441,1556383977.203764,
370,34,Memory,7,,,,,,,sunaayehfdqcyxggsej.jpg,,,,,0.777,3.0,,,,,,,1556383978.471326,1556383981.018681,
371,34,Memory,7,,,,,,,00966960627fa.jpg,,,,,0.575,2.0,,,,,,,1556383982.271118,1556383984.972804,
372,34,Memory,7,,,,,,,sunbvbrvgbpanfrawft.jpg,,,,,0.692,3.0,,,,,,,1556383986.255917,1556383988.675774,
373,34,Memory,7,,,,,,,00773960620fa.jpg,,,,,0.894,3.0,,,,,,,1556383989.942118,1556383992.737257,
374,34,Memory,7,,,,,,,00065931230fb.jpg,,,,,0.859,2.0,,,,,,,1556383994.009625,1556383996.46244,
375,34,Memory,7,,,,,,,sunajtrfunvzdfticna.jpg,,,,,1.061,2.0,,,,,,,1556383997.726707,1556384000.373559,
376,34,Memory,7,,,,,,,sunabxsbfwjccqxxzxq.jpg,,,,,0.775,3.0,,,,,,,1556384001.678957,1556384004.057922,
377,34,Memory,7,,,,,,,00774941201fa.jpg,,,,,0.637,2.0,,,,,,,1556384005.313105,1556384007.525383,
378,34,Memory,7,,,,,,,00777941205fa.jpg,,,,,0.927,3.0,,,,,,,1556384008.781272,1556384011.232328,
379,34,Memory,7,,,,,,,sunasmmcxdddtmtazwx.jpg,,,,,0.792,3.0,,,,,,,1556384012.480577,1556384014.917388,
380,34,Memory,7,,,,,,,sunaygrtwrwfezqjizr.jpg,,,,,0.741,2.0,,,,,,,1556384016.199928,1556384018.587969,
381,34,Memory,7,,,,,,,00967960627fa.jpg,,,,,0.876,3.0,,,,,,,1556384019.850839,1556384022.384462,
382,34,Memory,7,,,,,,,00829940307fa.jpg,,,,,0.627,2.0,,,,,,,1556384023.653049,1556384026.303255,
383,34,Memory,7,,,,,,,sunavspxmxubqaeidjt.jpg,,,,,0.841,3.0,,,,,,,1556384027.586406,1556384029.992235,
384,34,Memory,7,,,,,,,sunabqowuarvqqcnipn.jpg,,,,,0.859,2.0,,,,,,,1556384031.320708,1556384033.826305,
385,34,Memory,7,,,,,,,00130931230fa.jpg,,,,,0.926,3.0,,,,,,,1556384035.090429,1556384037.785901,
386,34,Memory,7,,,,,,,sunaaemixhfquhnxxlm.jpg,,,,,0.826,3.0,,,,,,,1556384039.040287,1556384041.307651,
387,34,Memory,7,,,,,,,sunafvsxtzaizojicxx.jpg,,,,,0.808,3.0,,,,,,,1556384042.557499,1556384045.122731,
388,34,Memory,7,,,,,,,sunahwgbqkqcrwprgvh.jpg,,,,,0.876,2.0,,,,,,,1556384046.377141,1556384048.912241,
389,34,Memory,7,,,,,,,00479940519fa.jpg,,,,,0.609,2.0,,,,,,,1556384050.176811,1556384052.740374,
390,34,Memory,7,,,,,,,00874940307fa.jpg,,,,,1.061,3.0,,,,,,,1556384053.996707,1556384056.441645,
391,34,Memory,7,,,,,,,00723941201fa.jpg,,,,,0.593,2.0,,,,,,,1556384057.69618,1556384060.281181,
392,34,Memory,7,,,,,,,00194940128fb.jpg,,,,,1.044,4.0,,,,,,,1556384061.548307,1556384064.162429,
393,34,Memory,7,,,,,,,00290940422fa.jpg,,,,,0.891,2.0,,,,,,,1556384065.415501,1556384067.87806,
394,34,Memory,7,,,,,,,sunadqmjrhfjyuzyvdd.jpg,,,,,0.775,3.0,,,,,,,1556384069.133557,1556384071.667955,
395,34,Memory,7,,,,,,,00999960627fa.jpg,,,,,0.611,2.0,,,,,,,1556384072.985118,1556384075.686825,
396,34,Memory,7,,,,,,,sunabyvpwkgsjtijdwj.jpg,,,,,0.761,3.0,,,,,,,1556384076.970089,1556384079.45837,
397,34,Memory,7,,,,,,,sunalkiibhqpxfamlll.jpg,,,,,1.075,3.0,,,,,,,1556384080.703685,1556384083.553861,
398,34,Memory,7,,,,,,,sunbaejotfklekvpxcz.jpg,,,,,0.843,2.0,,,,,,,1556384084.822489,1556384087.267484,
399,34,Memory,7,,,,,,,00958960627fa.jpg,,,,,0.644,1.0,,,,,,,1556384088.523416,1556384090.992171,
