,Subject,Trial Type,Run,Cued Composite,Uncued Composite,Cued Face,Cued Place,Uncued Face,Uncued Place,Memory Image,Category,Cued Side,Cued Category,Attention Reaction Time (s),Familiarity Reaction Time (s),Familiarity Rating,Attention Level,Cue Validity,Post Invalid Cue,Pre Invalid Cue,Attention Button,Rating History,Stimulus Onset,Stimulus End,Attention Probe
0,17,Presentation,0,00891960530fa_sunalkiibhqpxfamlll.jpg,00197940128fa_sunaaylzyqlqrsmfwif.jpg,00891960530fa.jpg,sunalkiibhqpxfamlll.jpg,00197940128fa.jpg,sunaaylzyqlqrsmfwif.jpg,,,>,Face,,,,,1,,,,,,,x
1,17,Presentation,0,00635941031fa_sunaddsaeicthrfbkhe.jpg,00631940928fa_sunadbdqzigzwipuipr.jpg,00635941031fa.jpg,sunaddsaeicthrfbkhe.jpg,00631940928fa.jpg,sunadbdqzigzwipuipr.jpg,,,>,Place,,,,,1,,,,,,,o
2,17,Presentation,0,00071941031fa_sunaaexqbtdswxrqjvz.jpg,00935960627fa_sunaqbmgkgqucajzrkp.jpg,00071941031fa.jpg,sunaaexqbtdswxrqjvz.jpg,00935960627fa.jpg,sunaqbmgkgqucajzrkp.jpg,,,<,Face,,,,,1,,,,,,,o
3,17,Presentation,0,00316940422fa_sunabxmguapjekttvwm.jpg,00982960627fa_sunbesrwkdsffeogeqq.jpg,00316940422fa.jpg,sunabxmguapjekttvwm.jpg,00982960627fa.jpg,sunbesrwkdsffeogeqq.jpg,,,>,Place,,,,,1,,,,,,,o
4,17,Presentation,0,00786941205fa_sunagmhildamktmqjss.jpg,00115931230fa_sunaakmxzhuceuiryah.jpg,00786941205fa.jpg,sunagmhildamktmqjss.jpg,00115931230fa.jpg,sunaakmxzhuceuiryah.jpg,,,<,Place,,,,,1,,,,,,,o
5,17,Presentation,0,00086931230fa_sunaafynehyrzpsoaml.jpg,00815941205fa_sunahiphsekjihkafsl.jpg,00086931230fa.jpg,sunaafynehyrzpsoaml.jpg,00815941205fa.jpg,sunahiphsekjihkafsl.jpg,,,<,Face,,,,,1,,,,,,,x
6,17,Presentation,0,00909960530_sunaobtizabegtwfwul.jpg,00978960627fa_sunbddbivbptlrlauhy.jpg,00909960530.jpg,sunaobtizabegtwfwul.jpg,00978960627fa.jpg,sunbddbivbptlrlauhy.jpg,,,>,Face,,,,,0,,,,,,,x
7,17,Presentation,0,00780960530fa_sunagetqixeypsysbpn.jpg,00097931230fa_sunaajayojuslbbnneg.jpg,00780960530fa.jpg,sunagetqixeypsysbpn.jpg,00097931230fa.jpg,sunaajayojuslbbnneg.jpg,,,<,Place,,,,,1,,,,,,,o
8,17,Presentation,0,00761960627fa_sunafgdqbclkwfocdhg.jpg,00929960627fa_sunaprnrbmgkomdbchr.jpg,00761960627fa.jpg,sunafgdqbclkwfocdhg.jpg,00929960627fa.jpg,sunaprnrbmgkomdbchr.jpg,,,>,Face,,,,,1,,,,,,,o
9,17,Presentation,0,00854940307fa_sunaiwduelojtwaqeyh.jpg,00239940128fa_sunabctlikybqabezjv.jpg,00854940307fa.jpg,sunaiwduelojtwaqeyh.jpg,00239940128fa.jpg,sunabctlikybqabezjv.jpg,,,<,Place,,,,,1,,,,,,,x
10,17,Memory,0,,,,,,,sunajwqkfsykceonyig.jpg,,,,,,,,,,,,,,,
11,17,Memory,0,,,,,,,00780960530fa.jpg,,,,,,,,,,,,,,,
12,17,Memory,0,,,,,,,sundahdxwmcdluscvot.jpg,,,,,,,,,,,,,,,
13,17,Memory,0,,,,,,,sunahtfxgsrmkiulnwk.jpg,,,,,,,,,,,,,,,
14,17,Memory,0,,,,,,,00929960627fa.jpg,,,,,,,,,,,,,,,
15,17,Memory,0,,,,,,,sunaafynehyrzpsoaml.jpg,,,,,,,,,,,,,,,
16,17,Memory,0,,,,,,,00086931230fa.jpg,,,,,,,,,,,,,,,
17,17,Memory,0,,,,,,,00776941205fa.jpg,,,,,,,,,,,,,,,
18,17,Memory,0,,,,,,,00316940422fa.jpg,,,,,,,,,,,,,,,
19,17,Memory,0,,,,,,,sunagcinxkccdtrjmlv.jpg,,,,,,,,,,,,,,,
20,17,Memory,0,,,,,,,01011960627fa.jpg,,,,,,,,,,,,,,,
21,17,Memory,0,,,,,,,sunabxmguapjekttvwm.jpg,,,,,,,,,,,,,,,
22,17,Memory,0,,,,,,,sunaakmxzhuceuiryah.jpg,,,,,,,,,,,,,,,
23,17,Memory,0,,,,,,,sunalkiibhqpxfamlll.jpg,,,,,,,,,,,,,,,
24,17,Memory,0,,,,,,,00815941205fa.jpg,,,,,,,,,,,,,,,
25,17,Memory,0,,,,,,,sunbwaafjdebjzttuvq.jpg,,,,,,,,,,,,,,,
26,17,Memory,0,,,,,,,sunaddsaeicthrfbkhe.jpg,,,,,,,,,,,,,,,
27,17,Memory,0,,,,,,,sunaaylzyqlqrsmfwif.jpg,,,,,,,,,,,,,,,
28,17,Memory,0,,,,,,,01002960627fb.jpg,,,,,,,,,,,,,,,
29,17,Memory,0,,,,,,,sunagoufulkpsxrmklt.jpg,,,,,,,,,,,,,,,
30,17,Memory,0,,,,,,,sunaahzooisqkwlxwoz.jpg,,,,,,,,,,,,,,,
31,17,Memory,0,,,,,,,sunaprnrbmgkomdbchr.jpg,,,,,,,,,,,,,,,
32,17,Memory,0,,,,,,,00796941205fa.jpg,,,,,,,,,,,,,,,
33,17,Memory,0,,,,,,,00777941205fa.jpg,,,,,,,,,,,,,,,
34,17,Memory,0,,,,,,,00115931230fa.jpg,,,,,,,,,,,,,,,
35,17,Memory,0,,,,,,,sunafxokyavhgptyfye.jpg,,,,,,,,,,,,,,,
36,17,Memory,0,,,,,,,00891960530fa.jpg,,,,,,,,,,,,,,,
37,17,Memory,0,,,,,,,sunabctlikybqabezjv.jpg,,,,,,,,,,,,,,,
38,17,Memory,0,,,,,,,00095931230fa.jpg,,,,,,,,,,,,,,,
39,17,Memory,0,,,,,,,00239940128fa.jpg,,,,,,,,,,,,,,,
40,17,Memory,0,,,,,,,00876960620fa.jpg,,,,,,,,,,,,,,,
41,17,Memory,0,,,,,,,sunahiphsekjihkafsl.jpg,,,,,,,,,,,,,,,
42,17,Memory,0,,,,,,,sunagetqixeypsysbpn.jpg,,,,,,,,,,,,,,,
43,17,Memory,0,,,,,,,sunacjnahdmqfnjfwqx.jpg,,,,,,,,,,,,,,,
44,17,Memory,0,,,,,,,sunaguchqqnrtodtezq.jpg,,,,,,,,,,,,,,,
45,17,Memory,0,,,,,,,00635941031fa.jpg,,,,,,,,,,,,,,,
46,17,Memory,0,,,,,,,00197940128fa.jpg,,,,,,,,,,,,,,,
47,17,Memory,0,,,,,,,00787960620fa.jpg,,,,,,,,,,,,,,,
48,17,Memory,0,,,,,,,00827940307fa.jpg,,,,,,,,,,,,,,,
49,17,Memory,0,,,,,,,00562941031fa.jpg,,,,,,,,,,,,,,,
50,17,Presentation,1,00090931230fa_sunaahedjlmtqekgyvj.jpg,00908960530fa_sunanwjjyqqwzqrqagd.jpg,00090931230fa.jpg,sunaahedjlmtqekgyvj.jpg,00908960530fa.jpg,sunanwjjyqqwzqrqagd.jpg,,,<,Face,,,,,0,,,,,,,o
51,17,Presentation,1,00747941201fa_sunaeutbrtswvsozxyk.jpg,00634940928fa_sunadcphrizvfpljiqt.jpg,00747941201fa.jpg,sunaeutbrtswvsozxyk.jpg,00634940928fa.jpg,sunadcphrizvfpljiqt.jpg,,,>,Face,,,,,0,,,,,,,x
52,17,Presentation,1,00750941201fa_sunaeuzwggvibufclwf.jpg,00793941205fa_sunagtjwilqjvxohypn.jpg,00750941201fa.jpg,sunaeuzwggvibufclwf.jpg,00793941205fa.jpg,sunagtjwilqjvxohypn.jpg,,,<,Place,,,,,1,,,,,,,o
53,17,Presentation,1,00967960627fa_sunbaejotfklekvpxcz.jpg,00942960627fa_sunarfdklgdnjgeqfjg.jpg,00967960627fa.jpg,sunbaejotfklekvpxcz.jpg,00942960627fa.jpg,sunarfdklgdnjgeqfjg.jpg,,,>,Face,,,,,1,,,,,,,x
54,17,Presentation,1,00966960627fa_sunaygrtwrwfezqjizr.jpg,00952960627fa_sunathzzbcwjykldrem.jpg,00966960627fa.jpg,sunaygrtwrwfezqjizr.jpg,00952960627fa.jpg,sunathzzbcwjykldrem.jpg,,,>,Face,,,,,1,,,,,,,o
55,17,Presentation,1,00805941205fa_sunagwzdbtlixdhgolm.jpg,00662941121fa_sunadkazmlajmohnwfl.jpg,00805941205fa.jpg,sunagwzdbtlixdhgolm.jpg,00662941121fa.jpg,sunadkazmlajmohnwfl.jpg,,,>,Place,,,,,1,,,,,,,o
56,17,Presentation,1,00581940928fa_sunacvzhvcksnwqcqbw.jpg,00119931230fb_sunaakvmbftkrgqhjun.jpg,00581940928fa.jpg,sunacvzhvcksnwqcqbw.jpg,00119931230fb.jpg,sunaakvmbftkrgqhjun.jpg,,,<,Face,,,,,1,,,,,,,x
57,17,Presentation,1,00126931230fb_sunaamdjwemxpmmtypi.jpg,00987960627fa_sunbloeoiozwjjsiamp.jpg,00126931230fb.jpg,sunaamdjwemxpmmtypi.jpg,00987960627fa.jpg,sunbloeoiozwjjsiamp.jpg,,,<,Place,,,,,1,,,,,,,o
58,17,Presentation,1,00859940307fa_sunaiycurtqsfkvcaso.jpg,00910960530fa_sunaofikylqtxphvdem.jpg,00859940307fa.jpg,sunaiycurtqsfkvcaso.jpg,00910960530fa.jpg,sunaofikylqtxphvdem.jpg,,,>,Place,,,,,1,,,,,,,x
59,17,Presentation,1,00638941031fa_sunadfktsqjthoglcsm.jpg,00794960620fa_sunagtqhhwxjeuxdebe.jpg,00638941031fa.jpg,sunadfktsqjthoglcsm.jpg,00794960620fa.jpg,sunagtqhhwxjeuxdebe.jpg,,,<,Place,,,,,1,,,,,,,x
60,17,Memory,1,,,,,,,sunbloeoiozwjjsiamp.jpg,,,,,,,,,,,,,,,
61,17,Memory,1,,,,,,,sunafcofuuzebuadceo.jpg,,,,,,,,,,,,,,,
62,17,Memory,1,,,,,,,sunaakxjfbrrequcjmx.jpg,,,,,,,,,,,,,,,
63,17,Memory,1,,,,,,,00990960627fa.jpg,,,,,,,,,,,,,,,
64,17,Memory,1,,,,,,,00957960627fa.jpg,,,,,,,,,,,,,,,
65,17,Memory,1,,,,,,,sunaixpqndlwhwjtjek.jpg,,,,,,,,,,,,,,,
66,17,Memory,1,,,,,,,00747941201fa.jpg,,,,,,,,,,,,,,,
67,17,Memory,1,,,,,,,sunahwgbqkqcrwprgvh.jpg,,,,,,,,,,,,,,,
68,17,Memory,1,,,,,,,00805941205fa.jpg,,,,,,,,,,,,,,,
69,17,Memory,1,,,,,,,sunaavtbadenwnzeutj.jpg,,,,,,,,,,,,,,,
70,17,Memory,1,,,,,,,sunasnqkkyhilqkxiqm.jpg,,,,,,,,,,,,,,,
71,17,Memory,1,,,,,,,00753941201fa.jpg,,,,,,,,,,,,,,,
72,17,Memory,1,,,,,,,00564940928fa.jpg,,,,,,,,,,,,,,,
73,17,Memory,1,,,,,,,sunbpflsdaxnddnwcqi.jpg,,,,,,,,,,,,,,,
74,17,Memory,1,,,,,,,sunbaejotfklekvpxcz.jpg,,,,,,,,,,,,,,,
75,17,Memory,1,,,,,,,00662941121fa.jpg,,,,,,,,,,,,,,,
76,17,Memory,1,,,,,,,00987960627fa.jpg,,,,,,,,,,,,,,,
77,17,Memory,1,,,,,,,00949960627fb.jpg,,,,,,,,,,,,,,,
78,17,Memory,1,,,,,,,00184940128fa.jpg,,,,,,,,,,,,,,,
79,17,Memory,1,,,,,,,00967960627fa.jpg,,,,,,,,,,,,,,,
80,17,Memory,1,,,,,,,00829940307fa.jpg,,,,,,,,,,,,,,,
81,17,Memory,1,,,,,,,00908960530fa.jpg,,,,,,,,,,,,,,,
82,17,Memory,1,,,,,,,sunaahedjlmtqekgyvj.jpg,,,,,,,,,,,,,,,
83,17,Memory,1,,,,,,,sunanwjjyqqwzqrqagd.jpg,,,,,,,,,,,,,,,
84,17,Memory,1,,,,,,,00119931230fb.jpg,,,,,,,,,,,,,,,
85,17,Memory,1,,,,,,,sunadfktsqjthoglcsm.jpg,,,,,,,,,,,,,,,
86,17,Memory,1,,,,,,,sunagwzdbtlixdhgolm.jpg,,,,,,,,,,,,,,,
87,17,Memory,1,,,,,,,sunaajspcoepticvplv.jpg,,,,,,,,,,,,,,,
88,17,Memory,1,,,,,,,sunadkazmlajmohnwfl.jpg,,,,,,,,,,,,,,,
89,17,Memory,1,,,,,,,sunaakvmbftkrgqhjun.jpg,,,,,,,,,,,,,,,
90,17,Memory,1,,,,,,,sunacmpqqfbsvlzinzl.jpg,,,,,,,,,,,,,,,
91,17,Memory,1,,,,,,,00102931230fa.jpg,,,,,,,,,,,,,,,
92,17,Memory,1,,,,,,,00638941031fa.jpg,,,,,,,,,,,,,,,
93,17,Memory,1,,,,,,,sunavhxgmgrqsaptynb.jpg,,,,,,,,,,,,,,,
94,17,Memory,1,,,,,,,00858940307fa.jpg,,,,,,,,,,,,,,,
95,17,Memory,1,,,,,,,00794960620fa.jpg,,,,,,,,,,,,,,,
96,17,Memory,1,,,,,,,sunagtqhhwxjeuxdebe.jpg,,,,,,,,,,,,,,,
97,17,Memory,1,,,,,,,00122931230fa.jpg,,,,,,,,,,,,,,,
98,17,Memory,1,,,,,,,00090931230fa.jpg,,,,,,,,,,,,,,,
99,17,Memory,1,,,,,,,sunaeutbrtswvsozxyk.jpg,,,,,,,,,,,,,,,
100,17,Presentation,2,00620940928fa_sunacypmnujalygkunp.jpg,00185940422fb_sunaawqdbpihmlbwyyn.jpg,00620940928fa.jpg,sunacypmnujalygkunp.jpg,00185940422fb.jpg,sunaawqdbpihmlbwyyn.jpg,,,>,Face,,,,,1,,,,,,,o
101,17,Presentation,2,00158931230fb_sunaavchcbptaerhcfy.jpg,00902960530fa_sunanaacmmosxrfwmvl.jpg,00158931230fb.jpg,sunaavchcbptaerhcfy.jpg,00902960530fa.jpg,sunanaacmmosxrfwmvl.jpg,,,<,Face,,,,,1,,,,,,,x
102,17,Presentation,2,00971960627fa_sunbbegcweqnetpdlrh.jpg,00870940307fa_sunajrgtewnualfcerj.jpg,00971960627fa.jpg,sunbbegcweqnetpdlrh.jpg,00870940307fa.jpg,sunajrgtewnualfcerj.jpg,,,<,Face,,,,,1,,,,,,,x
103,17,Presentation,2,00818940307fa_sunahpblecxtmuzkmxb.jpg,00132931230fb_sunaanjcbzdvtvblsdy.jpg,00818940307fa.jpg,sunahpblecxtmuzkmxb.jpg,00132931230fb.jpg,sunaanjcbzdvtvblsdy.jpg,,,>,Place,,,,,1,,,,,,,o
104,17,Presentation,2,00779941205fa_sunagdzlvkqtpnfxfcg.jpg,00999960627fa_sunbvbrvgbpanfrawft.jpg,00779941205fa.jpg,sunagdzlvkqtpnfxfcg.jpg,00999960627fa.jpg,sunbvbrvgbpanfrawft.jpg,,,>,Place,,,,,0,,,,,,,x
105,17,Presentation,2,00741941201fa_sunaemcowdozyphwknd.jpg,00130931230fa_sunaamvxnvouicstkjb.jpg,00741941201fa.jpg,sunaemcowdozyphwknd.jpg,00130931230fa.jpg,sunaamvxnvouicstkjb.jpg,,,>,Face,,,,,1,,,,,,,o
106,17,Presentation,2,00965960627fa_sunaydywdmvlfddbxbk.jpg,00993960627fa_sunbprywzqxjcezkbch.jpg,00965960627fa.jpg,sunaydywdmvlfddbxbk.jpg,00993960627fa.jpg,sunbprywzqxjcezkbch.jpg,,,<,Face,,,,,1,,,,,,,o
107,17,Presentation,2,00968960627fa_sunbagfpovqwbuexqdn.jpg,00810941205fa_sunahctntqrunhdxhtb.jpg,00968960627fa.jpg,sunbagfpovqwbuexqdn.jpg,00810941205fa.jpg,sunahctntqrunhdxhtb.jpg,,,<,Place,,,,,1,,,,,,,o
108,17,Presentation,2,00933960627fa_sunapwjkcxdaeqehfql.jpg,00124931230fa_sunaalhlvzmjmitybdn.jpg,00933960627fa.jpg,sunapwjkcxdaeqehfql.jpg,00124931230fa.jpg,sunaalhlvzmjmitybdn.jpg,,,>,Place,,,,,1,,,,,,,o
109,17,Presentation,2,00720960620fa_sunaecpkgfewqqreqwe.jpg,00887960530_sunalcrtwiycqobgelp.jpg,00720960620fa.jpg,sunaecpkgfewqqreqwe.jpg,00887960530.jpg,sunalcrtwiycqobgelp.jpg,,,<,Place,,,,,1,,,,,,,x
110,17,Memory,2,,,,,,,00720960620fa.jpg,,,,,,,,,,,,,,,
111,17,Memory,2,,,,,,,00971960627fa.jpg,,,,,,,,,,,,,,,
112,17,Memory,2,,,,,,,00816941205fa.jpg,,,,,,,,,,,,,,,
113,17,Memory,2,,,,,,,00988960627fa.jpg,,,,,,,,,,,,,,,
114,17,Memory,2,,,,,,,00836940307fa.jpg,,,,,,,,,,,,,,,
115,17,Memory,2,,,,,,,sunbmaiocftdtvnzgap.jpg,,,,,,,,,,,,,,,
116,17,Memory,2,,,,,,,00887960530.jpg,,,,,,,,,,,,,,,
117,17,Memory,2,,,,,,,sunaffgsyyvoqdlkmnk.jpg,,,,,,,,,,,,,,,
118,17,Memory,2,,,,,,,sunahctntqrunhdxhtb.jpg,,,,,,,,,,,,,,,
119,17,Memory,2,,,,,,,sunbbegcweqnetpdlrh.jpg,,,,,,,,,,,,,,,
120,17,Memory,2,,,,,,,sunalcrtwiycqobgelp.jpg,,,,,,,,,,,,,,,
121,17,Memory,2,,,,,,,00647941031fa.jpg,,,,,,,,,,,,,,,
122,17,Memory,2,,,,,,,00791941205fa.jpg,,,,,,,,,,,,,,,
123,17,Memory,2,,,,,,,sunanaacmmosxrfwmvl.jpg,,,,,,,,,,,,,,,
124,17,Memory,2,,,,,,,00818940307fa.jpg,,,,,,,,,,,,,,,
125,17,Memory,2,,,,,,,00915960620fa.jpg,,,,,,,,,,,,,,,
126,17,Memory,2,,,,,,,00898960530fa.jpg,,,,,,,,,,,,,,,
127,17,Memory,2,,,,,,,sunamkmeblgteyggink.jpg,,,,,,,,,,,,,,,
128,17,Memory,2,,,,,,,sunaisiwfgppimtnmxl.jpg,,,,,,,,,,,,,,,
129,17,Memory,2,,,,,,,00260940128fa.jpg,,,,,,,,,,,,,,,
130,17,Memory,2,,,,,,,sunbprywzqxjcezkbch.jpg,,,,,,,,,,,,,,,
131,17,Memory,2,,,,,,,sunagrmyoovzukhxmlo.jpg,,,,,,,,,,,,,,,
132,17,Memory,2,,,,,,,00132931230fb.jpg,,,,,,,,,,,,,,,
133,17,Memory,2,,,,,,,sunaecpkgfewqqreqwe.jpg,,,,,,,,,,,,,,,
134,17,Memory,2,,,,,,,sunagdzlvkqtpnfxfcg.jpg,,,,,,,,,,,,,,,
135,17,Memory,2,,,,,,,00754941201fa.jpg,,,,,,,,,,,,,,,
136,17,Memory,2,,,,,,,sunahpblecxtmuzkmxb.jpg,,,,,,,,,,,,,,,
137,17,Memory,2,,,,,,,00993960627fa.jpg,,,,,,,,,,,,,,,
138,17,Memory,2,,,,,,,sunadflbrkckmepztql.jpg,,,,,,,,,,,,,,,
139,17,Memory,2,,,,,,,sunapileznnbbmrwoei.jpg,,,,,,,,,,,,,,,
140,17,Memory,2,,,,,,,sunabgfhvifeijihhjw.jpg,,,,,,,,,,,,,,,
141,17,Memory,2,,,,,,,00902960530fa.jpg,,,,,,,,,,,,,,,
142,17,Memory,2,,,,,,,sunainqelldeebvxtcz.jpg,,,,,,,,,,,,,,,
143,17,Memory,2,,,,,,,00810941205fa.jpg,,,,,,,,,,,,,,,
144,17,Memory,2,,,,,,,00841940307fa.jpg,,,,,,,,,,,,,,,
145,17,Memory,2,,,,,,,00620940928fa.jpg,,,,,,,,,,,,,,,
146,17,Memory,2,,,,,,,sunacypmnujalygkunp.jpg,,,,,,,,,,,,,,,
147,17,Memory,2,,,,,,,sunaanjcbzdvtvblsdy.jpg,,,,,,,,,,,,,,,
148,17,Memory,2,,,,,,,sunahmhrncocyhsjpxk.jpg,,,,,,,,,,,,,,,
149,17,Memory,2,,,,,,,00779941205fa.jpg,,,,,,,,,,,,,,,
150,17,Presentation,3,00921960627fa_sunapqkpqdfvxlbqwyo.jpg,00073931230fa_sunaafbmtoniaasysgu.jpg,00921960627fa.jpg,sunapqkpqdfvxlbqwyo.jpg,00073931230fa.jpg,sunaafbmtoniaasysgu.jpg,,,<,Face,,,,,1,,,,,,,x
151,17,Presentation,3,00789960620fa_sunagpancjmxqfazssf.jpg,00903960620fa_sunanainkqdvktzoxyl.jpg,00789960620fa.jpg,sunagpancjmxqfazssf.jpg,00903960620fa.jpg,sunanainkqdvktzoxyl.jpg,,,<,Place,,,,,1,,,,,,,o
152,17,Presentation,3,00069931230fb_sunaaeowapdkwzqpgqr.jpg,00559940519fa_sunacjkmnpawfzbyvae.jpg,00069931230fb.jpg,sunaaeowapdkwzqpgqr.jpg,00559940519fa.jpg,sunacjkmnpawfzbyvae.jpg,,,<,Face,,,,,1,,,,,,,x
153,17,Presentation,3,00943960627fa_sunarpsxqkduedrrzyi.jpg,00960960627fa_sunawksfbacycuhbrsc.jpg,00943960627fa.jpg,sunarpsxqkduedrrzyi.jpg,00960960627fa.jpg,sunawksfbacycuhbrsc.jpg,,,>,Place,,,,,1,,,,,,,x
154,17,Presentation,3,00809960620fa_sunahbvlpavurqoxdeq.jpg,00874940307fa_sunajtrfunvzdfticna.jpg,00809960620fa.jpg,sunahbvlpavurqoxdeq.jpg,00874940307fa.jpg,sunajtrfunvzdfticna.jpg,,,>,Place,,,,,1,,,,,,,x
155,17,Presentation,3,01005960627fa_sunbwyuesflwdpqtgoy.jpg,00950960627fa_sunasrjlmglmjzbmqxb.jpg,01005960627fa.jpg,sunbwyuesflwdpqtgoy.jpg,00950960627fa.jpg,sunasrjlmglmjzbmqxb.jpg,,,>,Face,,,,,1,,,,,,,o
156,17,Presentation,3,00082931230fa_sunaafvitpexrpvumsa.jpg,00803941205fa_sunagvxkjokqimstxpe.jpg,00082931230fa.jpg,sunaafvitpexrpvumsa.jpg,00803941205fa.jpg,sunagvxkjokqimstxpe.jpg,,,<,Face,,,,,1,,,,,,,x
157,17,Presentation,3,00762941201fa_sunafgzgbisbopcyslr.jpg,00892960530fa_sunalntxqqadigcletd.jpg,00762941201fa.jpg,sunafgzgbisbopcyslr.jpg,00892960530fa.jpg,sunalntxqqadigcletd.jpg,,,>,Face,,,,,1,,,,,,,x
158,17,Presentation,3,00989960627fa_sunbondbduabvijnmch.jpg,00636941031fa_sunaddtdkycxbqlpfqa.jpg,00989960627fa.jpg,sunbondbduabvijnmch.jpg,00636941031fa.jpg,sunaddtdkycxbqlpfqa.jpg,,,<,Place,,,,,1,,,,,,,x
159,17,Presentation,3,00209940128fb_sunabaergayifsgacxt.jpg,00191940128fb_sunaawsdjisukbbginm.jpg,00209940128fb.jpg,sunabaergayifsgacxt.jpg,00191940128fb.jpg,sunaawsdjisukbbginm.jpg,,,>,Place,,,,,1,,,,,,,o
160,17,Memory,3,,,,,,,00803941205fa.jpg,,,,,,,,,,,,,,,
161,17,Memory,3,,,,,,,sunaakxgygjfqrzpyoz.jpg,,,,,,,,,,,,,,,
162,17,Memory,3,,,,,,,sunaezuszgtxnmsxdbk.jpg,,,,,,,,,,,,,,,
163,17,Memory,3,,,,,,,00892960530fa.jpg,,,,,,,,,,,,,,,
164,17,Memory,3,,,,,,,sunaawsdjisukbbginm.jpg,,,,,,,,,,,,,,,
165,17,Memory,3,,,,,,,00921960627fa.jpg,,,,,,,,,,,,,,,
166,17,Memory,3,,,,,,,sunahqrxievfeusiqlt.jpg,,,,,,,,,,,,,,,
167,17,Memory,3,,,,,,,00191940128fb.jpg,,,,,,,,,,,,,,,
168,17,Memory,3,,,,,,,sunafgzgbisbopcyslr.jpg,,,,,,,,,,,,,,,
169,17,Memory,3,,,,,,,sunagvxkjokqimstxpe.jpg,,,,,,,,,,,,,,,
170,17,Memory,3,,,,,,,sunadsgmtznewzyasnk.jpg,,,,,,,,,,,,,,,
171,17,Memory,3,,,,,,,00700941121fa.jpg,,,,,,,,,,,,,,,
172,17,Memory,3,,,,,,,00762941201fa.jpg,,,,,,,,,,,,,,,
173,17,Memory,3,,,,,,,00120931230fa.jpg,,,,,,,,,,,,,,,
174,17,Memory,3,,,,,,,suncnkvbhypnivcohyx.jpg,,,,,,,,,,,,,,,
175,17,Memory,3,,,,,,,sunapqkpqdfvxlbqwyo.jpg,,,,,,,,,,,,,,,
176,17,Memory,3,,,,,,,00082931230fa.jpg,,,,,,,,,,,,,,,
177,17,Memory,3,,,,,,,sunacjkmnpawfzbyvae.jpg,,,,,,,,,,,,,,,
178,17,Memory,3,,,,,,,00822940307fa.jpg,,,,,,,,,,,,,,,
179,17,Memory,3,,,,,,,sunbfzchmomnvzhbxdg.jpg,,,,,,,,,,,,,,,
180,17,Memory,3,,,,,,,sunagountlxpzkytsmp.jpg,,,,,,,,,,,,,,,
181,17,Memory,3,,,,,,,00880960530fa.jpg,,,,,,,,,,,,,,,
182,17,Memory,3,,,,,,,sunasrjlmglmjzbmqxb.jpg,,,,,,,,,,,,,,,
183,17,Memory,3,,,,,,,sunagpancjmxqfazssf.jpg,,,,,,,,,,,,,,,
184,17,Memory,3,,,,,,,00984960627fa.jpg,,,,,,,,,,,,,,,
185,17,Memory,3,,,,,,,sunaafvitpexrpvumsa.jpg,,,,,,,,,,,,,,,
186,17,Memory,3,,,,,,,00789960620fa.jpg,,,,,,,,,,,,,,,
187,17,Memory,3,,,,,,,00788941205fa.jpg,,,,,,,,,,,,,,,
188,17,Memory,3,,,,,,,01010960627fa.jpg,,,,,,,,,,,,,,,
189,17,Memory,3,,,,,,,00751960620fa.jpg,,,,,,,,,,,,,,,
190,17,Memory,3,,,,,,,00989960627fa.jpg,,,,,,,,,,,,,,,
191,17,Memory,3,,,,,,,sunakmnfgklupjijsgf.jpg,,,,,,,,,,,,,,,
192,17,Memory,3,,,,,,,00559940519fa.jpg,,,,,,,,,,,,,,,
193,17,Memory,3,,,,,,,sunbondbduabvijnmch.jpg,,,,,,,,,,,,,,,
194,17,Memory,3,,,,,,,00950960627fa.jpg,,,,,,,,,,,,,,,
195,17,Memory,3,,,,,,,sunalntxqqadigcletd.jpg,,,,,,,,,,,,,,,
196,17,Memory,3,,,,,,,00112931230fa.jpg,,,,,,,,,,,,,,,
197,17,Memory,3,,,,,,,sunaakjaacuzulqckgl.jpg,,,,,,,,,,,,,,,
198,17,Memory,3,,,,,,,sunaaheqzstzxuadglu.jpg,,,,,,,,,,,,,,,
199,17,Memory,3,,,,,,,00092931230fa.jpg,,,,,,,,,,,,,,,
200,17,Presentation,4,00936960627fa_sunaqgjuuwvdcyiccjt.jpg,00742941201fa_sunaenwuebvlpdmntju.jpg,00936960627fa.jpg,sunaqgjuuwvdcyiccjt.jpg,00742941201fa.jpg,sunaenwuebvlpdmntju.jpg,,,<,Place,,,,,1,,,,,,,x
201,17,Presentation,4,00973960627fa_sunbbgtoeuzierkkajt.jpg,00938960627fa_sunaqyylsngywqzwfmx.jpg,00973960627fa.jpg,sunbbgtoeuzierkkajt.jpg,00938960627fa.jpg,sunaqyylsngywqzwfmx.jpg,,,>,Face,,,,,1,,,,,,,o
202,17,Presentation,4,00210940128fb_sunabanoxjtqxamkucc.jpg,00676941121fa_sunadpnqovzckyikrjo.jpg,00210940128fb.jpg,sunabanoxjtqxamkucc.jpg,00676941121fa.jpg,sunadpnqovzckyikrjo.jpg,,,<,Place,,,,,1,,,,,,,x
203,17,Presentation,4,00314940422fa_sunabwmcbaxwioksdgw.jpg,00133931230fa_sunaanlwnpqndclffxt.jpg,00314940422fa.jpg,sunabwmcbaxwioksdgw.jpg,00133931230fa.jpg,sunaanlwnpqndclffxt.jpg,,,>,Place,,,,,1,,,,,,,x
204,17,Presentation,4,00895960530fa_sunamczizlzavhzhpay.jpg,00302940422fa_sunabtlfmiwtljmoues.jpg,00895960530fa.jpg,sunamczizlzavhzhpay.jpg,00302940422fa.jpg,sunabtlfmiwtljmoues.jpg,,,<,Place,,,,,1,,,,,,,x
205,17,Presentation,4,00193940928fa_sunaaxjpzcnxligjtjq.jpg,00972960627fa_sunbbfqwjpdxniyhies.jpg,00193940928fa.jpg,sunaaxjpzcnxligjtjq.jpg,00972960627fa.jpg,sunbbfqwjpdxniyhies.jpg,,,>,Face,,,,,1,,,,,,,o
206,17,Presentation,4,00062931230fb_sunaaelotvjgibjtjhs.jpg,00265940128fb_sunabkmdplkdbvxriff.jpg,00062931230fb.jpg,sunaaelotvjgibjtjhs.jpg,00265940128fb.jpg,sunabkmdplkdbvxriff.jpg,,,<,Face,,,,,1,,,,,,,o
207,17,Presentation,4,00773960620fa_sunafvsxtzaizojicxx.jpg,00834940307fa_sunaibnpvhkdpdnzcnz.jpg,00773960620fa.jpg,sunafvsxtzaizojicxx.jpg,00834940307fa.jpg,sunaibnpvhkdpdnzcnz.jpg,,,>,Face,,,,,0,,,,,,,o
208,17,Presentation,4,00976960627fa_sunbbhqyyzmsxhsbjmp.jpg,00574940928fa_sunacvbrcejzwmcgnoq.jpg,00976960627fa.jpg,sunbbhqyyzmsxhsbjmp.jpg,00574940928fa.jpg,sunacvbrcejzwmcgnoq.jpg,,,<,Face,,,,,1,,,,,,,o
209,17,Presentation,4,00746941201fa_sunaetydippjxikifsb.jpg,00208940128fa_sunaazzyhbvqjpmazjq.jpg,00746941201fa.jpg,sunaetydippjxikifsb.jpg,00208940128fa.jpg,sunaazzyhbvqjpmazjq.jpg,,,>,Place,,,,,0,,,,,,,o
210,17,Memory,4,,,,,,,sunaaxjpzcnxligjtjq.jpg,,,,,,,,,,,,,,,
211,17,Memory,4,,,,,,,00895960530fa.jpg,,,,,,,,,,,,,,,
212,17,Memory,4,,,,,,,00147931230fb.jpg,,,,,,,,,,,,,,,
213,17,Memory,4,,,,,,,sunbbfqwjpdxniyhies.jpg,,,,,,,,,,,,,,,
214,17,Memory,4,,,,,,,00133931230fa.jpg,,,,,,,,,,,,,,,
215,17,Memory,4,,,,,,,sunasbbntuiheekqyaq.jpg,,,,,,,,,,,,,,,
216,17,Memory,4,,,,,,,sunadpnqovzckyikrjo.jpg,,,,,,,,,,,,,,,
217,17,Memory,4,,,,,,,sunbbxkanhzjgbwyxqs.jpg,,,,,,,,,,,,,,,
218,17,Memory,4,,,,,,,00730960620fa.jpg,,,,,,,,,,,,,,,
219,17,Memory,4,,,,,,,00979960627fa.jpg,,,,,,,,,,,,,,,
220,17,Memory,4,,,,,,,00742941201fa.jpg,,,,,,,,,,,,,,,
221,17,Memory,4,,,,,,,sunbdycacjfaujxitbw.jpg,,,,,,,,,,,,,,,
222,17,Memory,4,,,,,,,sunaanlwnpqndclffxt.jpg,,,,,,,,,,,,,,,
223,17,Memory,4,,,,,,,sunamczizlzavhzhpay.jpg,,,,,,,,,,,,,,,
224,17,Memory,4,,,,,,,00062931230fb.jpg,,,,,,,,,,,,,,,
225,17,Memory,4,,,,,,,00773960620fa.jpg,,,,,,,,,,,,,,,
226,17,Memory,4,,,,,,,00193940928fa.jpg,,,,,,,,,,,,,,,
227,17,Memory,4,,,,,,,sunaatpkocdkocwxpkb.jpg,,,,,,,,,,,,,,,
228,17,Memory,4,,,,,,,sunabkmdplkdbvxriff.jpg,,,,,,,,,,,,,,,
229,17,Memory,4,,,,,,,00972960627fa.jpg,,,,,,,,,,,,,,,
230,17,Memory,4,,,,,,,sunaaelotvjgibjtjhs.jpg,,,,,,,,,,,,,,,
231,17,Memory,4,,,,,,,sunaenwuebvlpdmntju.jpg,,,,,,,,,,,,,,,
232,17,Memory,4,,,,,,,00944960627fa.jpg,,,,,,,,,,,,,,,
233,17,Memory,4,,,,,,,00676941121fa.jpg,,,,,,,,,,,,,,,
234,17,Memory,4,,,,,,,00885960530fa.jpg,,,,,,,,,,,,,,,
235,17,Memory,4,,,,,,,sunakwlvxjpddialozd.jpg,,,,,,,,,,,,,,,
236,17,Memory,4,,,,,,,sunaeouogqolxvggaoq.jpg,,,,,,,,,,,,,,,
237,17,Memory,4,,,,,,,00900960530fa.jpg,,,,,,,,,,,,,,,
238,17,Memory,4,,,,,,,00210940128fb.jpg,,,,,,,,,,,,,,,
239,17,Memory,4,,,,,,,00265940128fb.jpg,,,,,,,,,,,,,,,
240,17,Memory,4,,,,,,,sunabkngeblodihjvbk.jpg,,,,,,,,,,,,,,,
241,17,Memory,4,,,,,,,sunafvsxtzaizojicxx.jpg,,,,,,,,,,,,,,,
242,17,Memory,4,,,,,,,sundbixjudsgeuuehrn.jpg,,,,,,,,,,,,,,,
243,17,Memory,4,,,,,,,00977960627fa.jpg,,,,,,,,,,,,,,,
244,17,Memory,4,,,,,,,sunabanoxjtqxamkucc.jpg,,,,,,,,,,,,,,,
245,17,Memory,4,,,,,,,01207940128fa.jpg,,,,,,,,,,,,,,,
246,17,Memory,4,,,,,,,00266940128fb.jpg,,,,,,,,,,,,,,,
247,17,Memory,4,,,,,,,00745941205fa.jpg,,,,,,,,,,,,,,,
248,17,Memory,4,,,,,,,sunamlotskmmsjeogby.jpg,,,,,,,,,,,,,,,
249,17,Memory,4,,,,,,,sunaekgzpfilgjxpeyq.jpg,,,,,,,,,,,,,,,
250,17,Presentation,5,00235940128fb_sunabclssnoeuigtawp.jpg,00877960530fa_sunajxpkuhbizeveguy.jpg,00235940128fb.jpg,sunabclssnoeuigtawp.jpg,00877960530fa.jpg,sunajxpkuhbizeveguy.jpg,,,>,Place,,,,,1,,,,,,,o
251,17,Presentation,5,00218940128fa_sunabbwggenhfbftyvi.jpg,00749941201fa_sunaeuvjbmdpknaqqaj.jpg,00218940128fa.jpg,sunabbwggenhfbftyvi.jpg,00749941201fa.jpg,sunaeuvjbmdpknaqqaj.jpg,,,<,Face,,,,,1,,,,,,,x
252,17,Presentation,5,00727941205fa_sunaeisnjeetzmkbuad.jpg,00136931230fb_sunaanptmsknhirrzed.jpg,00727941205fa.jpg,sunaeisnjeetzmkbuad.jpg,00136931230fb.jpg,sunaanptmsknhirrzed.jpg,,,>,Face,,,,,1,,,,,,,o
253,17,Presentation,5,00123931230fb_sunaalcrrdbjgdztbiz.jpg,00145931230fb_sunaatjesvdupctftmn.jpg,00123931230fb.jpg,sunaalcrrdbjgdztbiz.jpg,00145931230fb.jpg,sunaatjesvdupctftmn.jpg,,,<,Place,,,,,1,,,,,,,x
254,17,Presentation,5,00728941205fa_sunaejnvnpltdmhbcsi.jpg,00096931230fa_sunaaiqiqcggrskoqgy.jpg,00728941205fa.jpg,sunaejnvnpltdmhbcsi.jpg,00096931230fa.jpg,sunaaiqiqcggrskoqgy.jpg,,,<,Place,,,,,1,,,,,,,x
255,17,Presentation,5,00262940128fa_sunabizydfotqddlnjp.jpg,00294940422fb_sunabrlndkruqokhury.jpg,00262940128fa.jpg,sunabizydfotqddlnjp.jpg,00294940422fb.jpg,sunabrlndkruqokhury.jpg,,,>,Place,,,,,1,,,,,,,x
256,17,Presentation,5,00554940519fa_sunacfdkbsrughwqwtt.jpg,00838940307fa_sunaiozxhxgtfrmoagh.jpg,00554940519fa.jpg,sunacfdkbsrughwqwtt.jpg,00838940307fa.jpg,sunaiozxhxgtfrmoagh.jpg,,,<,Face,,,,,1,,,,,,,x
257,17,Presentation,5,00479940519fa_sunabxsbfwjccqxxzxq.jpg,00663941121fa_sunadnjjzohjhbohlwq.jpg,00479940519fa.jpg,sunabxsbfwjccqxxzxq.jpg,00663941121fa.jpg,sunadnjjzohjhbohlwq.jpg,,,>,Face,,,,,1,,,,,,,x
258,17,Presentation,5,00483940519fa_sunabyvpwkgsjtijdwj.jpg,00211940128fa_sunabasphceswhwwqvv.jpg,00483940519fa.jpg,sunabyvpwkgsjtijdwj.jpg,00211940128fa.jpg,sunabasphceswhwwqvv.jpg,,,>,Place,,,,,1,,,,,,,o
259,17,Presentation,5,00947960627fa_sunasmmcxdddtmtazwx.jpg,01009960627fa_sunbxzweleltykebgan.jpg,00947960627fa.jpg,sunasmmcxdddtmtazwx.jpg,01009960627fa.jpg,sunbxzweleltykebgan.jpg,,,<,Face,,,,,1,,,,,,,x
260,17,Memory,5,,,,,,,sunaiozxhxgtfrmoagh.jpg,,,,,,,,,,,,,,,
261,17,Memory,5,,,,,,,00783941205fa.jpg,,,,,,,,,,,,,,,
262,17,Memory,5,,,,,,,sunabizydfotqddlnjp.jpg,,,,,,,,,,,,,,,
263,17,Memory,5,,,,,,,00847940307fa.jpg,,,,,,,,,,,,,,,
264,17,Memory,5,,,,,,,sunabqowuarvqqcnipn.jpg,,,,,,,,,,,,,,,
265,17,Memory,5,,,,,,,sunacsdhbbsybcyxnel.jpg,,,,,,,,,,,,,,,
266,17,Memory,5,,,,,,,sunaiwfobocrruqznsv.jpg,,,,,,,,,,,,,,,
267,17,Memory,5,,,,,,,01009960627fa.jpg,,,,,,,,,,,,,,,
268,17,Memory,5,,,,,,,00077931230fb.jpg,,,,,,,,,,,,,,,
269,17,Memory,5,,,,,,,sunafijbgncijwykrnl.jpg,,,,,,,,,,,,,,,
270,17,Memory,5,,,,,,,00136931230fb.jpg,,,,,,,,,,,,,,,
271,17,Memory,5,,,,,,,sunaalcrrdbjgdztbiz.jpg,,,,,,,,,,,,,,,
272,17,Memory,5,,,,,,,00479940519fa.jpg,,,,,,,,,,,,,,,
273,17,Memory,5,,,,,,,00483940519fa.jpg,,,,,,,,,,,,,,,
274,17,Memory,5,,,,,,,sunaatjesvdupctftmn.jpg,,,,,,,,,,,,,,,
275,17,Memory,5,,,,,,,00163931230fb.jpg,,,,,,,,,,,,,,,
276,17,Memory,5,,,,,,,00145931230fb.jpg,,,,,,,,,,,,,,,
277,17,Memory,5,,,,,,,sunaeisnjeetzmkbuad.jpg,,,,,,,,,,,,,,,
278,17,Memory,5,,,,,,,sunabasphceswhwwqvv.jpg,,,,,,,,,,,,,,,
279,17,Memory,5,,,,,,,00568940928fa.jpg,,,,,,,,,,,,,,,
280,17,Memory,5,,,,,,,sunaavodbcpygkggnfp.jpg,,,,,,,,,,,,,,,
281,17,Memory,5,,,,,,,00211940128fa.jpg,,,,,,,,,,,,,,,
282,17,Memory,5,,,,,,,sunabyvpwkgsjtijdwj.jpg,,,,,,,,,,,,,,,
283,17,Memory,5,,,,,,,00838940307fa.jpg,,,,,,,,,,,,,,,
284,17,Memory,5,,,,,,,00123931230fb.jpg,,,,,,,,,,,,,,,
285,17,Memory,5,,,,,,,sunagjeesomrwjsfqie.jpg,,,,,,,,,,,,,,,
286,17,Memory,5,,,,,,,00262940128fa.jpg,,,,,,,,,,,,,,,
287,17,Memory,5,,,,,,,00727941205fa.jpg,,,,,,,,,,,,,,,
288,17,Memory,5,,,,,,,sunaafgqutfaishsxyu.jpg,,,,,,,,,,,,,,,
289,17,Memory,5,,,,,,,00766960620fa.jpg,,,,,,,,,,,,,,,
290,17,Memory,5,,,,,,,00857940307fa.jpg,,,,,,,,,,,,,,,
291,17,Memory,5,,,,,,,sunaanptmsknhirrzed.jpg,,,,,,,,,,,,,,,
292,17,Memory,5,,,,,,,sunatstrpjxhvtbaczf.jpg,,,,,,,,,,,,,,,
293,17,Memory,5,,,,,,,00146960620fb.jpg,,,,,,,,,,,,,,,
294,17,Memory,5,,,,,,,sunabxsbfwjccqxxzxq.jpg,,,,,,,,,,,,,,,
295,17,Memory,5,,,,,,,sunbxzweleltykebgan.jpg,,,,,,,,,,,,,,,
296,17,Memory,5,,,,,,,00290940422fa.jpg,,,,,,,,,,,,,,,
297,17,Memory,5,,,,,,,00953960627fa.jpg,,,,,,,,,,,,,,,
298,17,Memory,5,,,,,,,sunaivdjruhkrfywfed.jpg,,,,,,,,,,,,,,,
299,17,Memory,5,,,,,,,sunaatpeezlljqaxlhj.jpg,,,,,,,,,,,,,,,
300,17,Presentation,6,00937960627fa_sunaqsolmfydodnakub.jpg,00839940307fa_sunaipyohrqlwngaqif.jpg,00937960627fa.jpg,sunaqsolmfydodnakub.jpg,00839940307fa.jpg,sunaipyohrqlwngaqif.jpg,,,>,Place,,,,,1,,,,,,,x
301,17,Presentation,6,00919960620fa_sunapmfmzadmosuogaz.jpg,00630941031fa_sunadakkdovnuzlycvp.jpg,00919960620fa.jpg,sunapmfmzadmosuogaz.jpg,00630941031fa.jpg,sunadakkdovnuzlycvp.jpg,,,<,Face,,,,,0,,,,,,,o
302,17,Presentation,6,00080931230fb_sunaafjszryxyavjzln.jpg,00785941205fa_sunaglqunwuycxydmyu.jpg,00080931230fb.jpg,sunaafjszryxyavjzln.jpg,00785941205fa.jpg,sunaglqunwuycxydmyu.jpg,,,>,Place,,,,,1,,,,,,,o
303,17,Presentation,6,00723941201fa_sunaedtgwjvvziytspa.jpg,00894960620fa_sunalqmfgeadpqsyzpd.jpg,00723941201fa.jpg,sunaedtgwjvvziytspa.jpg,00894960620fa.jpg,sunalqmfgeadpqsyzpd.jpg,,,>,Face,,,,,1,,,,,,,x
304,17,Presentation,6,00063931230fa_sunaaelyvurpntclgau.jpg,00633940928fa_sunadbhmrgrrpyzglxs.jpg,00063931230fa.jpg,sunaaelyvurpntclgau.jpg,00633940928fa.jpg,sunadbhmrgrrpyzglxs.jpg,,,>,Face,,,,,1,,,,,,,o
305,17,Presentation,6,00144931230fb_sunaathajvxrgptwhoj.jpg,00280940422fb_sunabohxbskznglnrhv.jpg,00144931230fb.jpg,sunaathajvxrgptwhoj.jpg,00280940422fb.jpg,sunabohxbskznglnrhv.jpg,,,<,Place,,,,,1,,,,,,,o
306,17,Presentation,6,00194940128fb_sunaayehfdqcyxggsej.jpg,00743941201fa_sunaeoghzrjarigmwua.jpg,00194940128fb.jpg,sunaayehfdqcyxggsej.jpg,00743941201fa.jpg,sunaeoghzrjarigmwua.jpg,,,<,Place,,,,,1,,,,,,,o
307,17,Presentation,6,00060931230fa_sunaaehaikpckyjsety.jpg,00763941205fa_sunafhmnhsdurlvddpw.jpg,00060931230fa.jpg,sunaaehaikpckyjsety.jpg,00763941205fa.jpg,sunafhmnhsdurlvddpw.jpg,,,<,Face,,,,,1,,,,,,,x
308,17,Presentation,6,00848940307fa_sunaivdylrawbmhryfp.jpg,00125931230fa_sunaalltyvjhbzhkmvg.jpg,00848940307fa.jpg,sunaivdylrawbmhryfp.jpg,00125931230fa.jpg,sunaalltyvjhbzhkmvg.jpg,,,<,Face,,,,,0,,,,,,,x
309,17,Presentation,6,00505960627fa_sunabzuqsrgcsonqlkz.jpg,00768941205fa_sunafkmnlytenlsywia.jpg,00505960627fa.jpg,sunabzuqsrgcsonqlkz.jpg,00768941205fa.jpg,sunafkmnlytenlsywia.jpg,,,>,Place,,,,,1,,,,,,,o
310,17,Memory,6,,,,,,,sunapmfmzadmosuogaz.jpg,,,,,,,,,,,,,,,
311,17,Memory,6,,,,,,,sunadakkdovnuzlycvp.jpg,,,,,,,,,,,,,,,
312,17,Memory,6,,,,,,,sunaagcpoejbuzyvddd.jpg,,,,,,,,,,,,,,,
313,17,Memory,6,,,,,,,00280940422fb.jpg,,,,,,,,,,,,,,,
314,17,Memory,6,,,,,,,00760960620fa.jpg,,,,,,,,,,,,,,,
315,17,Memory,6,,,,,,,00630941031fa.jpg,,,,,,,,,,,,,,,
316,17,Memory,6,,,,,,,00911960530fa.jpg,,,,,,,,,,,,,,,
317,17,Memory,6,,,,,,,00864940307fa.jpg,,,,,,,,,,,,,,,
318,17,Memory,6,,,,,,,00675941121fa.jpg,,,,,,,,,,,,,,,
319,17,Memory,6,,,,,,,00144931230fb.jpg,,,,,,,,,,,,,,,
320,17,Memory,6,,,,,,,sunaathajvxrgptwhoj.jpg,,,,,,,,,,,,,,,
321,17,Memory,6,,,,,,,sunavspxmxubqaeidjt.jpg,,,,,,,,,,,,,,,
322,17,Memory,6,,,,,,,00839940307fa.jpg,,,,,,,,,,,,,,,
323,17,Memory,6,,,,,,,00931960627fa.jpg,,,,,,,,,,,,,,,
324,17,Memory,6,,,,,,,00089931230fa.jpg,,,,,,,,,,,,,,,
325,17,Memory,6,,,,,,,sunaffstbkappprzxnv.jpg,,,,,,,,,,,,,,,
326,17,Memory,6,,,,,,,sunafkmnlytenlsywia.jpg,,,,,,,,,,,,,,,
327,17,Memory,6,,,,,,,00194940128fb.jpg,,,,,,,,,,,,,,,
328,17,Memory,6,,,,,,,00725941201fa.jpg,,,,,,,,,,,,,,,
329,17,Memory,6,,,,,,,sunaizeyhvjzknwjudw.jpg,,,,,,,,,,,,,,,
330,17,Memory,6,,,,,,,00860940307fa.jpg,,,,,,,,,,,,,,,
331,17,Memory,6,,,,,,,00768941205fa.jpg,,,,,,,,,,,,,,,
332,17,Memory,6,,,,,,,sunaqsolmfydodnakub.jpg,,,,,,,,,,,,,,,
333,17,Memory,6,,,,,,,sunabohxbskznglnrhv.jpg,,,,,,,,,,,,,,,
334,17,Memory,6,,,,,,,00763941205fa.jpg,,,,,,,,,,,,,,,
335,17,Memory,6,,,,,,,sunaipyohrqlwngaqif.jpg,,,,,,,,,,,,,,,
336,17,Memory,6,,,,,,,sunafhmnhsdurlvddpw.jpg,,,,,,,,,,,,,,,
337,17,Memory,6,,,,,,,sunaptrqvaooxfvktvw.jpg,,,,,,,,,,,,,,,
338,17,Memory,6,,,,,,,00958960627fa.jpg,,,,,,,,,,,,,,,
339,17,Memory,6,,,,,,,sunaletopenvvozhpxc.jpg,,,,,,,,,,,,,,,
340,17,Memory,6,,,,,,,sunajawzbrlrwafowen.jpg,,,,,,,,,,,,,,,
341,17,Memory,6,,,,,,,sunaooaqzputrowwbsw.jpg,,,,,,,,,,,,,,,
342,17,Memory,6,,,,,,,00919960620fa.jpg,,,,,,,,,,,,,,,
343,17,Memory,6,,,,,,,sunaefgzwiramypjvtd.jpg,,,,,,,,,,,,,,,
344,17,Memory,6,,,,,,,00889960530fa.jpg,,,,,,,,,,,,,,,
345,17,Memory,6,,,,,,,00937960627fa.jpg,,,,,,,,,,,,,,,
346,17,Memory,6,,,,,,,00063931230fa.jpg,,,,,,,,,,,,,,,
347,17,Memory,6,,,,,,,sunaayehfdqcyxggsej.jpg,,,,,,,,,,,,,,,
348,17,Memory,6,,,,,,,sunaaelyvurpntclgau.jpg,,,,,,,,,,,,,,,
349,17,Memory,6,,,,,,,sunadoxcchtmsxewsau.jpg,,,,,,,,,,,,,,,
350,17,Presentation,7,00065931230fb_sunaaemixhfquhnxxlm.jpg,00807941205fa_sunahawfngukizslzsd.jpg,00065931230fb.jpg,sunaaemixhfquhnxxlm.jpg,00807941205fa.jpg,sunahawfngukizslzsd.jpg,,,>,Face,,,,,1,,,,,,,o
351,17,Presentation,7,00131931230fb_sunaangbuylfvckqqoo.jpg,00955960627fb_sunauburywlkjszngcq.jpg,00131931230fb.jpg,sunaangbuylfvckqqoo.jpg,00955960627fb.jpg,sunauburywlkjszngcq.jpg,,,>,Face,,,,,1,,,,,,,o
352,17,Presentation,7,00598940928fa_sunacxeheuiigkcgquf.jpg,00866940307fa_sunajbwkywmsqkldfml.jpg,00598940928fa.jpg,sunacxeheuiigkcgquf.jpg,00866940307fa.jpg,sunajbwkywmsqkldfml.jpg,,,<,Face,,,,,1,,,,,,,x
353,17,Presentation,7,00142931230fb_sunaapxkpvrhpjplsok.jpg,00061931230fb_sunaaekxzjzrfgtkwjf.jpg,00142931230fb.jpg,sunaapxkpvrhpjplsok.jpg,00061931230fb.jpg,sunaaekxzjzrfgtkwjf.jpg,,,<,Place,,,,,1,,,,,,,o
354,17,Presentation,7,00862940307fa_sunaizgnnplsvajzhkc.jpg,00790941205fa_sunagpjzsbltchlwvou.jpg,00862940307fa.jpg,sunaizgnnplsvajzhkc.jpg,00790941205fa.jpg,sunagpjzsbltchlwvou.jpg,,,>,Face,,,,,1,,,,,,,x
355,17,Presentation,7,00851940307fa_sunaivflshbyfrfzhqb.jpg,00306940422fa_sunabueyoajufbkraki.jpg,00851940307fa.jpg,sunaivflshbyfrfzhqb.jpg,00306940422fa.jpg,sunabueyoajufbkraki.jpg,,,>,Place,,,,,1,,,,,,,x
356,17,Presentation,7,00801941205fa_sunagvprlbprarvgdvj.jpg,00795941205fa_sunagtumacdlmciqamz.jpg,00801941205fa.jpg,sunagvprlbprarvgdvj.jpg,00795941205fa.jpg,sunagtumacdlmciqamz.jpg,,,<,Face,,,,,1,,,,,,,x
357,17,Presentation,7,00576941031fa_sunacvjlsylseoghjup.jpg,00288940422fa_sunabppokiyglaxpcha.jpg,00576941031fa.jpg,sunacvjlsylseoghjup.jpg,00288940422fa.jpg,sunabppokiyglaxpcha.jpg,,,>,Place,,,,,1,,,,,,,x
358,17,Presentation,7,00787941205fa_sunagmwxxwymwojbvgi.jpg,00773941201fa_sunafvcflzhlqloapyo.jpg,00787941205fa.jpg,sunagmwxxwymwojbvgi.jpg,00773941201fa.jpg,sunafvcflzhlqloapyo.jpg,,,<,Place,,,,,1,,,,,,,o
359,17,Presentation,7,00871940307_sunajrujcsdxmfbssmc.jpg,00835940307fa_sunaijsqpvodplbwxkf.jpg,00871940307.jpg,sunajrujcsdxmfbssmc.jpg,00835940307fa.jpg,sunaijsqpvodplbwxkf.jpg,,,<,Place,,,,,1,,,,,,,o
360,17,Memory,7,,,,,,,sunaauglwmctnkxyird.jpg,,,,,,,,,,,,,,,
361,17,Memory,7,,,,,,,00871940307.jpg,,,,,,,,,,,,,,,
362,17,Memory,7,,,,,,,sunabrwnslxalcohfre.jpg,,,,,,,,,,,,,,,
363,17,Memory,7,,,,,,,sunagutjvdvnhxejerz.jpg,,,,,,,,,,,,,,,
364,17,Memory,7,,,,,,,00969960627fa.jpg,,,,,,,,,,,,,,,
365,17,Memory,7,,,,,,,sunacvjlsylseoghjup.jpg,,,,,,,,,,,,,,,
366,17,Memory,7,,,,,,,00111931230fb.jpg,,,,,,,,,,,,,,,
367,17,Memory,7,,,,,,,sunbaoizrfijvhpnnjn.jpg,,,,,,,,,,,,,,,
368,17,Memory,7,,,,,,,00787941205fa.jpg,,,,,,,,,,,,,,,
369,17,Memory,7,,,,,,,00296940422fa.jpg,,,,,,,,,,,,,,,
370,17,Memory,7,,,,,,,01003960627fb.jpg,,,,,,,,,,,,,,,
371,17,Memory,7,,,,,,,00061931230fb.jpg,,,,,,,,,,,,,,,
372,17,Memory,7,,,,,,,sunajbwkywmsqkldfml.jpg,,,,,,,,,,,,,,,
373,17,Memory,7,,,,,,,00576941031fa.jpg,,,,,,,,,,,,,,,
374,17,Memory,7,,,,,,,00142931230fb.jpg,,,,,,,,,,,,,,,
375,17,Memory,7,,,,,,,sunaakgekhjklxmvulj.jpg,,,,,,,,,,,,,,,
376,17,Memory,7,,,,,,,00955960627fb.jpg,,,,,,,,,,,,,,,
377,17,Memory,7,,,,,,,00773941201fa.jpg,,,,,,,,,,,,,,,
378,17,Memory,7,,,,,,,sunbpvgllfdejxcpjqp.jpg,,,,,,,,,,,,,,,
379,17,Memory,7,,,,,,,00799941205fa.jpg,,,,,,,,,,,,,,,
380,17,Memory,7,,,,,,,00862940307fa.jpg,,,,,,,,,,,,,,,
381,17,Memory,7,,,,,,,sunabckqabszusgcykj.jpg,,,,,,,,,,,,,,,
382,17,Memory,7,,,,,,,sunaijsqpvodplbwxkf.jpg,,,,,,,,,,,,,,,
383,17,Memory,7,,,,,,,sunafvcflzhlqloapyo.jpg,,,,,,,,,,,,,,,
384,17,Memory,7,,,,,,,sunauburywlkjszngcq.jpg,,,,,,,,,,,,,,,
385,17,Memory,7,,,,,,,00227940128fa.jpg,,,,,,,,,,,,,,,
386,17,Memory,7,,,,,,,sunbwdrdvsweerwsdrj.jpg,,,,,,,,,,,,,,,
387,17,Memory,7,,,,,,,sunajrujcsdxmfbssmc.jpg,,,,,,,,,,,,,,,
388,17,Memory,7,,,,,,,00835940307fa.jpg,,,,,,,,,,,,,,,
389,17,Memory,7,,,,,,,sunabeyhmxodahoieyk.jpg,,,,,,,,,,,,,,,
390,17,Memory,7,,,,,,,sunaapxkpvrhpjplsok.jpg,,,,,,,,,,,,,,,
391,17,Memory,7,,,,,,,00245940128fa.jpg,,,,,,,,,,,,,,,
392,17,Memory,7,,,,,,,sunaaekxzjzrfgtkwjf.jpg,,,,,,,,,,,,,,,
393,17,Memory,7,,,,,,,sunaizgnnplsvajzhkc.jpg,,,,,,,,,,,,,,,
394,17,Memory,7,,,,,,,sunagmwxxwymwojbvgi.jpg,,,,,,,,,,,,,,,
395,17,Memory,7,,,,,,,00149931230fa.jpg,,,,,,,,,,,,,,,
396,17,Memory,7,,,,,,,00996960627fa.jpg,,,,,,,,,,,,,,,
397,17,Memory,7,,,,,,,sunawotxrevnqvamsfp.jpg,,,,,,,,,,,,,,,
398,17,Memory,7,,,,,,,00961960627fa.jpg,,,,,,,,,,,,,,,
399,17,Memory,7,,,,,,,00866940307fa.jpg,,,,,,,,,,,,,,,
