,Subject,Trial Type,Run,Cued Composite,Uncued Composite,Cued Face,Cued Place,Uncued Face,Uncued Place,Memory Image,Category,Cued Side,Cued Category,Attention Response Time (s),Familiarity Reaction Time (s),Familiarity Rating,Attention Level,Cue Validity,Post Invalid Cue,Pre Invalid Cue,Attention Button,Rating History,Stimulus Onset,Stimulus End,Attention Probe
0,17,Presentation,0,00997960627fa_sunbtpilbhhbmhmeuzq.jpg,00119931230fb_sunaakvmbftkrgqhjun.jpg,,,,,,,>,Place,,,,,1,,,,,,,x
1,17,Presentation,0,00598940928fa_sunacxeheuiigkcgquf.jpg,00810941205fa_sunahctntqrunhdxhtb.jpg,,,,,,,>,Face,,,,,1,,,,,,,x
2,17,Presentation,0,00126931230fb_sunaamdjwemxpmmtypi.jpg,00973960627fa_sunbbgtoeuzierkkajt.jpg,,,,,,,<,Face,,,,,1,,,,,,,x
3,17,Presentation,0,00267940128fb_sunablfqiwfqomjarht.jpg,00771941205fa_sunafowswglhxcsufpo.jpg,,,,,,,<,Place,,,,,1,,,,,,,x
4,17,Presentation,0,00986960627fa_sunbgzjryivyczuvkvm.jpg,00609940928fa_sunacycdoztxoluxjyk.jpg,,,,,,,<,Face,,,,,1,,,,,,,o
5,17,Presentation,0,00800941205fb_sunagvjurcwdbixvnyi.jpg,00197940128fa_sunaaylzyqlqrsmfwif.jpg,,,,,,,>,Place,,,,,1,,,,,,,x
6,17,Presentation,0,00796941205fa_sunaguchqqnrtodtezq.jpg,00498960627fa_sunabzjxlmkwnwzimua.jpg,,,,,,,>,Face,,,,,1,,,,,,,x
7,17,Presentation,0,00979960627fa_sunbdycacjfaujxitbw.jpg,00976960627fa_sunbbhqyyzmsxhsbjmp.jpg,,,,,,,<,Place,,,,,1,,,,,,,x
8,17,Presentation,0,00719941201fa_sunadvithllcgmfxsrn.jpg,00638941031fa_sunadfktsqjthoglcsm.jpg,,,,,,,<,Face,,,,,1,,,,,,,o
9,17,Presentation,0,00576941031fa_sunacvjlsylseoghjup.jpg,00952960627fa_sunathzzbcwjykldrem.jpg,,,,,,,>,Place,,,,,1,,,,,,,o
10,17,Memory,0,,,,,,,00952960627fa.jpg,,,,,,,,,,,,,,,
11,17,Memory,0,,,,,,,sunaaheqzstzxuadglu.jpg,,,,,,,,,,,,,,,
12,17,Memory,0,,,,,,,00162931230fb.jpg,,,,,,,,,,,,,,,
13,17,Memory,0,,,,,,,sunbgzjryivyczuvkvm.jpg,,,,,,,,,,,,,,,
14,17,Memory,0,,,,,,,sunbtpilbhhbmhmeuzq.jpg,,,,,,,,,,,,,,,
15,17,Memory,0,,,,,,,00129931230fb.jpg,,,,,,,,,,,,,,,
16,17,Memory,0,,,,,,,00947960627fa.jpg,,,,,,,,,,,,,,,
17,17,Memory,0,,,,,,,sunaavjinpnkappuonm.jpg,,,,,,,,,,,,,,,
18,17,Memory,0,,,,,,,sunbbhqyyzmsxhsbjmp.jpg,,,,,,,,,,,,,,,
19,17,Memory,0,,,,,,,sunaaylzyqlqrsmfwif.jpg,,,,,,,,,,,,,,,
20,17,Memory,0,,,,,,,00314940422fa.jpg,,,,,,,,,,,,,,,
21,17,Memory,0,,,,,,,sunaanlwnpqndclffxt.jpg,,,,,,,,,,,,,,,
22,17,Memory,0,,,,,,,sunabwmcbaxwioksdgw.jpg,,,,,,,,,,,,,,,
23,17,Memory,0,,,,,,,sunaakvmbftkrgqhjun.jpg,,,,,,,,,,,,,,,
24,17,Memory,0,,,,,,,00676941121fa.jpg,,,,,,,,,,,,,,,
25,17,Memory,0,,,,,,,00218940128fa.jpg,,,,,,,,,,,,,,,
26,17,Memory,0,,,,,,,sunablfqiwfqomjarht.jpg,,,,,,,,,,,,,,,
27,17,Memory,0,,,,,,,sunasmmcxdddtmtazwx.jpg,,,,,,,,,,,,,,,
28,17,Memory,0,,,,,,,sunabbwggenhfbftyvi.jpg,,,,,,,,,,,,,,,
29,17,Memory,0,,,,,,,00997960627fa.jpg,,,,,,,,,,,,,,,
30,17,Memory,0,,,,,,,sunadpnqovzckyikrjo.jpg,,,,,,,,,,,,,,,
31,17,Memory,0,,,,,,,00892960530fa.jpg,,,,,,,,,,,,,,,
32,17,Memory,0,,,,,,,00267940128fb.jpg,,,,,,,,,,,,,,,
33,17,Memory,0,,,,,,,00986960627fa.jpg,,,,,,,,,,,,,,,
34,17,Memory,0,,,,,,,sunaguchqqnrtodtezq.jpg,,,,,,,,,,,,,,,
35,17,Memory,0,,,,,,,00976960627fa.jpg,,,,,,,,,,,,,,,
36,17,Memory,0,,,,,,,00943960627fa.jpg,,,,,,,,,,,,,,,
37,17,Memory,0,,,,,,,00119931230fb.jpg,,,,,,,,,,,,,,,
38,17,Memory,0,,,,,,,sunalntxqqadigcletd.jpg,,,,,,,,,,,,,,,
39,17,Memory,0,,,,,,,00133931230fa.jpg,,,,,,,,,,,,,,,
40,17,Memory,0,,,,,,,00197940128fa.jpg,,,,,,,,,,,,,,,
41,17,Memory,0,,,,,,,sunarpsxqkduedrrzyi.jpg,,,,,,,,,,,,,,,
42,17,Memory,0,,,,,,,00800941205fb.jpg,,,,,,,,,,,,,,,
43,17,Memory,0,,,,,,,sunaamsdyakblkfoydx.jpg,,,,,,,,,,,,,,,
44,17,Memory,0,,,,,,,sunagvjurcwdbixvnyi.jpg,,,,,,,,,,,,,,,
45,17,Memory,0,,,,,,,00092931230fa.jpg,,,,,,,,,,,,,,,
46,17,Memory,0,,,,,,,sunathzzbcwjykldrem.jpg,,,,,,,,,,,,,,,
47,17,Memory,0,,,,,,,00498960627fa.jpg,,,,,,,,,,,,,,,
48,17,Memory,0,,,,,,,sunabzjxlmkwnwzimua.jpg,,,,,,,,,,,,,,,
49,17,Memory,0,,,,,,,00796941205fa.jpg,,,,,,,,,,,,,,,
50,17,Presentation,1,00862940307fa_sunaizgnnplsvajzhkc.jpg,01000960627fa_sunbvzmgrdvaakxusbu.jpg,,,,,,,>,Face,,,,,1,,,,,,,o
51,17,Presentation,1,00942960627fa_sunarfdklgdnjgeqfjg.jpg,00132931230fb_sunaanjcbzdvtvblsdy.jpg,,,,,,,>,Place,,,,,1,,,,,,,x
52,17,Presentation,1,00263940128fb_sunabjuovqvyfuzvqwt.jpg,00112931230fa_sunaakjaacuzulqckgl.jpg,,,,,,,>,Face,,,,,1,,,,,,,x
53,17,Presentation,1,00127931230fa_sunaampvucecsfbdafn.jpg,00851940307fa_sunaivflshbyfrfzhqb.jpg,,,,,,,<,Face,,,,,1,,,,,,,x
54,17,Presentation,1,00694941121fa_sunadrmfzmstgdjdcod.jpg,00125931230fa_sunaalltyvjhbzhkmvg.jpg,,,,,,,<,Place,,,,,1,,,,,,,o
55,17,Presentation,1,00316940422fa_sunabxmguapjekttvwm.jpg,00799941205fa_sunagutjvdvnhxejerz.jpg,,,,,,,>,Place,,,,,1,,,,,,,x
56,17,Presentation,1,00120931230fa_sunaakxgygjfqrzpyoz.jpg,00905960530fa_sunanmoqeyprjjjfxjt.jpg,,,,,,,<,Face,,,,,1,,,,,,,x
57,17,Presentation,1,01009960627fa_sunbxzweleltykebgan.jpg,00819940307fa_sunahqldjibofgsfdgb.jpg,,,,,,,<,Place,,,,,1,,,,,,,o
58,17,Presentation,1,00949960627fb_sunasnqkkyhilqkxiqm.jpg,00894960620fa_sunalqmfgeadpqsyzpd.jpg,,,,,,,<,Face,,,,,1,,,,,,,x
59,17,Presentation,1,00663941121fa_sunadnjjzohjhbohlwq.jpg,00071940128fa_sunaaexpnawiehinlpy.jpg,,,,,,,>,Place,,,,,1,,,,,,,x
60,17,Memory,1,,,,,,,sunabxmguapjekttvwm.jpg,,,,,,,,,,,,,,,
61,17,Memory,1,,,,,,,00960960627fa.jpg,,,,,,,,,,,,,,,
62,17,Memory,1,,,,,,,sunaampvucecsfbdafn.jpg,,,,,,,,,,,,,,,
63,17,Memory,1,,,,,,,00564941031fa.jpg,,,,,,,,,,,,,,,
64,17,Memory,1,,,,,,,sunabxsuqbleluwczoy.jpg,,,,,,,,,,,,,,,
65,17,Memory,1,,,,,,,sunaqyylsngywqzwfmx.jpg,,,,,,,,,,,,,,,
66,17,Memory,1,,,,,,,00851940307fa.jpg,,,,,,,,,,,,,,,
67,17,Memory,1,,,,,,,00885960530fa.jpg,,,,,,,,,,,,,,,
68,17,Memory,1,,,,,,,sunadnjjzohjhbohlwq.jpg,,,,,,,,,,,,,,,
69,17,Memory,1,,,,,,,00799941205fa.jpg,,,,,,,,,,,,,,,
70,17,Memory,1,,,,,,,sunaakxgygjfqrzpyoz.jpg,,,,,,,,,,,,,,,
71,17,Memory,1,,,,,,,00209940128fb.jpg,,,,,,,,,,,,,,,
72,17,Memory,1,,,,,,,00481940519fa.jpg,,,,,,,,,,,,,,,
73,17,Memory,1,,,,,,,sunaajuzribjrizdshh.jpg,,,,,,,,,,,,,,,
74,17,Memory,1,,,,,,,sunaalltyvjhbzhkmvg.jpg,,,,,,,,,,,,,,,
75,17,Memory,1,,,,,,,00127931230fa.jpg,,,,,,,,,,,,,,,
76,17,Memory,1,,,,,,,00942960627fa.jpg,,,,,,,,,,,,,,,
77,17,Memory,1,,,,,,,00911960530fa.jpg,,,,,,,,,,,,,,,
78,17,Memory,1,,,,,,,sunaooaqzputrowwbsw.jpg,,,,,,,,,,,,,,,
79,17,Memory,1,,,,,,,sunalkiibhqpxfamlll.jpg,,,,,,,,,,,,,,,
80,17,Memory,1,,,,,,,00919960620fa.jpg,,,,,,,,,,,,,,,
81,17,Memory,1,,,,,,,00120931230fa.jpg,,,,,,,,,,,,,,,
82,17,Memory,1,,,,,,,sunapmfmzadmosuogaz.jpg,,,,,,,,,,,,,,,
83,17,Memory,1,,,,,,,sunaivflshbyfrfzhqb.jpg,,,,,,,,,,,,,,,
84,17,Memory,1,,,,,,,sunalqmfgeadpqsyzpd.jpg,,,,,,,,,,,,,,,
85,17,Memory,1,,,,,,,00663941121fa.jpg,,,,,,,,,,,,,,,
86,17,Memory,1,,,,,,,sunbvzmgrdvaakxusbu.jpg,,,,,,,,,,,,,,,
87,17,Memory,1,,,,,,,sunakwlvxjpddialozd.jpg,,,,,,,,,,,,,,,
88,17,Memory,1,,,,,,,00125931230fa.jpg,,,,,,,,,,,,,,,
89,17,Memory,1,,,,,,,sunabaergayifsgacxt.jpg,,,,,,,,,,,,,,,
90,17,Memory,1,,,,,,,00109931230fa.jpg,,,,,,,,,,,,,,,
91,17,Memory,1,,,,,,,sunawksfbacycuhbrsc.jpg,,,,,,,,,,,,,,,
92,17,Memory,1,,,,,,,00938960627fa.jpg,,,,,,,,,,,,,,,
93,17,Memory,1,,,,,,,sunagutjvdvnhxejerz.jpg,,,,,,,,,,,,,,,
94,17,Memory,1,,,,,,,00316940422fa.jpg,,,,,,,,,,,,,,,
95,17,Memory,1,,,,,,,sunacsaovnjezqwbykf.jpg,,,,,,,,,,,,,,,
96,17,Memory,1,,,,,,,00894960620fa.jpg,,,,,,,,,,,,,,,
97,17,Memory,1,,,,,,,sunarfdklgdnjgeqfjg.jpg,,,,,,,,,,,,,,,
98,17,Memory,1,,,,,,,01000960627fa.jpg,,,,,,,,,,,,,,,
99,17,Memory,1,,,,,,,00891960530fa.jpg,,,,,,,,,,,,,,,
100,17,Presentation,2,00783941205fa_sunagjeesomrwjsfqie.jpg,00060931230fa_sunaaehaikpckyjsety.jpg,,,,,,,<,Place,,,,,1,,,,,,,o
101,17,Presentation,2,00958960627fa_sunavspxmxubqaeidjt.jpg,00144931230fb_sunaathajvxrgptwhoj.jpg,,,,,,,>,Face,,,,,1,,,,,,,x
102,17,Presentation,2,00080931230fb_sunaafjszryxyavjzln.jpg,00762941201fa_sunafgzgbisbopcyslr.jpg,,,,,,,<,Face,,,,,0,,,,,,,x
103,17,Presentation,2,00803941205fa_sunagvxkjokqimstxpe.jpg,00790941205fa_sunagpjzsbltchlwvou.jpg,,,,,,,>,Place,,,,,1,,,,,,,x
104,17,Presentation,2,00747941201fa_sunaeutbrtswvsozxyk.jpg,00294940422fb_sunabrlndkruqokhury.jpg,,,,,,,>,Face,,,,,1,,,,,,,o
105,17,Presentation,2,00264940128fb_sunabjzyxcjnmztdonj.jpg,00742941201fa_sunaenwuebvlpdmntju.jpg,,,,,,,<,Place,,,,,1,,,,,,,x
106,17,Presentation,2,00719960620fa_sunadzuvtmtmgupotmf.jpg,00146960620fb_sunaatpeezlljqaxlhj.jpg,,,,,,,>,Face,,,,,1,,,,,,,x
107,17,Presentation,2,00816941205fa_sunahmhrncocyhsjpxk.jpg,00589940928fa_sunacwggadqsfpovdjv.jpg,,,,,,,<,Place,,,,,1,,,,,,,x
108,17,Presentation,2,00944960627fa_sunasbbntuiheekqyaq.jpg,00877960530fa_sunajxpkuhbizeveguy.jpg,,,,,,,<,Face,,,,,1,,,,,,,o
109,17,Presentation,2,00101931230fb_sunaajqmsaavkmgbsth.jpg,00306940422fa_sunabueyoajufbkraki.jpg,,,,,,,>,Place,,,,,1,,,,,,,x
110,17,Memory,2,,,,,,,00589940928fa.jpg,,,,,,,,,,,,,,,
111,17,Memory,2,,,,,,,00807941205fa.jpg,,,,,,,,,,,,,,,
112,17,Memory,2,,,,,,,sunaafgqutfaishsxyu.jpg,,,,,,,,,,,,,,,
113,17,Memory,2,,,,,,,sunahawfngukizslzsd.jpg,,,,,,,,,,,,,,,
114,17,Memory,2,,,,,,,00086931230fa.jpg,,,,,,,,,,,,,,,
115,17,Memory,2,,,,,,,00967960627fa.jpg,,,,,,,,,,,,,,,
116,17,Memory,2,,,,,,,00532960627fa.jpg,,,,,,,,,,,,,,,
117,17,Memory,2,,,,,,,sunadzuvtmtmgupotmf.jpg,,,,,,,,,,,,,,,
118,17,Memory,2,,,,,,,00111931230fb.jpg,,,,,,,,,,,,,,,
119,17,Memory,2,,,,,,,sunabueyoajufbkraki.jpg,,,,,,,,,,,,,,,
120,17,Memory,2,,,,,,,00944960627fa.jpg,,,,,,,,,,,,,,,
121,17,Memory,2,,,,,,,00790941205fa.jpg,,,,,,,,,,,,,,,
122,17,Memory,2,,,,,,,sunbaejotfklekvpxcz.jpg,,,,,,,,,,,,,,,
123,17,Memory,2,,,,,,,sunajxpkuhbizeveguy.jpg,,,,,,,,,,,,,,,
124,17,Memory,2,,,,,,,sunaezuszgtxnmsxdbk.jpg,,,,,,,,,,,,,,,
125,17,Memory,2,,,,,,,00306940422fa.jpg,,,,,,,,,,,,,,,
126,17,Memory,2,,,,,,,sunavspxmxubqaeidjt.jpg,,,,,,,,,,,,,,,
127,17,Memory,2,,,,,,,00080931230fb.jpg,,,,,,,,,,,,,,,
128,17,Memory,2,,,,,,,00060931230fa.jpg,,,,,,,,,,,,,,,
129,17,Memory,2,,,,,,,sunagpjzsbltchlwvou.jpg,,,,,,,,,,,,,,,
130,17,Memory,2,,,,,,,sundbixjudsgeuuehrn.jpg,,,,,,,,,,,,,,,
131,17,Memory,2,,,,,,,sunasbbntuiheekqyaq.jpg,,,,,,,,,,,,,,,
132,17,Memory,2,,,,,,,sunaaehaikpckyjsety.jpg,,,,,,,,,,,,,,,
133,17,Memory,2,,,,,,,00878960530fa.jpg,,,,,,,,,,,,,,,
134,17,Memory,2,,,,,,,sunacwggadqsfpovdjv.jpg,,,,,,,,,,,,,,,
135,17,Memory,2,,,,,,,00719960620fa.jpg,,,,,,,,,,,,,,,
136,17,Memory,2,,,,,,,sunaakgekhjklxmvulj.jpg,,,,,,,,,,,,,,,
137,17,Memory,2,,,,,,,00877960530fa.jpg,,,,,,,,,,,,,,,
138,17,Memory,2,,,,,,,00751960620fa.jpg,,,,,,,,,,,,,,,
139,17,Memory,2,,,,,,,01207940128fa.jpg,,,,,,,,,,,,,,,
140,17,Memory,2,,,,,,,00262940128fa.jpg,,,,,,,,,,,,,,,
141,17,Memory,2,,,,,,,sunaafjszryxyavjzln.jpg,,,,,,,,,,,,,,,
142,17,Memory,2,,,,,,,00958960627fa.jpg,,,,,,,,,,,,,,,
143,17,Memory,2,,,,,,,sunabizydfotqddlnjp.jpg,,,,,,,,,,,,,,,
144,17,Memory,2,,,,,,,sunaafynehyrzpsoaml.jpg,,,,,,,,,,,,,,,
145,17,Memory,2,,,,,,,sunakgbnzxmfohgehnu.jpg,,,,,,,,,,,,,,,
146,17,Memory,2,,,,,,,sunagjeesomrwjsfqie.jpg,,,,,,,,,,,,,,,
147,17,Memory,2,,,,,,,00077931230fb.jpg,,,,,,,,,,,,,,,
148,17,Memory,2,,,,,,,00783941205fa.jpg,,,,,,,,,,,,,,,
149,17,Memory,2,,,,,,,sunaccdtpgenvcbcbcf.jpg,,,,,,,,,,,,,,,
150,17,Presentation,3,00805941205fa_sunagwzdbtlixdhgolm.jpg,00089931230fa_sunaagcpoejbuzyvddd.jpg,,,,,,,>,Place,,,,,1,,,,,,,o
151,17,Presentation,3,00893960530Fa_sunaloffvbvysigxent.jpg,00793941205fa_sunagtjwilqjvxohypn.jpg,,,,,,,<,Place,,,,,1,,,,,,,x
152,17,Presentation,3,00854940307fa_sunaiwduelojtwaqeyh.jpg,00081941031fa_sunaaftlyfudyzuhqzf.jpg,,,,,,,>,Face,,,,,1,,,,,,,x
153,17,Presentation,3,00857940307fa_sunaiwfobocrruqznsv.jpg,00779941205fa_sunagdzlvkqtpnfxfcg.jpg,,,,,,,>,Place,,,,,1,,,,,,,o
154,17,Presentation,3,00554940519fa_sunacfdkbsrughwqwtt.jpg,00108960530fa_sunaajtnvzzpsjdzres.jpg,,,,,,,<,Place,,,,,1,,,,,,,o
155,17,Presentation,3,00887960530_sunalcrtwiycqobgelp.jpg,00953960627fa_sunatstrpjxhvtbaczf.jpg,,,,,,,<,Face,,,,,1,,,,,,,o
156,17,Presentation,3,00906960530fa_sunantryfbloeaomfta.jpg,00752960620fa_sunafbwnojpqeyzssoe.jpg,,,,,,,>,Place,,,,,1,,,,,,,o
157,17,Presentation,3,00895960530fa_sunamczizlzavhzhpay.jpg,00260940128fa_sunabgfhvifeijihhjw.jpg,,,,,,,<,Face,,,,,1,,,,,,,x
158,17,Presentation,3,00836940307fa_sunainqelldeebvxtcz.jpg,00935960627fa_sunaqbmgkgqucajzrkp.jpg,,,,,,,>,Face,,,,,1,,,,,,,o
159,17,Presentation,3,00750941201fa_sunaeuzwggvibufclwf.jpg,00876960620fa_sunajwqkfsykceonyig.jpg,,,,,,,<,Face,,,,,1,,,,,,,x
160,17,Memory,3,,,,,,,00929960627fa.jpg,,,,,,,,,,,,,,,
161,17,Memory,3,,,,,,,sunaiwfobocrruqznsv.jpg,,,,,,,,,,,,,,,
162,17,Memory,3,,,,,,,00574940928fa.jpg,,,,,,,,,,,,,,,
163,17,Memory,3,,,,,,,00723941201fa.jpg,,,,,,,,,,,,,,,
164,17,Memory,3,,,,,,,00081941031fa.jpg,,,,,,,,,,,,,,,
165,17,Memory,3,,,,,,,00953960627fa.jpg,,,,,,,,,,,,,,,
166,17,Memory,3,,,,,,,sunaapfaivxqoynnwwp.jpg,,,,,,,,,,,,,,,
167,17,Memory,3,,,,,,,00061931230fb.jpg,,,,,,,,,,,,,,,
168,17,Memory,3,,,,,,,00138931230fa.jpg,,,,,,,,,,,,,,,
169,17,Memory,3,,,,,,,00149931230fa.jpg,,,,,,,,,,,,,,,
170,17,Memory,3,,,,,,,00854940307fa.jpg,,,,,,,,,,,,,,,
171,17,Memory,3,,,,,,,00142931230fb.jpg,,,,,,,,,,,,,,,
172,17,Memory,3,,,,,,,00089931230fa.jpg,,,,,,,,,,,,,,,
173,17,Memory,3,,,,,,,sunaauglwmctnkxyird.jpg,,,,,,,,,,,,,,,
174,17,Memory,3,,,,,,,00857940307fa.jpg,,,,,,,,,,,,,,,
175,17,Memory,3,,,,,,,sunacvbrcejzwmcgnoq.jpg,,,,,,,,,,,,,,,
176,17,Memory,3,,,,,,,00876960620fa.jpg,,,,,,,,,,,,,,,
177,17,Memory,3,,,,,,,00130931230fa.jpg,,,,,,,,,,,,,,,
178,17,Memory,3,,,,,,,sunaprnrbmgkomdbchr.jpg,,,,,,,,,,,,,,,
179,17,Memory,3,,,,,,,sunaeuzwggvibufclwf.jpg,,,,,,,,,,,,,,,
180,17,Memory,3,,,,,,,sunacfdkbsrughwqwtt.jpg,,,,,,,,,,,,,,,
181,17,Memory,3,,,,,,,sunaaekxzjzrfgtkwjf.jpg,,,,,,,,,,,,,,,
182,17,Memory,3,,,,,,,sunajwqkfsykceonyig.jpg,,,,,,,,,,,,,,,
183,17,Memory,3,,,,,,,sunabtrnbvpppgczjim.jpg,,,,,,,,,,,,,,,
184,17,Memory,3,,,,,,,sunammbnoambmhdxdwd.jpg,,,,,,,,,,,,,,,
185,17,Memory,3,,,,,,,00750941201fa.jpg,,,,,,,,,,,,,,,
186,17,Memory,3,,,,,,,sunatstrpjxhvtbaczf.jpg,,,,,,,,,,,,,,,
187,17,Memory,3,,,,,,,00554940519fa.jpg,,,,,,,,,,,,,,,
188,17,Memory,3,,,,,,,00895960530fa.jpg,,,,,,,,,,,,,,,
189,17,Memory,3,,,,,,,00305940422fa.jpg,,,,,,,,,,,,,,,
190,17,Memory,3,,,,,,,00108960530fa.jpg,,,,,,,,,,,,,,,
191,17,Memory,3,,,,,,,sunaedtgwjvvziytspa.jpg,,,,,,,,,,,,,,,
192,17,Memory,3,,,,,,,sunaagcpoejbuzyvddd.jpg,,,,,,,,,,,,,,,
193,17,Memory,3,,,,,,,sunaamvxnvouicstkjb.jpg,,,,,,,,,,,,,,,
194,17,Memory,3,,,,,,,00901960530fa.jpg,,,,,,,,,,,,,,,
195,17,Memory,3,,,,,,,sunaapxkpvrhpjplsok.jpg,,,,,,,,,,,,,,,
196,17,Memory,3,,,,,,,sunamczizlzavhzhpay.jpg,,,,,,,,,,,,,,,
197,17,Memory,3,,,,,,,sunaiwduelojtwaqeyh.jpg,,,,,,,,,,,,,,,
198,17,Memory,3,,,,,,,sunaajtnvzzpsjdzres.jpg,,,,,,,,,,,,,,,
199,17,Memory,3,,,,,,,sunaaftlyfudyzuhqzf.jpg,,,,,,,,,,,,,,,
200,17,Presentation,4,00789960620fa_sunagpancjmxqfazssf.jpg,00797960620fa_sunagufzbeteqdjxais.jpg,,,,,,,<,Face,,,,,1,,,,,,,o
201,17,Presentation,4,00193940928fa_sunaaxjpzcnxligjtjq.jpg,00866940307fa_sunajbwkywmsqkldfml.jpg,,,,,,,<,Place,,,,,1,,,,,,,o
202,17,Presentation,4,01005960627fa_sunbwyuesflwdpqtgoy.jpg,00955960627fb_sunauburywlkjszngcq.jpg,,,,,,,>,Face,,,,,0,,,,,,,x
203,17,Presentation,4,00559940519fa_sunacjkmnpawfzbyvae.jpg,00069931230fb_sunaaeowapdkwzqpgqr.jpg,,,,,,,<,Place,,,,,1,,,,,,,x
204,17,Presentation,4,00868960307fa_sunajjxttslobudoqbv.jpg,00562941031fa_sunacjnahdmqfnjfwqx.jpg,,,,,,,>,Face,,,,,1,,,,,,,x
205,17,Presentation,4,00630940928fa_sunaczwgyukesaajxnx.jpg,00864940307fa_sunajawzbrlrwafowen.jpg,,,,,,,>,Place,,,,,1,,,,,,,o
206,17,Presentation,4,00071941031fa_sunaaexqbtdswxrqjvz.jpg,00633940928fa_sunadbhmrgrrpyzglxs.jpg,,,,,,,<,Place,,,,,1,,,,,,,o
207,17,Presentation,4,00989960627fa_sunbondbduabvijnmch.jpg,00966960627fa_sunaygrtwrwfezqjizr.jpg,,,,,,,>,Place,,,,,1,,,,,,,o
208,17,Presentation,4,00153931230fa_sunaauhozyxzeeqstxi.jpg,00763941205fa_sunafhmnhsdurlvddpw.jpg,,,,,,,>,Face,,,,,0,,,,,,,x
209,17,Presentation,4,01004960627fa_sunbwtlihsuptkrckid.jpg,00773941201fa_sunafvcflzhlqloapyo.jpg,,,,,,,<,Face,,,,,1,,,,,,,o
210,17,Memory,4,,,,,,,sunauburywlkjszngcq.jpg,,,,,,,,,,,,,,,
211,17,Memory,4,,,,,,,sunbwyuesflwdpqtgoy.jpg,,,,,,,,,,,,,,,
212,17,Memory,4,,,,,,,00989960627fa.jpg,,,,,,,,,,,,,,,
213,17,Memory,4,,,,,,,00559940519fa.jpg,,,,,,,,,,,,,,,
214,17,Memory,4,,,,,,,00670941121fa.jpg,,,,,,,,,,,,,,,
215,17,Memory,4,,,,,,,sunagfvluwixdsozaql.jpg,,,,,,,,,,,,,,,
216,17,Memory,4,,,,,,,00955960627fb.jpg,,,,,,,,,,,,,,,
217,17,Memory,4,,,,,,,sunbondbduabvijnmch.jpg,,,,,,,,,,,,,,,
218,17,Memory,4,,,,,,,sunaaemixhfquhnxxlm.jpg,,,,,,,,,,,,,,,
219,17,Memory,4,,,,,,,00963960627fa.jpg,,,,,,,,,,,,,,,
220,17,Memory,4,,,,,,,00069931230fb.jpg,,,,,,,,,,,,,,,
221,17,Memory,4,,,,,,,00631940928fa.jpg,,,,,,,,,,,,,,,
222,17,Memory,4,,,,,,,sunacjkmnpawfzbyvae.jpg,,,,,,,,,,,,,,,
223,17,Memory,4,,,,,,,sunadochqcucscehsgk.jpg,,,,,,,,,,,,,,,
224,17,Memory,4,,,,,,,sunajawzbrlrwafowen.jpg,,,,,,,,,,,,,,,
225,17,Memory,4,,,,,,,sunbxarcshsnqsefemx.jpg,,,,,,,,,,,,,,,
226,17,Memory,4,,,,,,,00864940307fa.jpg,,,,,,,,,,,,,,,
227,17,Memory,4,,,,,,,sunadbdqzigzwipuipr.jpg,,,,,,,,,,,,,,,
228,17,Memory,4,,,,,,,00860940307fa.jpg,,,,,,,,,,,,,,,
229,17,Memory,4,,,,,,,sunaknlirqjqiwbbeeg.jpg,,,,,,,,,,,,,,,
230,17,Memory,4,,,,,,,01007960627fa.jpg,,,,,,,,,,,,,,,
231,17,Memory,4,,,,,,,sunbwtlihsuptkrckid.jpg,,,,,,,,,,,,,,,
232,17,Memory,4,,,,,,,sunaizeyhvjzknwjudw.jpg,,,,,,,,,,,,,,,
233,17,Memory,4,,,,,,,sunajbwkywmsqkldfml.jpg,,,,,,,,,,,,,,,
234,17,Memory,4,,,,,,,01004960627fa.jpg,,,,,,,,,,,,,,,
235,17,Memory,4,,,,,,,00562941031fa.jpg,,,,,,,,,,,,,,,
236,17,Memory,4,,,,,,,sunayaepykrqvenaqqy.jpg,,,,,,,,,,,,,,,
237,17,Memory,4,,,,,,,00065931230fb.jpg,,,,,,,,,,,,,,,
238,17,Memory,4,,,,,,,00866940307fa.jpg,,,,,,,,,,,,,,,
239,17,Memory,4,,,,,,,sunafcofuuzebuadceo.jpg,,,,,,,,,,,,,,,
240,17,Memory,4,,,,,,,sunaaeowapdkwzqpgqr.jpg,,,,,,,,,,,,,,,
241,17,Memory,4,,,,,,,01005960627fa.jpg,,,,,,,,,,,,,,,
242,17,Memory,4,,,,,,,00882960530fa.jpg,,,,,,,,,,,,,,,
243,17,Memory,4,,,,,,,00868960307fa.jpg,,,,,,,,,,,,,,,
244,17,Memory,4,,,,,,,sunafkmnlytenlsywia.jpg,,,,,,,,,,,,,,,
245,17,Memory,4,,,,,,,00782941205fa.jpg,,,,,,,,,,,,,,,
246,17,Memory,4,,,,,,,00753941201fa.jpg,,,,,,,,,,,,,,,
247,17,Memory,4,,,,,,,sunacjnahdmqfnjfwqx.jpg,,,,,,,,,,,,,,,
248,17,Memory,4,,,,,,,sunajjxttslobudoqbv.jpg,,,,,,,,,,,,,,,
249,17,Memory,4,,,,,,,00768941205fa.jpg,,,,,,,,,,,,,,,
250,17,Presentation,5,00774941201fa_sunafvtpfczkzopbgue.jpg,00835940307fa_sunaijsqpvodplbwxkf.jpg,,,,,,,<,Place,,,,,0,,,,,,,x
251,17,Presentation,5,00136931230fb_sunaanptmsknhirrzed.jpg,00785941205fa_sunaglqunwuycxydmyu.jpg,,,,,,,<,Face,,,,,1,,,,,,,x
252,17,Presentation,5,00308940422fb_sunabwfvcqqidycwypa.jpg,00276940422fa_sunabmytpyhsgigllxu.jpg,,,,,,,>,Face,,,,,1,,,,,,,o
253,17,Presentation,5,00815941205fa_sunahiphsekjihkafsl.jpg,00650941031fa_sunadikxpvqeabxrvvc.jpg,,,,,,,<,Place,,,,,1,,,,,,,x
254,17,Presentation,5,00145931230fb_sunaatjesvdupctftmn.jpg,00158931230fb_sunaavchcbptaerhcfy.jpg,,,,,,,>,Place,,,,,1,,,,,,,o
255,17,Presentation,5,00163931230fb_sunaavodbcpygkggnfp.jpg,00827940307fa_sunahtfxgsrmkiulnwk.jpg,,,,,,,>,Face,,,,,0,,,,,,,o
256,17,Presentation,5,00909960530_sunaobtizabegtwfwul.jpg,00063931230fa_sunaaelyvurpntclgau.jpg,,,,,,,>,Place,,,,,1,,,,,,,o
257,17,Presentation,5,00996960627fa_sunbpvgllfdejxcpjqp.jpg,00959960627fa_sunavxokzybtomhbmvm.jpg,,,,,,,<,Face,,,,,1,,,,,,,x
258,17,Presentation,5,00778941205fa_sunagcthdfirrcawoic.jpg,00859940307fa_sunaiycurtqsfkvcaso.jpg,,,,,,,<,Place,,,,,1,,,,,,,o
259,17,Presentation,5,00728941205fa_sunaejnvnpltdmhbcsi.jpg,00801941205fa_sunagvprlbprarvgdvj.jpg,,,,,,,>,Face,,,,,1,,,,,,,o
260,17,Memory,5,,,,,,,sunahiphsekjihkafsl.jpg,,,,,,,,,,,,,,,
261,17,Memory,5,,,,,,,00063931230fa.jpg,,,,,,,,,,,,,,,
262,17,Memory,5,,,,,,,sunadikxpvqeabxrvvc.jpg,,,,,,,,,,,,,,,
263,17,Memory,5,,,,,,,00965960627fa.jpg,,,,,,,,,,,,,,,
264,17,Memory,5,,,,,,,sunbpflsdaxnddnwcqi.jpg,,,,,,,,,,,,,,,
265,17,Memory,5,,,,,,,sunabctlikybqabezjv.jpg,,,,,,,,,,,,,,,
266,17,Memory,5,,,,,,,00245940128fa.jpg,,,,,,,,,,,,,,,
267,17,Memory,5,,,,,,,sunaydywdmvlfddbxbk.jpg,,,,,,,,,,,,,,,
268,17,Memory,5,,,,,,,sunaavodbcpygkggnfp.jpg,,,,,,,,,,,,,,,
269,17,Memory,5,,,,,,,00959960627fa.jpg,,,,,,,,,,,,,,,
270,17,Memory,5,,,,,,,sunabwfvcqqidycwypa.jpg,,,,,,,,,,,,,,,
271,17,Memory,5,,,,,,,00728941205fa.jpg,,,,,,,,,,,,,,,
272,17,Memory,5,,,,,,,sunavxokzybtomhbmvm.jpg,,,,,,,,,,,,,,,
273,17,Memory,5,,,,,,,00650941031fa.jpg,,,,,,,,,,,,,,,
274,17,Memory,5,,,,,,,sunbaoizrfijvhpnnjn.jpg,,,,,,,,,,,,,,,
275,17,Memory,5,,,,,,,sunabohxbskznglnrhv.jpg,,,,,,,,,,,,,,,
276,17,Memory,5,,,,,,,00097931230fa.jpg,,,,,,,,,,,,,,,
277,17,Memory,5,,,,,,,00239940128fa.jpg,,,,,,,,,,,,,,,
278,17,Memory,5,,,,,,,sunaajayojuslbbnneg.jpg,,,,,,,,,,,,,,,
279,17,Memory,5,,,,,,,sunaaelyvurpntclgau.jpg,,,,,,,,,,,,,,,
280,17,Memory,5,,,,,,,sunbesrwkdsffeogeqq.jpg,,,,,,,,,,,,,,,
281,17,Memory,5,,,,,,,sunaijsqpvodplbwxkf.jpg,,,,,,,,,,,,,,,
282,17,Memory,5,,,,,,,00982960627fa.jpg,,,,,,,,,,,,,,,
283,17,Memory,5,,,,,,,00835940307fa.jpg,,,,,,,,,,,,,,,
284,17,Memory,5,,,,,,,00815941205fa.jpg,,,,,,,,,,,,,,,
285,17,Memory,5,,,,,,,sunapqwoeotxshkukbh.jpg,,,,,,,,,,,,,,,
286,17,Memory,5,,,,,,,00969960627fa.jpg,,,,,,,,,,,,,,,
287,17,Memory,5,,,,,,,sunagcthdfirrcawoic.jpg,,,,,,,,,,,,,,,
288,17,Memory,5,,,,,,,00990960627fa.jpg,,,,,,,,,,,,,,,
289,17,Memory,5,,,,,,,sunagmwxxwymwojbvgi.jpg,,,,,,,,,,,,,,,
290,17,Memory,5,,,,,,,00926960627Fa.jpg,,,,,,,,,,,,,,,
291,17,Memory,5,,,,,,,00787941205fa.jpg,,,,,,,,,,,,,,,
292,17,Memory,5,,,,,,,sunabeyhmxodahoieyk.jpg,,,,,,,,,,,,,,,
293,17,Memory,5,,,,,,,00158931230fb.jpg,,,,,,,,,,,,,,,
294,17,Memory,5,,,,,,,sunaavchcbptaerhcfy.jpg,,,,,,,,,,,,,,,
295,17,Memory,5,,,,,,,00280940422fb.jpg,,,,,,,,,,,,,,,
296,17,Memory,5,,,,,,,00308940422fb.jpg,,,,,,,,,,,,,,,
297,17,Memory,5,,,,,,,00163931230fb.jpg,,,,,,,,,,,,,,,
298,17,Memory,5,,,,,,,sunaejnvnpltdmhbcsi.jpg,,,,,,,,,,,,,,,
299,17,Memory,5,,,,,,,00778941205fa.jpg,,,,,,,,,,,,,,,
300,17,Presentation,6,01011960627fa_sundahdxwmcdluscvot.jpg,00939960627fa_sunarceibpcyacbmfga.jpg,,,,,,,<,Face,,,,,1,,,,,,,o
301,17,Presentation,6,00548940519fa_sunacerqowiaeoqkmsq.jpg,00147931230fb_sunaatpkocdkocwxpkb.jpg,,,,,,,>,Face,,,,,1,,,,,,,o
302,17,Presentation,6,00648941031fa_sunadfndyrtqqiasoig.jpg,00988960627fa_sunbmaiocftdtvnzgap.jpg,,,,,,,<,Place,,,,,1,,,,,,,o
303,17,Presentation,6,00194940128fb_sunaayehfdqcyxggsej.jpg,00788941205fa_sunagountlxpzkytsmp.jpg,,,,,,,>,Place,,,,,1,,,,,,,o
304,17,Presentation,6,00749941201fa_sunaeuvjbmdpknaqqaj.jpg,00874940307fa_sunajtrfunvzdfticna.jpg,,,,,,,<,Face,,,,,1,,,,,,,x
305,17,Presentation,6,00777941205fa_sunagcinxkccdtrjmlv.jpg,00115931230fa_sunaakmxzhuceuiryah.jpg,,,,,,,<,Place,,,,,1,,,,,,,o
306,17,Presentation,6,00313940422fa_sunabwjvmoaddlyxfjr.jpg,00828940307fa_sunahuynahneraqftyz.jpg,,,,,,,>,Place,,,,,1,,,,,,,x
307,17,Presentation,6,00124931230fa_sunaalhlvzmjmitybdn.jpg,00227940128fa_sunabckqabszusgcykj.jpg,,,,,,,<,Face,,,,,0,,,,,,,x
308,17,Presentation,6,00871940307_sunajrujcsdxmfbssmc.jpg,00082931230fa_sunaafvitpexrpvumsa.jpg,,,,,,,>,Place,,,,,1,,,,,,,o
309,17,Presentation,6,00564940928fa_sunacmpqqfbsvlzinzl.jpg,00869940307fa_sunajoveqhiprwqgoco.jpg,,,,,,,>,Face,,,,,0,,,,,,,x
310,17,Memory,6,,,,,,,00730960620fa.jpg,,,,,,,,,,,,,,,
311,17,Memory,6,,,,,,,00939960627fa.jpg,,,,,,,,,,,,,,,
312,17,Memory,6,,,,,,,sunabkngeblodihjvbk.jpg,,,,,,,,,,,,,,,
313,17,Memory,6,,,,,,,00548940519fa.jpg,,,,,,,,,,,,,,,
314,17,Memory,6,,,,,,,sunabckqabszusgcykj.jpg,,,,,,,,,,,,,,,
315,17,Memory,6,,,,,,,00766960620fa.jpg,,,,,,,,,,,,,,,
316,17,Memory,6,,,,,,,00957960627fa.jpg,,,,,,,,,,,,,,,
317,17,Memory,6,,,,,,,sunadfndyrtqqiasoig.jpg,,,,,,,,,,,,,,,
318,17,Memory,6,,,,,,,00227940128fa.jpg,,,,,,,,,,,,,,,
319,17,Memory,6,,,,,,,00869940307fa.jpg,,,,,,,,,,,,,,,
320,17,Memory,6,,,,,,,sunavhxgmgrqsaptynb.jpg,,,,,,,,,,,,,,,
321,17,Memory,6,,,,,,,sunachtuarilwyqnvjx.jpg,,,,,,,,,,,,,,,
322,17,Memory,6,,,,,,,00705960530fa.jpg,,,,,,,,,,,,,,,
323,17,Memory,6,,,,,,,01011960627fa.jpg,,,,,,,,,,,,,,,
324,17,Memory,6,,,,,,,sunaahwnmtqsrhocysw.jpg,,,,,,,,,,,,,,,
325,17,Memory,6,,,,,,,00984960627fa.jpg,,,,,,,,,,,,,,,
326,17,Memory,6,,,,,,,sunaakmxzhuceuiryah.jpg,,,,,,,,,,,,,,,
327,17,Memory,6,,,,,,,00648941031fa.jpg,,,,,,,,,,,,,,,
328,17,Memory,6,,,,,,,sunaekgzpfilgjxpeyq.jpg,,,,,,,,,,,,,,,
329,17,Memory,6,,,,,,,00115931230fa.jpg,,,,,,,,,,,,,,,
330,17,Memory,6,,,,,,,00557940519fa.jpg,,,,,,,,,,,,,,,
331,17,Memory,6,,,,,,,sunaduslxfzlbxlllnz.jpg,,,,,,,,,,,,,,,
332,17,Memory,6,,,,,,,sunajoveqhiprwqgoco.jpg,,,,,,,,,,,,,,,
333,17,Memory,6,,,,,,,sunafijbgncijwykrnl.jpg,,,,,,,,,,,,,,,
334,17,Memory,6,,,,,,,sunarceibpcyacbmfga.jpg,,,,,,,,,,,,,,,
335,17,Memory,6,,,,,,,sunacerqowiaeoqkmsq.jpg,,,,,,,,,,,,,,,
336,17,Memory,6,,,,,,,sunaemcowdozyphwknd.jpg,,,,,,,,,,,,,,,
337,17,Memory,6,,,,,,,00266940128fb.jpg,,,,,,,,,,,,,,,
338,17,Memory,6,,,,,,,sunaalhlvzmjmitybdn.jpg,,,,,,,,,,,,,,,
339,17,Memory,6,,,,,,,00093931230fa.jpg,,,,,,,,,,,,,,,
340,17,Memory,6,,,,,,,00564940928fa.jpg,,,,,,,,,,,,,,,
341,17,Memory,6,,,,,,,sunacmpqqfbsvlzinzl.jpg,,,,,,,,,,,,,,,
342,17,Memory,6,,,,,,,00635941031fa.jpg,,,,,,,,,,,,,,,
343,17,Memory,6,,,,,,,sunaatpkocdkocwxpkb.jpg,,,,,,,,,,,,,,,
344,17,Memory,6,,,,,,,sunbfzchmomnvzhbxdg.jpg,,,,,,,,,,,,,,,
345,17,Memory,6,,,,,,,sundahdxwmcdluscvot.jpg,,,,,,,,,,,,,,,
346,17,Memory,6,,,,,,,00741941201fa.jpg,,,,,,,,,,,,,,,
347,17,Memory,6,,,,,,,00124931230fa.jpg,,,,,,,,,,,,,,,
348,17,Memory,6,,,,,,,00147931230fb.jpg,,,,,,,,,,,,,,,
349,17,Memory,6,,,,,,,sunaddsaeicthrfbkhe.jpg,,,,,,,,,,,,,,,
350,17,Presentation,7,00221940128fa_sunabcfpwlpolnutyju.jpg,00483940519fa_sunabyvpwkgsjtijdwj.jpg,,,,,,,<,Face,,,,,1,,,,,,,x
351,17,Presentation,7,00913960530fa_sunaooffzffbhcpirmm.jpg,00123931230fb_sunaalcrrdbjgdztbiz.jpg,,,,,,,>,Face,,,,,1,,,,,,,o
352,17,Presentation,7,00811960530fa_sunahedfrhtcwpneund.jpg,00242940128fa_sunabcuurugvxwparpk.jpg,,,,,,,<,Place,,,,,1,,,,,,,o
353,17,Presentation,7,00598941031fa_sunacxtcahkymosigud.jpg,00529940519fa_sunacbeefkxpymwevpk.jpg,,,,,,,>,Place,,,,,1,,,,,,,o
354,17,Presentation,7,00858940307fa_sunaixpqndlwhwjtjek.jpg,00761960627fa_sunafgdqbclkwfocdhg.jpg,,,,,,,>,Face,,,,,0,,,,,,,x
355,17,Presentation,7,00154931230fa_sunaauueuhhvklldjik.jpg,00131931230fb_sunaangbuylfvckqqoo.jpg,,,,,,,>,Place,,,,,1,,,,,,,o
356,17,Presentation,7,00568940928fa_sunacsdhbbsybcyxnel.jpg,00772941201fa_sunafpfpiiujzoesnqg.jpg,,,,,,,<,Place,,,,,1,,,,,,,o
357,17,Presentation,7,00479940519fa_sunabxsbfwjccqxxzxq.jpg,00968960627fa_sunbagfpovqwbuexqdn.jpg,,,,,,,<,Face,,,,,1,,,,,,,o
358,17,Presentation,7,00630941031fa_sunadakkdovnuzlycvp.jpg,00211940128fa_sunabasphceswhwwqvv.jpg,,,,,,,<,Place,,,,,1,,,,,,,o
359,17,Presentation,7,00208940128fa_sunaazzyhbvqjpmazjq.jpg,00571940928fa_sunacuatpqpqhyjhjqk.jpg,,,,,,,>,Face,,,,,1,,,,,,,x
360,17,Memory,7,,,,,,,00131931230fb.jpg,,,,,,,,,,,,,,,
361,17,Memory,7,,,,,,,00581940928fa.jpg,,,,,,,,,,,,,,,
362,17,Memory,7,,,,,,,sunagrmyoovzukhxmlo.jpg,,,,,,,,,,,,,,,
363,17,Memory,7,,,,,,,00211940128fa.jpg,,,,,,,,,,,,,,,
364,17,Memory,7,,,,,,,sunabtlfmiwtljmoues.jpg,,,,,,,,,,,,,,,
365,17,Memory,7,,,,,,,sunaetydippjxikifsb.jpg,,,,,,,,,,,,,,,
366,17,Memory,7,,,,,,,sunafpfpiiujzoesnqg.jpg,,,,,,,,,,,,,,,
367,17,Memory,7,,,,,,,00972960627fa.jpg,,,,,,,,,,,,,,,
368,17,Memory,7,,,,,,,00772941201fa.jpg,,,,,,,,,,,,,,,
369,17,Memory,7,,,,,,,00098931230fa.jpg,,,,,,,,,,,,,,,
370,17,Memory,7,,,,,,,00208940128fa.jpg,,,,,,,,,,,,,,,
371,17,Memory,7,,,,,,,sunbbfqwjpdxniyhies.jpg,,,,,,,,,,,,,,,
372,17,Memory,7,,,,,,,sunaooffzffbhcpirmm.jpg,,,,,,,,,,,,,,,
373,17,Memory,7,,,,,,,00913960530fa.jpg,,,,,,,,,,,,,,,
374,17,Memory,7,,,,,,,sunabcuurugvxwparpk.jpg,,,,,,,,,,,,,,,
375,17,Memory,7,,,,,,,sunacvzhvcksnwqcqbw.jpg,,,,,,,,,,,,,,,
376,17,Memory,7,,,,,,,00968960627fa.jpg,,,,,,,,,,,,,,,
377,17,Memory,7,,,,,,,00242940128fa.jpg,,,,,,,,,,,,,,,
378,17,Memory,7,,,,,,,00746941201fa.jpg,,,,,,,,,,,,,,,
379,17,Memory,7,,,,,,,sunacsdhbbsybcyxnel.jpg,,,,,,,,,,,,,,,
380,17,Memory,7,,,,,,,00302940422fa.jpg,,,,,,,,,,,,,,,
381,17,Memory,7,,,,,,,sunbagfpovqwbuexqdn.jpg,,,,,,,,,,,,,,,
382,17,Memory,7,,,,,,,00791941205fa.jpg,,,,,,,,,,,,,,,
383,17,Memory,7,,,,,,,00700941121fa.jpg,,,,,,,,,,,,,,,
384,17,Memory,7,,,,,,,00154931230fa.jpg,,,,,,,,,,,,,,,
385,17,Memory,7,,,,,,,sunaauueuhhvklldjik.jpg,,,,,,,,,,,,,,,
386,17,Memory,7,,,,,,,sunadsgmtznewzyasnk.jpg,,,,,,,,,,,,,,,
387,17,Memory,7,,,,,,,00568940928fa.jpg,,,,,,,,,,,,,,,
388,17,Memory,7,,,,,,,01003960627fb.jpg,,,,,,,,,,,,,,,
389,17,Memory,7,,,,,,,sunaazzyhbvqjpmazjq.jpg,,,,,,,,,,,,,,,
390,17,Memory,7,,,,,,,00848940307fa.jpg,,,,,,,,,,,,,,,
391,17,Memory,7,,,,,,,sunbwdrdvsweerwsdrj.jpg,,,,,,,,,,,,,,,
392,17,Memory,7,,,,,,,sunacepzfrmtkiqonpy.jpg,,,,,,,,,,,,,,,
393,17,Memory,7,,,,,,,sunacxtcahkymosigud.jpg,,,,,,,,,,,,,,,
394,17,Memory,7,,,,,,,sunaivdylrawbmhryfp.jpg,,,,,,,,,,,,,,,
395,17,Memory,7,,,,,,,sunaajpqmulidejvjsr.jpg,,,,,,,,,,,,,,,
396,17,Memory,7,,,,,,,00543940519fa.jpg,,,,,,,,,,,,,,,
397,17,Memory,7,,,,,,,sunaangbuylfvckqqoo.jpg,,,,,,,,,,,,,,,
398,17,Memory,7,,,,,,,sunabasphceswhwwqvv.jpg,,,,,,,,,,,,,,,
399,17,Memory,7,,,,,,,00598941031fa.jpg,,,,,,,,,,,,,,,
