,Unnamed: 0,Subject,Trial Type,Run,Cued Composite,Uncued Composite,Cued Face,Cued Place,Uncued Face,Uncued Place,Memory Image,Category,Cued Side,Cued Category,Attention Reaction Time (s),Familiarity Reaction Time (s),Familiarity Rating,Attention Level,Cue Validity,Post Invalid Cue,Pre Invalid Cue,Attention Button,Rating History,Stimulus Onset,Stimulus End,Attention Probe
0,150,10,Presentation,3,00926960627Fa_sunapqwoeotxshkukbh.jpg,00076931230fa_sunaafewhewbxmjiurz.jpg,00926960627Fa.jpg,sunapqwoeotxshkukbh.jpg,00076931230fa.jpg,sunaafewhewbxmjiurz.jpg,,,<,Face,0.5172600746154785,,,,1.0,,,1.0,,1538592455.030968,1538592458.064423,x
1,151,10,Presentation,3,00725941201fa_sunaefgzwiramypjvtd.jpg,00828940307fa_sunahuynahneraqftyz.jpg,00725941201fa.jpg,sunaefgzwiramypjvtd.jpg,00828940307fa.jpg,sunahuynahneraqftyz.jpg,,,<,Face,0.6509530544281006,,,,0.0,,,3.0,,1538592459.8332539,1538592462.8163712,o
2,152,10,Presentation,3,00089931230fa_sunaagcpoejbuzyvddd.jpg,00730960620fa_sunaekgzpfilgjxpeyq.jpg,00089931230fa.jpg,sunaagcpoejbuzyvddd.jpg,00730960620fa.jpg,sunaekgzpfilgjxpeyq.jpg,,,<,Face,0.6514182090759277,,,,1.0,,,1.0,,1538592464.900791,1538592467.884961,x
3,153,10,Presentation,3,00978960627fa_sunbddbivbptlrlauhy.jpg,00265940128fb_sunabkmdplkdbvxriff.jpg,00978960627fa.jpg,sunbddbivbptlrlauhy.jpg,00265940128fb.jpg,sunabkmdplkdbvxriff.jpg,,,<,Face,0.8182079792022705,,,,1.0,,,3.0,,1538592469.769651,1538592472.752976,o
4,154,10,Presentation,3,00937960627fa_sunaqsolmfydodnakub.jpg,00788941205fa_sunagountlxpzkytsmp.jpg,00937960627fa.jpg,sunaqsolmfydodnakub.jpg,00788941205fa.jpg,sunagountlxpzkytsmp.jpg,,,<,Face,0.5506339073181152,,,,1.0,,,1.0,,1538592474.787212,1538592477.771214,x
5,155,10,Presentation,3,00650941031fa_sunadikxpvqeabxrvvc.jpg,00810941205fa_sunahctntqrunhdxhtb.jpg,00650941031fa.jpg,sunadikxpvqeabxrvvc.jpg,00810941205fa.jpg,sunahctntqrunhdxhtb.jpg,,,<,Face,0.7012181282043457,,,,1.0,,,1.0,,1538592479.555414,1538592482.539355,x
6,156,10,Presentation,3,00796941205fa_sunaguchqqnrtodtezq.jpg,00751960620fa_sunaezuszgtxnmsxdbk.jpg,00796941205fa.jpg,sunaguchqqnrtodtezq.jpg,00751960620fa.jpg,sunaezuszgtxnmsxdbk.jpg,,,<,Face,0.4668791294097901,,,,1.0,,,1.0,,1538592484.474448,1538592487.457701,x
7,157,10,Presentation,3,00700941121fa_sunadsgmtznewzyasnk.jpg,00061931230fb_sunaaekxzjzrfgtkwjf.jpg,00700941121fa.jpg,sunadsgmtznewzyasnk.jpg,00061931230fb.jpg,sunaaekxzjzrfgtkwjf.jpg,,,<,Face,0.7169389724731445,,,,1.0,,,3.0,,1538592489.158847,1538592492.142767,o
8,158,10,Presentation,3,00950960627fa_sunasrjlmglmjzbmqxb.jpg,00809960620fa_sunahbvlpavurqoxdeq.jpg,00950960627fa.jpg,sunasrjlmglmjzbmqxb.jpg,00809960620fa.jpg,sunahbvlpavurqoxdeq.jpg,,,<,Face,0.5670838356018066,,,,1.0,,,1.0,,1538592494.094176,1538592497.07831,x
9,159,10,Presentation,3,00963960627fa_sunayaepykrqvenaqqy.jpg,00939960627fa_sunarceibpcyacbmfga.jpg,00963960627fa.jpg,sunayaepykrqvenaqqy.jpg,00939960627fa.jpg,sunarceibpcyacbmfga.jpg,,,<,Face,1.1011648178100586,,,,1.0,,,3.0,,1538592498.878335,1538592501.862571,o
10,100,10,Presentation,2,00262940128fa_sunabizydfotqddlnjp.jpg,00989960627fa_sunbondbduabvijnmch.jpg,00262940128fa.jpg,sunabizydfotqddlnjp.jpg,00989960627fa.jpg,sunbondbduabvijnmch.jpg,,,>,Face,0.9842989444732666,,,,1.0,,,3.0,,1538592124.5248132,1538592127.558009,o
11,101,10,Presentation,2,00197940128fa_sunaaylzyqlqrsmfwif.jpg,00938960627fa_sunaqyylsngywqzwfmx.jpg,00197940128fa.jpg,sunaaylzyqlqrsmfwif.jpg,00938960627fa.jpg,sunaqyylsngywqzwfmx.jpg,,,>,Face,1.4190678596496582,,,,1.0,,,1.0,,1538592129.7760198,1538592132.7603,x
12,102,10,Presentation,2,00681941121fa_sunadqmjrhfjyuzyvdd.jpg,00245940128fa_sunabeyhmxodahoieyk.jpg,00681941121fa.jpg,sunadqmjrhfjyuzyvdd.jpg,00245940128fa.jpg,sunabeyhmxodahoieyk.jpg,,,>,Face,0.5855069160461426,,,,1.0,,,3.0,,1538592135.4284642,1538592138.4115,o
13,103,10,Presentation,2,00191940128fb_sunaawsdjisukbbginm.jpg,01005960627fa_sunbwyuesflwdpqtgoy.jpg,00191940128fb.jpg,sunaawsdjisukbbginm.jpg,01005960627fa.jpg,sunbwyuesflwdpqtgoy.jpg,,,>,Face,0.5009419918060303,,,,1.0,,,1.0,,1538592140.212803,1538592143.196868,x
14,104,10,Presentation,2,00294940422fb_sunabrlndkruqokhury.jpg,00482940519fa_sunabyfxcxhdebvdyfd.jpg,00294940422fb.jpg,sunabrlndkruqokhury.jpg,00482940519fa.jpg,sunabyfxcxhdebvdyfd.jpg,,,>,Face,0.8181920051574707,,,,1.0,,,1.0,,1538592144.9319198,1538592147.914995,x
15,105,10,Presentation,2,00970960627fa_sunbasypfgzjtomktmu.jpg,00210940128fb_sunabanoxjtqxamkucc.jpg,00970960627fa.jpg,sunbasypfgzjtomktmu.jpg,00210940128fb.jpg,sunabanoxjtqxamkucc.jpg,,,>,Face,0.8343439102172852,,,,0.0,,,3.0,,1538592149.949289,1538592152.933306,o
16,106,10,Presentation,2,00969960627fa_sunbaoizrfijvhpnnjn.jpg,00557940519fa_sunachtuarilwyqnvjx.jpg,00969960627fa.jpg,sunbaoizrfijvhpnnjn.jpg,00557940519fa.jpg,sunachtuarilwyqnvjx.jpg,,,>,Face,1.3363771438598633,,,,1.0,,,3.0,,1538592155.00157,1538592157.98459,o
17,107,10,Presentation,2,00848940307fa_sunaivdylrawbmhryfp.jpg,00816941205fa_sunahmhrncocyhsjpxk.jpg,00848940307fa.jpg,sunaivdylrawbmhryfp.jpg,00816941205fa.jpg,sunahmhrncocyhsjpxk.jpg,,,>,Face,0.5690310001373291,,,,1.0,,,1.0,,1538592160.552827,1538592163.536016,x
18,108,10,Presentation,2,00910960530fa_sunaofikylqtxphvdem.jpg,00097931230fa_sunaajayojuslbbnneg.jpg,00910960530fa.jpg,sunaofikylqtxphvdem.jpg,00097931230fa.jpg,sunaajayojuslbbnneg.jpg,,,>,Face,0.7530539035797119,,,,1.0,,,3.0,,1538592165.3380961,1538592168.321896,o
19,109,10,Presentation,2,00829940307fa_sunahwgbqkqcrwprgvh.jpg,00993960627fa_sunbprywzqxjcezkbch.jpg,00829940307fa.jpg,sunahwgbqkqcrwprgvh.jpg,00993960627fa.jpg,sunbprywzqxjcezkbch.jpg,,,>,Face,0.668147087097168,,,,0.0,,,3.0,,1538592170.306224,1538592173.28939,o
20,0,10,Presentation,0,00766960620fa_sunafijbgncijwykrnl.jpg,00884960530fa_sunakodkcslgqhqlgwl.jpg,00766960620fa.jpg,sunafijbgncijwykrnl.jpg,00884960530fa.jpg,sunakodkcslgqhqlgwl.jpg,,,>,Face,1.950463056564331,,,,1.0,,,1.0,,1538591267.881552,1538591270.983535,x
21,1,10,Presentation,0,00793941205fa_sunagtjwilqjvxohypn.jpg,00742941201fa_sunaenwuebvlpdmntju.jpg,00793941205fa.jpg,sunagtjwilqjvxohypn.jpg,00742941201fa.jpg,sunaenwuebvlpdmntju.jpg,,,>,Face,0.668245792388916,,,,1.0,,,3.0,,1538591274.217608,1538591277.218821,o
22,2,10,Presentation,0,00754941201fa_sunaffgsyyvoqdlkmnk.jpg,00090931230fa_sunaahedjlmtqekgyvj.jpg,00754941201fa.jpg,sunaffgsyyvoqdlkmnk.jpg,00090931230fa.jpg,sunaahedjlmtqekgyvj.jpg,,,>,Face,0.5852110385894775,,,,1.0,,,3.0,,1538591279.136013,1538591282.136959,o
23,3,10,Presentation,0,00620940928fa_sunacypmnujalygkunp.jpg,00093931230fa_sunaahwnmtqsrhocysw.jpg,00620940928fa.jpg,sunacypmnujalygkunp.jpg,00093931230fa.jpg,sunaahwnmtqsrhocysw.jpg,,,>,Face,0.9333288669586182,,,,1.0,,,1.0,,1538591283.9380631,1538591286.938577,x
24,4,10,Presentation,0,00799941205fa_sunagutjvdvnhxejerz.jpg,00727941205fa_sunaeisnjeetzmkbuad.jpg,00799941205fa.jpg,sunagutjvdvnhxejerz.jpg,00727941205fa.jpg,sunaeisnjeetzmkbuad.jpg,,,>,Face,0.6012799739837646,,,,1.0,,,3.0,,1538591289.139323,1538591292.139547,o
25,5,10,Presentation,0,00851940307fa_sunaivflshbyfrfzhqb.jpg,00747941201fa_sunaeutbrtswvsozxyk.jpg,00851940307fa.jpg,sunaivflshbyfrfzhqb.jpg,00747941201fa.jpg,sunaeutbrtswvsozxyk.jpg,,,>,Face,0.6660270690917969,,,,1.0,,,3.0,,1538591293.974833,1538591296.9749632,o
26,6,10,Presentation,0,00775941205fa_sunafvwfsmqkjrutjta.jpg,00634940928fa_sunadcphrizvfpljiqt.jpg,00775941205fa.jpg,sunafvwfsmqkjrutjta.jpg,00634940928fa.jpg,sunadcphrizvfpljiqt.jpg,,,>,Face,0.601722002029419,,,,1.0,,,1.0,,1538591298.876106,1538591301.876157,x
27,7,10,Presentation,0,00795941205fa_sunagtumacdlmciqamz.jpg,00800941205fb_sunagvjurcwdbixvnyi.jpg,00795941205fa.jpg,sunagtumacdlmciqamz.jpg,00800941205fb.jpg,sunagvjurcwdbixvnyi.jpg,,,>,Face,0.8012590408325195,,,,1.0,,,1.0,,1538591303.7111151,1538591306.711249,x
28,8,10,Presentation,0,00957960627fa_sunavhxgmgrqsaptynb.jpg,00140931230fb_sunaapllqyqlykszopd.jpg,00957960627fa.jpg,sunavhxgmgrqsaptynb.jpg,00140931230fb.jpg,sunaapllqyqlykszopd.jpg,,,>,Face,0.534113883972168,,,,1.0,,,3.0,,1538591308.729367,1538591311.728916,o
29,9,10,Presentation,0,00882960530fa_sunaknlirqjqiwbbeeg.jpg,00218940128fa_sunabbwggenhfbftyvi.jpg,00882960530fa.jpg,sunaknlirqjqiwbbeeg.jpg,00218940128fa.jpg,sunabbwggenhfbftyvi.jpg,,,>,Face,0.5515661239624023,,,,1.0,,,3.0,,1538591313.4795868,1538591316.4808948,o
30,50,10,Presentation,1,00783941205fa_sunagjeesomrwjsfqie.jpg,00776941205fa_sunafxokyavhgptyfye.jpg,00783941205fa.jpg,sunagjeesomrwjsfqie.jpg,00776941205fa.jpg,sunafxokyavhgptyfye.jpg,,,<,Place,0.6013288497924805,,,,1.0,,,1.0,,1538591795.901673,1538591798.936847,x
31,51,10,Presentation,1,00096931230fa_sunaaiqiqcggrskoqgy.jpg,00136931230fb_sunaanptmsknhirrzed.jpg,00096931230fa.jpg,sunaaiqiqcggrskoqgy.jpg,00136931230fb.jpg,sunaanptmsknhirrzed.jpg,,,<,Place,0.7186000347137451,,,,0.0,,,1.0,,1538591800.769915,1538591803.754223,x
32,52,10,Presentation,1,00138931230fa_sunaapfaivxqoynnwwp.jpg,00069931230fb_sunaaeowapdkwzqpgqr.jpg,00138931230fa.jpg,sunaapfaivxqoynnwwp.jpg,00069931230fb.jpg,sunaaeowapdkwzqpgqr.jpg,,,<,Place,0.8192808628082275,,,,0.0,,,3.0,,1538591805.721478,1538591808.705326,x
33,53,10,Presentation,1,00670941121fa_sunadochqcucscehsgk.jpg,00108960530fa_sunaajtnvzzpsjdzres.jpg,00670941121fa.jpg,sunadochqcucscehsgk.jpg,00108960530fa.jpg,sunaajtnvzzpsjdzres.jpg,,,<,Place,0.7522239685058594,,,,1.0,,,3.0,,1538591810.7403288,1538591813.724555,o
34,54,10,Presentation,1,00869940307fa_sunajoveqhiprwqgoco.jpg,00481940519fa_sunabxsuqbleluwczoy.jpg,00869940307fa.jpg,sunajoveqhiprwqgoco.jpg,00481940519fa.jpg,sunabxsuqbleluwczoy.jpg,,,<,Place,0.6010589599609375,,,,1.0,,,1.0,,1538591815.8248038,1538591818.808837,x
35,55,10,Presentation,1,00098931230fa_sunaajpqmulidejvjsr.jpg,00860940307fa_sunaizeyhvjzknwjudw.jpg,00098931230fa.jpg,sunaajpqmulidejvjsr.jpg,00860940307fa.jpg,sunaizeyhvjzknwjudw.jpg,,,<,Place,0.7528131008148193,,,,1.0,,,1.0,,1538591820.6431339,1538591823.62714,x
36,56,10,Presentation,1,00811960530fa_sunahedfrhtcwpneund.jpg,00878960530fa_sunakgbnzxmfohgehnu.jpg,00811960530fa.jpg,sunahedfrhtcwpneund.jpg,00878960530fa.jpg,sunakgbnzxmfohgehnu.jpg,,,<,Place,0.7528369426727295,,,,1.0,,,3.0,,1538591825.59545,1538591828.57846,o
37,57,10,Presentation,1,00825940307fa_sunahrltmuwbiehihpe.jpg,00543940519fa_sunacepzfrmtkiqonpy.jpg,00825940307fa.jpg,sunahrltmuwbiehihpe.jpg,00543940519fa.jpg,sunacepzfrmtkiqonpy.jpg,,,<,Place,0.5862448215484619,,,,1.0,,,3.0,,1538591830.546801,1538591833.529683,o
38,58,10,Presentation,1,00752960620fa_sunafbwnojpqeyzssoe.jpg,00979960627fa_sunbdycacjfaujxitbw.jpg,00752960620fa.jpg,sunafbwnojpqeyzssoe.jpg,00979960627fa.jpg,sunbdycacjfaujxitbw.jpg,,,<,Place,0.7361559867858887,,,,1.0,,,3.0,,1538591835.348892,1538591838.3319669,o
39,59,10,Presentation,1,00854940307fa_sunaiwduelojtwaqeyh.jpg,00559940519fa_sunacjkmnpawfzbyvae.jpg,00854940307fa.jpg,sunaiwduelojtwaqeyh.jpg,00559940519fa.jpg,sunacjkmnpawfzbyvae.jpg,,,<,Place,0.6361410617828369,,,,1.0,,,1.0,,1538591840.2828321,1538591843.267317,x
40,250,10,Presentation,5,00819940307fa_sunahqldjibofgsfdgb.jpg,00953960627fa_sunatstrpjxhvtbaczf.jpg,00819940307fa.jpg,sunahqldjibofgsfdgb.jpg,00953960627fa.jpg,sunatstrpjxhvtbaczf.jpg,,,<,Face,1.0516579151153564,,,,1.0,,,3.0,,1538593396.701191,1538593399.7352118,o
41,251,10,Presentation,5,00771941205fa_sunafowswglhxcsufpo.jpg,00943960627fa_sunarpsxqkduedrrzyi.jpg,00771941205fa.jpg,sunafowswglhxcsufpo.jpg,00943960627fa.jpg,sunarpsxqkduedrrzyi.jpg,,,<,Face,0.7351961135864258,,,,1.0,,,3.0,,1538593402.0362391,1538593405.0203211,o
42,252,10,Presentation,5,00598940928fa_sunacxeheuiigkcgquf.jpg,00112931230fa_sunaakjaacuzulqckgl.jpg,00598940928fa.jpg,sunacxeheuiigkcgquf.jpg,00112931230fa.jpg,sunaakjaacuzulqckgl.jpg,,,<,Face,0.7171800136566162,,,,0.0,,,3.0,,1538593406.98779,1538593409.971966,o
43,253,10,Presentation,5,00985960627fa_sunbgklxeqjhdbyfhhy.jpg,00648941031fa_sunadfndyrtqqiasoig.jpg,00985960627fa.jpg,sunbgklxeqjhdbyfhhy.jpg,00648941031fa.jpg,sunadfndyrtqqiasoig.jpg,,,<,Face,0.6512961387634277,,,,1.0,,,3.0,,1538593411.9218462,1538593414.906827,o
44,254,10,Presentation,5,00958960627fa_sunavspxmxubqaeidjt.jpg,00889960530fa_sunaletopenvvozhpxc.jpg,00958960627fa.jpg,sunavspxmxubqaeidjt.jpg,00889960530fa.jpg,sunaletopenvvozhpxc.jpg,,,<,Face,0.8339550495147705,,,,1.0,,,1.0,,1538593416.7908869,1538593419.775128,x
45,255,10,Presentation,5,00288940422fa_sunabppokiyglaxpcha.jpg,01002960627fb_sunbwaafjdebjzttuvq.jpg,00288940422fa.jpg,sunabppokiyglaxpcha.jpg,01002960627fb.jpg,sunbwaafjdebjzttuvq.jpg,,,<,Face,0.7172620296478271,,,,1.0,,,3.0,,1538593422.0252519,1538593425.010819,o
46,256,10,Presentation,5,00109931230fa_sunaajuzribjrizdshh.jpg,00505960627fa_sunabzuqsrgcsonqlkz.jpg,00109931230fa.jpg,sunaajuzribjrizdshh.jpg,00505960627fa.jpg,sunabzuqsrgcsonqlkz.jpg,,,<,Face,0.7018980979919434,,,,1.0,,,3.0,,1538593426.943747,1538593429.927868,o
47,257,10,Presentation,5,01207940128fa_sundbixjudsgeuuehrn.jpg,00905960530fa_sunanmoqeyprjjjfxjt.jpg,01207940128fa.jpg,sundbixjudsgeuuehrn.jpg,00905960530fa.jpg,sunanmoqeyprjjjfxjt.jpg,,,<,Face,0.7343511581420898,,,,1.0,,,3.0,,1538593431.862686,1538593434.847086,o
48,258,10,Presentation,5,00885960530fa_sunakwlvxjpddialozd.jpg,00077931230fb_sunaafgqutfaishsxyu.jpg,00885960530fa.jpg,sunakwlvxjpddialozd.jpg,00077931230fb.jpg,sunaafgqutfaishsxyu.jpg,,,<,Face,0.6843669414520264,,,,1.0,,,1.0,,1538593436.829997,1538593439.8151472,x
49,259,10,Presentation,5,00891960530fa_sunalkiibhqpxfamlll.jpg,00662941121fa_sunadkazmlajmohnwfl.jpg,00891960530fa.jpg,sunalkiibhqpxfamlll.jpg,00662941121fa.jpg,sunadkazmlajmohnwfl.jpg,,,<,Face,0.6020300388336182,,,,1.0,,,1.0,,1538593441.7313619,1538593444.7163188,x
50,200,10,Presentation,4,00847940307fa_sunaivdjruhkrfywfed.jpg,00753941201fa_sunafcofuuzebuadceo.jpg,00847940307fa.jpg,sunaivdjruhkrfywfed.jpg,00753941201fa.jpg,sunafcofuuzebuadceo.jpg,,,>,Place,0.9014849662780762,,,,1.0,,,1.0,,1538593069.260997,1538593072.31284,x
51,201,10,Presentation,4,00965960627fa_sunaydywdmvlfddbxbk.jpg,00794960620fa_sunagtqhhwxjeuxdebe.jpg,00965960627fa.jpg,sunaydywdmvlfddbxbk.jpg,00794960620fa.jpg,sunagtqhhwxjeuxdebe.jpg,,,>,Place,0.717167854309082,,,,1.0,,,3.0,,1538593074.447947,1538593077.448256,o
52,202,10,Presentation,4,00804960530fa_sunagwswhkvnsmuszlz.jpg,00564941031fa_sunacsaovnjezqwbykf.jpg,00804960530fa.jpg,sunagwswhkvnsmuszlz.jpg,00564941031fa.jpg,sunacsaovnjezqwbykf.jpg,,,>,Place,0.5851008892059326,,,,1.0,,,3.0,,1538593079.4154382,1538593082.4157221,o
53,203,10,Presentation,4,01011960627fa_sundahdxwmcdluscvot.jpg,00893960530Fa_sunaloffvbvysigxent.jpg,01011960627fa.jpg,sundahdxwmcdluscvot.jpg,00893960530Fa.jpg,sunaloffvbvysigxent.jpg,,,>,Place,0.6335391998291016,,,,1.0,,,3.0,,1538593084.233581,1538593087.234634,o
54,204,10,Presentation,4,00638941031fa_sunadfktsqjthoglcsm.jpg,00082931230fa_sunaafvitpexrpvumsa.jpg,00638941031fa.jpg,sunadfktsqjthoglcsm.jpg,00082931230fa.jpg,sunaafvitpexrpvumsa.jpg,,,>,Place,0.7342729568481445,,,,1.0,,,1.0,,1538593089.085048,1538593092.0859652,x
55,205,10,Presentation,4,00787941205fa_sunagmwxxwymwojbvgi.jpg,00158931230fb_sunaavchcbptaerhcfy.jpg,00787941205fa.jpg,sunagmwxxwymwojbvgi.jpg,00158931230fb.jpg,sunaavchcbptaerhcfy.jpg,,,>,Place,0.6353559494018555,,,,1.0,,,3.0,,1538593094.16923,1538593097.171232,o
56,206,10,Presentation,4,00086931230fa_sunaafynehyrzpsoaml.jpg,00959960627fa_sunavxokzybtomhbmvm.jpg,00086931230fa.jpg,sunaafynehyrzpsoaml.jpg,00959960627fa.jpg,sunavxokzybtomhbmvm.jpg,,,>,Place,0.9344229698181152,,,,1.0,,,3.0,,1538593099.021458,1538593102.0223482,o
57,207,10,Presentation,4,00929960627fa_sunaprnrbmgkomdbchr.jpg,00803941205fa_sunagvxkjokqimstxpe.jpg,00929960627fa.jpg,sunaprnrbmgkomdbchr.jpg,00803941205fa.jpg,sunagvxkjokqimstxpe.jpg,,,>,Place,0.6999080181121826,,,,1.0,,,1.0,,1538593104.172703,1538593107.173717,x
58,208,10,Presentation,4,00153931230fa_sunaauhozyxzeeqstxi.jpg,00987960627fa_sunbloeoiozwjjsiamp.jpg,00153931230fa.jpg,sunaauhozyxzeeqstxi.jpg,00987960627fa.jpg,sunbloeoiozwjjsiamp.jpg,,,>,Place,0.6019399166107178,,,,1.0,,,1.0,,1538593109.090251,1538593112.0921881,x
59,209,10,Presentation,4,00949960627fb_sunasnqkkyhilqkxiqm.jpg,00858940307fa_sunaixpqndlwhwjtjek.jpg,00949960627fb.jpg,sunasnqkkyhilqkxiqm.jpg,00858940307fa.jpg,sunaixpqndlwhwjtjek.jpg,,,>,Place,0.6510930061340332,,,,1.0,,,1.0,,1538593113.909208,1538593116.910193,x
60,300,10,Presentation,6,00548940519fa_sunacerqowiaeoqkmsq.jpg,00149931230fa_sunaauglwmctnkxyird.jpg,00548940519fa.jpg,sunacerqowiaeoqkmsq.jpg,00149931230fa.jpg,sunaauglwmctnkxyird.jpg,,,<,Place,0.7663929462432861,,,,1.0,,,3.0,,1538594058.347128,1538594061.381209,o
61,301,10,Presentation,6,00812941205fa_sunahgtbwgsmtqeodwh.jpg,00779941205fa_sunagdzlvkqtpnfxfcg.jpg,00812941205fa.jpg,sunahgtbwgsmtqeodwh.jpg,00779941205fa.jpg,sunagdzlvkqtpnfxfcg.jpg,,,<,Place,0.7674739360809326,,,,1.0,,,3.0,,1538594063.432392,1538594066.4164882,o
62,302,10,Presentation,6,00080931230fb_sunaafjszryxyavjzln.jpg,00933960627fa_sunapwjkcxdaeqehfql.jpg,00080931230fb.jpg,sunaafjszryxyavjzln.jpg,00933960627fa.jpg,sunapwjkcxdaeqehfql.jpg,,,<,Place,0.6672627925872803,,,,1.0,,,1.0,,1538594068.433918,1538594071.418276,x
63,303,10,Presentation,6,01010960627fa_suncnkvbhypnivcohyx.jpg,00892960530fa_sunalntxqqadigcletd.jpg,01010960627fa.jpg,suncnkvbhypnivcohyx.jpg,00892960530fa.jpg,sunalntxqqadigcletd.jpg,,,<,Place,0.7012481689453125,,,,1.0,,,1.0,,1538594073.318003,1538594076.303107,x
64,304,10,Presentation,6,00880960530fa_sunakmnfgklupjijsgf.jpg,00931960627fa_sunaptrqvaooxfvktvw.jpg,00880960530fa.jpg,sunakmnfgklupjijsgf.jpg,00931960627fa.jpg,sunaptrqvaooxfvktvw.jpg,,,<,Place,0.5515279769897461,,,,1.0,,,1.0,,1538594078.2361732,1538594081.221472,x
65,305,10,Presentation,6,00876960620fa_sunajwqkfsykceonyig.jpg,00554940519fa_sunacfdkbsrughwqwtt.jpg,00876960620fa.jpg,sunajwqkfsykceonyig.jpg,00554940519fa.jpg,sunacfdkbsrughwqwtt.jpg,,,<,Place,0.6354849338531494,,,,1.0,,,3.0,,1538594083.004442,1538594085.9895868,o
66,306,10,Presentation,6,00221940128fa_sunabcfpwlpolnutyju.jpg,00977960627fa_sunbbxkanhzjgbwyxqs.jpg,00221940128fa.jpg,sunabcfpwlpolnutyju.jpg,00977960627fa.jpg,sunbbxkanhzjgbwyxqs.jpg,,,<,Place,0.8008189201354979,,,,1.0,,,1.0,,1538594087.8566911,1538594090.841721,x
67,307,10,Presentation,6,00909960530_sunaobtizabegtwfwul.jpg,00507940519fa_sunacacflqoyxhsqzhe.jpg,00909960530.jpg,sunaobtizabegtwfwul.jpg,00507940519fa.jpg,sunacacflqoyxhsqzhe.jpg,,,<,Place,0.6841700077056885,,,,1.0,,,1.0,,1538594092.8740609,1538594095.8591712,x
68,308,10,Presentation,6,00785941205fa_sunaglqunwuycxydmyu.jpg,00815941205fa_sunahiphsekjihkafsl.jpg,00785941205fa.jpg,sunaglqunwuycxydmyu.jpg,00815941205fa.jpg,sunahiphsekjihkafsl.jpg,,,<,Place,0.7003109455108643,,,,1.0,,,1.0,,1538594097.809452,1538594100.79384,x
69,309,10,Presentation,6,00857940307fa_sunaiwfobocrruqznsv.jpg,00966960627fa_sunaygrtwrwfezqjizr.jpg,00857940307fa.jpg,sunaiwfobocrruqznsv.jpg,00966960627fa.jpg,sunaygrtwrwfezqjizr.jpg,,,<,Place,0.6842360496520996,,,,1.0,,,1.0,,1538594102.744694,1538594105.728878,x
70,350,10,Presentation,7,00996960627fa_sunbpvgllfdejxcpjqp.jpg,00818940307fa_sunahpblecxtmuzkmxb.jpg,00996960627fa.jpg,sunbpvgllfdejxcpjqp.jpg,00818940307fa.jpg,sunahpblecxtmuzkmxb.jpg,,,>,Place,0.7015118598937988,,,,0.0,,,1.0,,1538594404.208107,1538594407.24327,x
71,351,10,Presentation,7,00911960530fa_sunaooaqzputrowwbsw.jpg,00264940128fb_sunabjzyxcjnmztdonj.jpg,00911960530fa.jpg,sunaooaqzputrowwbsw.jpg,00264940128fb.jpg,sunabjzyxcjnmztdonj.jpg,,,>,Place,0.6670441627502441,,,,1.0,,,3.0,,1538594409.175675,1538594412.1608179,o
72,352,10,Presentation,7,00999960627fa_sunbvbrvgbpanfrawft.jpg,00770941201fa_sunaflojskatpeqyzqp.jpg,00999960627fa.jpg,sunbvbrvgbpanfrawft.jpg,00770941201fa.jpg,sunaflojskatpeqyzqp.jpg,,,>,Place,0.7359549999237059,,,,1.0,,,3.0,,1538594414.0610151,1538594417.045092,x
73,353,10,Presentation,7,00208940128fa_sunaazzyhbvqjpmazjq.jpg,00123931230fb_sunaalcrrdbjgdztbiz.jpg,00208940128fa.jpg,sunaazzyhbvqjpmazjq.jpg,00123931230fb.jpg,sunaalcrrdbjgdztbiz.jpg,,,>,Place,0.7022268772125244,,,,1.0,,,3.0,,1538594419.013314,1538594421.997449,o
74,354,10,Presentation,7,00807941205fa_sunahawfngukizslzsd.jpg,00925960627fa_sunapqwnqzxlsfvgsjm.jpg,00807941205fa.jpg,sunahawfngukizslzsd.jpg,00925960627fa.jpg,sunapqwnqzxlsfvgsjm.jpg,,,>,Place,0.9503982067108154,,,,1.0,,,1.0,,1538594423.931133,1538594426.91649,x
75,355,10,Presentation,7,00154931230fa_sunaauueuhhvklldjik.jpg,00898960530fa_sunamkmeblgteyggink.jpg,00154931230fa.jpg,sunaauueuhhvklldjik.jpg,00898960530fa.jpg,sunamkmeblgteyggink.jpg,,,>,Place,0.7521121501922607,,,,1.0,,,1.0,,1538594429.082512,1538594432.067635,x
76,356,10,Presentation,7,01003960627fb_sunbwdrdvsweerwsdrj.jpg,00663941121fa_sunadnjjzohjhbohlwq.jpg,01003960627fb.jpg,sunbwdrdvsweerwsdrj.jpg,00663941121fa.jpg,sunadnjjzohjhbohlwq.jpg,,,>,Place,1.4842209815979004,,,,1.0,,,3.0,,1538594434.034129,1538594437.018351,o
77,357,10,Presentation,7,00866940307fa_sunajbwkywmsqkldfml.jpg,00746941201fa_sunaetydippjxikifsb.jpg,00866940307fa.jpg,sunajbwkywmsqkldfml.jpg,00746941201fa.jpg,sunaetydippjxikifsb.jpg,,,>,Place,0.9181890487670898,,,,1.0,,,1.0,,1538594439.7362962,1538594442.720362,x
78,358,10,Presentation,7,00903960620fa_sunanainkqdvktzoxyl.jpg,01004960627fa_sunbwtlihsuptkrckid.jpg,00903960620fa.jpg,sunanainkqdvktzoxyl.jpg,01004960627fa.jpg,sunbwtlihsuptkrckid.jpg,,,>,Place,0.9346468448638916,,,,0.0,,,3.0,,1538594444.955443,1538594447.939486,o
79,359,10,Presentation,7,00762941201fa_sunafgzgbisbopcyslr.jpg,00786941205fa_sunagmhildamktmqjss.jpg,00762941201fa.jpg,sunafgzgbisbopcyslr.jpg,00786941205fa.jpg,sunagmhildamktmqjss.jpg,,,>,Place,0.8681001663208008,,,,1.0,,,3.0,,1538594450.090022,1538594453.0736911,o
80,10,10,Memory,0,,,,,,,00130931230fa.jpg,Face,>,Face,,1.786,1.0,Novel,,,,,,1538591329.668539,1538591331.735738,
81,11,10,Memory,0,,,,,,,00140931230fb.jpg,Face,>,Face,,1.171,3.0,Category,,,,,,1538591333.00283,1538591335.003977,
82,12,10,Memory,0,,,,,,,00827940307fa.jpg,Face,>,Face,,1.67,1.0,Novel,,,,,,1538591336.270631,1538591338.270991,
83,13,10,Memory,0,,,,,,,00882960530fa.jpg,Face,>,Face,,1.337,2.0,Full,,,,,,1538591339.522075,1538591341.522232,
84,14,10,Memory,0,,,,,,,sunagtumacdlmciqamz.jpg,Place,>,Face,,0.0,,Side,,,,,,1538591342.789085,1538591344.790608,
85,15,10,Memory,0,,,,,,,sunabqowuarvqqcnipn.jpg,Place,>,Face,,1.403,1.0,Novel,,,,,,1538591346.07449,1538591348.073524,
86,16,10,Memory,0,,,,,,,00290940422fa.jpg,Face,>,Face,,0.903,3.0,Novel,,,,,,1538591349.3248599,1538591351.324827,
87,17,10,Memory,0,,,,,,,sunaamvxnvouicstkjb.jpg,Place,>,Face,,1.0190000000000001,1.0,Novel,,,,,,1538591352.592725,1538591354.593714,
88,18,10,Memory,0,,,,,,,00749941201fa.jpg,Face,>,Face,,1.719,2.0,Novel,,,,,,1538591355.843109,1538591357.84377,
89,19,10,Memory,0,,,,,,,sunaeuvjbmdpknaqqaj.jpg,Place,>,Face,,0.9690000000000001,1.0,Novel,,,,,,1538591359.112991,1538591361.112051,
90,20,10,Memory,0,,,,,,,00947960627fa.jpg,Face,>,Face,,1.0859999999999999,3.0,Novel,,,,,,1538591362.362441,1538591364.363259,
91,21,10,Memory,0,,,,,,,sunaknlirqjqiwbbeeg.jpg,Place,>,Face,,0.7709999999999999,1.0,Side,,,,,,1538591365.614269,1538591367.613618,
92,22,10,Memory,0,,,,,,,sunbagfpovqwbuexqdn.jpg,Place,>,Face,,0.802,1.0,Novel,,,,,,1538591368.882387,1538591370.881794,
93,23,10,Memory,0,,,,,,,sunaathajvxrgptwhoj.jpg,Place,>,Face,,1.7380000000000002,1.0,Novel,,,,,,1538591372.132646,1538591374.133755,
94,24,10,Memory,0,,,,,,,sunaapllqyqlykszopd.jpg,Place,>,Face,,1.1520000000000001,1.0,None,,,,,,1538591375.383241,1538591377.384114,
95,25,10,Memory,0,,,,,,,00763941205fa.jpg,Face,>,Face,,1.053,3.0,Novel,,,,,,1538591378.634168,1538591380.635067,
96,26,10,Memory,0,,,,,,,sunahtfxgsrmkiulnwk.jpg,Place,>,Face,,0.604,1.0,Novel,,,,,,1538591381.88457,1538591383.886615,
97,27,10,Memory,0,,,,,,,00793941205fa.jpg,Face,>,Face,,1.504,2.0,Full,,,,,,1538591385.13646,1538591387.137556,
98,28,10,Memory,0,,,,,,,00775941205fa.jpg,Face,>,Face,,0.0,,Full,,,,,,1538591388.403694,1538591390.404896,
99,29,10,Memory,0,,,,,,,00795941205fa.jpg,Face,>,Face,,1.053,2.0,Full,,,,,,1538591391.655634,1538591393.654949,
100,30,10,Memory,0,,,,,,,sunagutjvdvnhxejerz.jpg,Place,>,Face,,0.752,1.0,Side,,,,,,1538591394.906801,1538591396.906806,
101,31,10,Memory,0,,,,,,,sunafhmnhsdurlvddpw.jpg,Place,>,Face,,0.5529999999999999,1.0,Novel,,,,,,1538591398.156877,1538591400.158335,
102,32,10,Memory,0,,,,,,,sunalcrtwiycqobgelp.jpg,Place,>,Face,,1.003,1.0,Novel,,,,,,1538591401.408266,1538591403.40846,
103,33,10,Memory,0,,,,,,,sunakodkcslgqhqlgwl.jpg,Place,>,Face,,1.202,2.0,None,,,,,,1538591404.66035,1538591406.659529,
104,34,10,Memory,0,,,,,,,sunasmmcxdddtmtazwx.jpg,Place,>,Face,,0.72,3.0,Novel,,,,,,1538591407.926799,1538591409.927803,
105,35,10,Memory,0,,,,,,,00973960627fa.jpg,Face,>,Face,,1.4040000000000001,1.0,Novel,,,,,,1538591411.194753,1538591413.1957119,
106,36,10,Memory,0,,,,,,,sunadcphrizvfpljiqt.jpg,Place,>,Face,,0.836,1.0,None,,,,,,1538591414.446066,1538591416.446082,
107,37,10,Memory,0,,,,,,,00968960627fa.jpg,Face,>,Face,,1.138,3.0,Novel,,,,,,1538591417.697122,1538591419.698374,
108,38,10,Memory,0,,,,,,,00144931230fb.jpg,Face,>,Face,,1.119,1.0,Novel,,,,,,1538591420.948212,1538591422.9483821,
109,39,10,Memory,0,,,,,,,sunafvwfsmqkjrutjta.jpg,Place,>,Face,,1.57,1.0,Side,,,,,,1538591424.200288,1538591426.19977,
110,40,10,Memory,0,,,,,,,00887960530.jpg,Face,>,Face,,1.47,1.0,Novel,,,,,,1538591427.450613,1538591429.450652,
111,41,10,Memory,0,,,,,,,sunaeisnjeetzmkbuad.jpg,Place,>,Face,,0.7040000000000001,1.0,None,,,,,,1538591430.700917,1538591432.701854,
112,42,10,Memory,0,,,,,,,00800941205fb.jpg,Face,>,Face,,1.37,3.0,Category,,,,,,1538591433.952963,1538591435.952959,
113,43,10,Memory,0,,,,,,,00727941205fa.jpg,Face,>,Face,,1.204,3.0,Category,,,,,,1538591437.204084,1538591439.204181,
114,44,10,Memory,0,,,,,,,00634940928fa.jpg,Face,>,Face,,0.7040000000000001,1.0,Category,,,,,,1538591440.455194,1538591442.454358,
115,45,10,Memory,0,,,,,,,sunbbgtoeuzierkkajt.jpg,Place,>,Face,,1.071,1.0,Novel,,,,,,1538591443.705425,1538591445.706626,
116,46,10,Memory,0,,,,,,,sunagvjurcwdbixvnyi.jpg,Place,>,Face,,0.586,1.0,None,,,,,,1538591446.95653,1538591448.95747,
117,47,10,Memory,0,,,,,,,00884960530fa.jpg,Face,>,Face,,1.036,1.0,Category,,,,,,1538591450.2076619,1538591452.208642,
118,48,10,Memory,0,,,,,,,00799941205fa.jpg,Face,>,Face,,0.938,1.0,Full,,,,,,1538591453.457929,1538591455.460026,
119,49,10,Memory,0,,,,,,,sunagtjwilqjvxohypn.jpg,Place,>,Face,,0.753,1.0,Side,,,,,,1538591456.7100348,1538591458.7092528,
120,60,10,Memory,1,,,,,,,sunaeoghzrjarigmwua.jpg,Place,<,Place,,1.986,1.0,Novel,,,,,,1538591848.919564,1538591850.970401,
121,61,10,Memory,1,,,,,,,sunahrltmuwbiehihpe.jpg,Place,<,Place,,0.0,,Full,,,,,,1538591852.3195288,1538591854.3046288,
122,62,10,Memory,1,,,,,,,00854940307fa.jpg,Face,<,Place,,1.337,1.0,Side,,,,,,1538591855.55477,1538591857.53808,
123,63,10,Memory,1,,,,,,,sunbbfqwjpdxniyhies.jpg,Place,<,Place,,1.6030000000000002,1.0,Novel,,,,,,1538591858.805267,1538591860.790121,
124,64,10,Memory,1,,,,,,,00481940519fa.jpg,Face,<,Place,,1.403,1.0,None,,,,,,1538591862.040273,1538591864.024281,
125,65,10,Memory,1,,,,,,,sunaajqmsaavkmgbsth.jpg,Place,<,Place,,1.136,1.0,Novel,,,,,,1538591865.274401,1538591867.258653,
126,66,10,Memory,1,,,,,,,sunbxarcshsnqsefemx.jpg,Place,<,Place,,1.371,1.0,Novel,,,,,,1538591868.508466,1538591870.4924312,
127,67,10,Memory,1,,,,,,,00543940519fa.jpg,Face,<,Place,,0.0,,None,,,,,,1538591871.7429562,1538591873.726722,
128,68,10,Memory,1,,,,,,,00743941201fa.jpg,Face,<,Place,,0.0,,Novel,,,,,,1538591874.977944,1538591876.961821,
129,69,10,Memory,1,,,,,,,sunabyvpwkgsjtijdwj.jpg,Place,<,Place,,1.338,1.0,Novel,,,,,,1538591878.2110019,1538591880.196344,
130,70,10,Memory,1,,,,,,,sunahedfrhtcwpneund.jpg,Place,<,Place,,1.47,3.0,Full,,,,,,1538591881.446308,1538591883.430194,
131,71,10,Memory,1,,,,,,,00839940307fa.jpg,Face,<,Place,,1.02,1.0,Novel,,,,,,1538591884.680443,1538591886.66465,
132,72,10,Memory,1,,,,,,,sunaipyohrqlwngaqif.jpg,Place,<,Place,,1.3880000000000001,4.0,Novel,,,,,,1538591887.914594,1538591889.899549,
133,73,10,Memory,1,,,,,,,00972960627fa.jpg,Face,<,Place,,1.102,2.0,Novel,,,,,,1538591891.149497,1538591893.132957,
134,74,10,Memory,1,,,,,,,sunaiwduelojtwaqeyh.jpg,Place,<,Place,,1.7690000000000001,3.0,Full,,,,,,1538591894.384066,1538591896.367868,
135,75,10,Memory,1,,,,,,,00483940519fa.jpg,Face,<,Place,,1.854,4.0,Novel,,,,,,1538591897.617158,1538591899.602283,
136,76,10,Memory,1,,,,,,,00811960530fa.jpg,Face,<,Place,,0.988,1.0,Side,,,,,,1538591900.852317,1538591902.836,
137,77,10,Memory,1,,,,,,,sunacxtcahkymosigud.jpg,Place,<,Place,,1.137,1.0,Novel,,,,,,1538591904.087214,1538591906.070442,
138,78,10,Memory,1,,,,,,,00878960530fa.jpg,Face,<,Place,,0.804,1.0,None,,,,,,1538591907.3375962,1538591909.3217301,
139,79,10,Memory,1,,,,,,,00096931230fa.jpg,Face,<,Place,,1.253,4.0,Side,,,,,,1538591910.57274,1538591912.555594,
140,80,10,Memory,1,,,,,,,00101931230fb.jpg,Face,<,Place,,0.753,1.0,Novel,,,,,,1538591913.907042,1538591915.890989,
141,81,10,Memory,1,,,,,,,sunbmaiocftdtvnzgap.jpg,Place,<,Place,,1.8869999999999998,4.0,Novel,,,,,,1538591917.157969,1538591919.142008,
142,82,10,Memory,1,,,,,,,sunaajpqmulidejvjsr.jpg,Place,<,Place,,1.037,3.0,Full,,,,,,1538591920.392485,1538591922.375432,
143,83,10,Memory,1,,,,,,,sunacepzfrmtkiqonpy.jpg,Place,<,Place,,1.021,4.0,Category,,,,,,1538591923.626405,1538591925.610662,
144,84,10,Memory,1,,,,,,,sunabxsuqbleluwczoy.jpg,Place,<,Place,,0.6709999999999999,1.0,Category,,,,,,1538591926.8606448,1538591928.8445199,
145,85,10,Memory,1,,,,,,,sunaavtbadenwnzeutj.jpg,Place,<,Place,,0.653,1.0,Novel,,,,,,1538591930.095655,1538591932.0786572,
146,86,10,Memory,1,,,,,,,00184940128fa.jpg,Face,<,Place,,0.9209999999999999,1.0,Novel,,,,,,1538591933.328967,1538591935.3140528,
147,87,10,Memory,1,,,,,,,00098931230fa.jpg,Face,<,Place,,1.22,4.0,Side,,,,,,1538591936.563205,1538591938.547365,
148,88,10,Memory,1,,,,,,,00825940307fa.jpg,Face,<,Place,,0.653,1.0,Side,,,,,,1538591939.898343,1538591941.881577,
149,89,10,Memory,1,,,,,,,00598941031fa.jpg,Face,<,Place,,1.32,3.0,Novel,,,,,,1538591943.132575,1538591945.1166348,
150,90,10,Memory,1,,,,,,,sunakgbnzxmfohgehnu.jpg,Place,<,Place,,1.403,1.0,Category,,,,,,1538591946.366629,1538591948.350855,
151,91,10,Memory,1,,,,,,,00791941205fa.jpg,Face,<,Place,,0.67,1.0,Novel,,,,,,1538591949.734808,1538591951.719709,
152,92,10,Memory,1,,,,,,,sunagrmyoovzukhxmlo.jpg,Place,<,Place,,0.721,1.0,Novel,,,,,,1538591952.9858608,1538591954.970094,
153,93,10,Memory,1,,,,,,,sunaaeowapdkwzqpgqr.jpg,Place,<,Place,,0.736,1.0,Category,,,,,,1538591956.304114,1538591958.287421,
154,94,10,Memory,1,,,,,,,00988960627fa.jpg,Face,<,Place,,0.903,3.0,Novel,,,,,,1538591959.53848,1538591961.522387,
155,95,10,Memory,1,,,,,,,00776941205fa.jpg,Face,<,Place,,0.836,1.0,None,,,,,,1538591962.771512,1538591964.756531,
156,96,10,Memory,1,,,,,,,sunafxokyavhgptyfye.jpg,Place,<,Place,,1.653,4.0,Category,,,,,,1538591966.006684,1538591967.990494,
157,97,10,Memory,1,,,,,,,00069931230fb.jpg,Face,<,Place,,0.687,1.0,None,,,,,,1538591969.241647,1538591971.225077,
158,98,10,Memory,1,,,,,,,sunaaiqiqcggrskoqgy.jpg,Place,<,Place,,1.103,1.0,Full,,,,,,1538591972.474829,1538591974.4603288,
159,99,10,Memory,1,,,,,,,01007960627fa.jpg,Face,<,Place,,0.77,1.0,Novel,,,,,,1538591975.7102869,1538591977.693136,
160,160,10,Memory,3,,,,,,,00828940307fa.jpg,Face,<,Face,,1.736,1.0,Category,,,,,,1538592510.365143,1538592512.416025,
161,161,10,Memory,3,,,,,,,sunaaeplwsfslcbtojr.jpg,Place,<,Face,,1.472,1.0,Novel,,,,,,1538592513.666148,1538592515.651073,
162,162,10,Memory,3,,,,,,,00111931230fb.jpg,Face,<,Face,,0.0,,Novel,,,,,,1538592516.9004278,1538592518.884194,
163,163,10,Memory,3,,,,,,,00700941121fa.jpg,Face,<,Face,,1.119,1.0,Full,,,,,,1538592520.1352448,1538592522.118513,
164,164,10,Memory,3,,,,,,,00076931230fa.jpg,Face,<,Face,,1.021,1.0,Category,,,,,,1538592523.369674,1538592525.353924,
165,165,10,Memory,3,,,,,,,sunasrjlmglmjzbmqxb.jpg,Place,<,Face,,0.8190000000000001,1.0,Side,,,,,,1538592526.604589,1538592528.58794,
166,166,10,Memory,3,,,,,,,sunarceibpcyacbmfga.jpg,Place,<,Face,,0.8029999999999999,1.0,None,,,,,,1538592529.839068,1538592531.821995,
167,167,10,Memory,3,,,,,,,sunaefgzwiramypjvtd.jpg,Place,<,Face,,0.9540000000000001,1.0,Side,,,,,,1538592533.073057,1538592535.0571141,
168,168,10,Memory,3,,,,,,,sunagountlxpzkytsmp.jpg,Place,<,Face,,0.8540000000000001,1.0,None,,,,,,1538592536.307107,1538592538.290674,
169,169,10,Memory,3,,,,,,,00070940307fa.jpg,Face,<,Face,,1.153,3.0,Novel,,,,,,1538592539.541448,1538592541.525745,
170,170,10,Memory,3,,,,,,,00926960627Fa.jpg,Face,<,Face,,1.838,3.0,Full,,,,,,1538592542.775501,1538592544.759703,
171,171,10,Memory,3,,,,,,,00773960620fa.jpg,Face,<,Face,,1.804,4.0,Novel,,,,,,1538592546.05994,1538592548.044115,
172,172,10,Memory,3,,,,,,,sunagpancjmxqfazssf.jpg,Place,<,Face,,1.071,3.0,Novel,,,,,,1538592549.295917,1538592551.279115,
173,173,10,Memory,3,,,,,,,00788941205fa.jpg,Face,<,Face,,0.987,3.0,Category,,,,,,1538592552.595117,1538592554.5803108,
174,174,10,Memory,3,,,,,,,sunbbegcweqnetpdlrh.jpg,Place,<,Face,,0.92,1.0,Novel,,,,,,1538592555.847323,1538592557.8312528,
175,175,10,Memory,3,,,,,,,00939960627fa.jpg,Face,<,Face,,1.004,1.0,Category,,,,,,1538592559.080576,1538592561.0654051,
176,176,10,Memory,3,,,,,,,sunaamsdyakblkfoydx.jpg,Place,<,Face,,0.737,1.0,Novel,,,,,,1538592562.315792,1538592564.300605,
177,177,10,Memory,3,,,,,,,00127931230fa.jpg,Face,<,Face,,1.003,3.0,Novel,,,,,,1538592565.549942,1538592567.533106,
178,178,10,Memory,3,,,,,,,sunadikxpvqeabxrvvc.jpg,Place,<,Face,,1.271,1.0,Side,,,,,,1538592568.783036,1538592570.768118,
179,179,10,Memory,3,,,,,,,sunapqwoeotxshkukbh.jpg,Place,<,Face,,0.62,1.0,Side,,,,,,1538592572.018918,1538592574.0025241,
180,180,10,Memory,3,,,,,,,00942960627fa.jpg,Face,<,Face,,0.787,3.0,Novel,,,,,,1538592575.253345,1538592577.2364788,
181,181,10,Memory,3,,,,,,,sunahbvlpavurqoxdeq.jpg,Place,<,Face,,0.605,1.0,None,,,,,,1538592578.603495,1538592580.588474,
182,182,10,Memory,3,,,,,,,00809960620fa.jpg,Face,<,Face,,0.8370000000000001,3.0,Category,,,,,,1538592581.837792,1538592583.821722,
183,183,10,Memory,3,,,,,,,sunaafewhewbxmjiurz.jpg,Place,<,Face,,0.637,1.0,None,,,,,,1538592585.072997,1538592587.057064,
184,184,10,Memory,3,,,,,,,00971960627fa.jpg,Face,<,Face,,1.021,1.0,Novel,,,,,,1538592588.3067288,1538592590.291262,
185,185,10,Memory,3,,,,,,,00725941201fa.jpg,Face,<,Face,,1.07,1.0,Full,,,,,,1538592591.541417,1538592593.525044,
186,186,10,Memory,3,,,,,,,00129931230fb.jpg,Face,<,Face,,0.72,1.0,Novel,,,,,,1538592594.776446,1538592596.759615,
187,187,10,Memory,3,,,,,,,sunafvsxtzaizojicxx.jpg,Place,<,Face,,0.586,1.0,Novel,,,,,,1538592598.009512,1538592599.994524,
188,188,10,Memory,3,,,,,,,00950960627fa.jpg,Face,<,Face,,0.903,1.0,Full,,,,,,1538592601.2618,1538592603.244869,
189,189,10,Memory,3,,,,,,,00719960620fa.jpg,Face,<,Face,,0.718,1.0,Novel,,,,,,1538592604.496008,1538592606.479985,
190,190,10,Memory,3,,,,,,,sunaakqepfoeqomfgxf.jpg,Place,<,Face,,0.45299999999999996,1.0,Novel,,,,,,1538592607.7290962,1538592609.714366,
191,191,10,Memory,3,,,,,,,sunadzuvtmtmgupotmf.jpg,Place,<,Face,,0.488,1.0,Novel,,,,,,1538592610.964367,1538592612.94803,
192,192,10,Memory,3,,,,,,,00116931230fa.jpg,Face,<,Face,,1.453,2.0,Novel,,,,,,1538592614.198698,1538592616.183434,
193,193,10,Memory,3,,,,,,,sunarfdklgdnjgeqfjg.jpg,Place,<,Face,,1.0190000000000001,1.0,Novel,,,,,,1538592617.432787,1538592619.417792,
194,194,10,Memory,3,,,,,,,00789960620fa.jpg,Face,<,Face,,1.204,2.0,Novel,,,,,,1538592620.667737,1538592622.801786,
195,195,10,Memory,3,,,,,,,sunaampvucecsfbdafn.jpg,Place,<,Face,,0.522,1.0,Novel,,,,,,1538592624.068141,1538592626.0529609,
196,196,10,Memory,3,,,,,,,sunadsgmtznewzyasnk.jpg,Place,<,Face,,0.7040000000000001,1.0,Side,,,,,,1538592627.302967,1538592629.288086,
197,197,10,Memory,3,,,,,,,sunaakgekhjklxmvulj.jpg,Place,<,Face,,1.337,1.0,Novel,,,,,,1538592630.5381632,1538592632.522175,
198,198,10,Memory,3,,,,,,,00650941031fa.jpg,Face,<,Face,,1.238,1.0,Full,,,,,,1538592633.904375,1538592635.889501,
199,199,10,Memory,3,,,,,,,sunahuynahneraqftyz.jpg,Place,<,Face,,0.621,1.0,None,,,,,,1538592637.139752,1538592639.122695,
200,110,10,Memory,2,,,,,,,sunabizydfotqddlnjp.jpg,Place,>,Face,,2.07,1.0,Side,,,,,,1538592179.292875,1538592181.342799,
201,111,10,Memory,2,,,,,,,00990960627fa.jpg,Face,>,Face,,1.587,1.0,Novel,,,,,,1538592182.592907,1538592184.5778391,
202,112,10,Memory,2,,,,,,,00784941205fb.jpg,Face,>,Face,,1.935,3.0,Novel,,,,,,1538592185.827833,1538592187.8112679,
203,113,10,Memory,2,,,,,,,sunaatpkocdkocwxpkb.jpg,Place,>,Face,,1.82,1.0,Novel,,,,,,1538592189.0632222,1538592191.046485,
204,114,10,Memory,2,,,,,,,00970960627fa.jpg,Face,>,Face,,1.3530000000000002,4.0,Full,,,,,,1538592192.296377,1538592194.280533,
205,115,10,Memory,2,,,,,,,sunaqyylsngywqzwfmx.jpg,Place,>,Face,,1.419,1.0,None,,,,,,1538592195.531369,1538592197.514574,
206,116,10,Memory,2,,,,,,,sunagfvluwixdsozaql.jpg,Place,>,Face,,1.3869999999999998,1.0,Novel,,,,,,1538592198.764961,1538592200.7488868,
207,117,10,Memory,2,,,,,,,sunbpflsdaxnddnwcqi.jpg,Place,>,Face,,0.0,,Novel,,,,,,1538592202.015973,1538592204.000895,
208,118,10,Memory,2,,,,,,,sunaecpkgfewqqreqwe.jpg,Place,>,Face,,1.27,1.0,Novel,,,,,,1538592205.2680821,1538592207.251124,
209,119,10,Memory,2,,,,,,,sunahwgbqkqcrwprgvh.jpg,Place,>,Face,,1.037,1.0,Side,,,,,,1538592208.51721,1538592210.502559,
210,120,10,Memory,2,,,,,,,sunaakxgygjfqrzpyoz.jpg,Place,>,Face,,1.286,3.0,Novel,,,,,,1538592211.753243,1538592213.73642,
211,121,10,Memory,2,,,,,,,sunathzzbcwjykldrem.jpg,Place,>,Face,,1.037,3.0,Novel,,,,,,1538592214.987421,1538592216.970772,
212,122,10,Memory,2,,,,,,,00829940307fa.jpg,Face,>,Face,,0.0,,Full,,,,,,1538592218.221468,1538592220.204991,
213,123,10,Memory,2,,,,,,,00185940422fb.jpg,Face,>,Face,,0.0,,Novel,,,,,,1538592221.471962,1538592223.456003,
214,124,10,Memory,2,,,,,,,00262940128fa.jpg,Face,>,Face,,1.002,4.0,Full,,,,,,1538592225.0399802,1538592227.024128,
215,125,10,Memory,2,,,,,,,00147931230fb.jpg,Face,>,Face,,0.903,3.0,Novel,,,,,,1538592228.274426,1538592230.2592561,
216,126,10,Memory,2,,,,,,,00938960627fa.jpg,Face,>,Face,,1.12,1.0,Category,,,,,,1538592231.508667,1538592233.4928179,
217,127,10,Memory,2,,,,,,,sunacvjlsylseoghjup.jpg,Place,>,Face,,0.769,1.0,Novel,,,,,,1538592234.74388,1538592236.726656,
218,128,10,Memory,2,,,,,,,00720960620fa.jpg,Face,>,Face,,1.338,4.0,Novel,,,,,,1538592237.976818,1538592239.961738,
219,129,10,Memory,2,,,,,,,sunagjzcrjvmxzqzljx.jpg,Place,>,Face,,0.785,3.0,Novel,,,,,,1538592241.229027,1538592243.212925,
220,130,10,Memory,2,,,,,,,sunbaoizrfijvhpnnjn.jpg,Place,>,Face,,0.9209999999999999,1.0,Side,,,,,,1538592244.464083,1538592246.446984,
221,131,10,Memory,2,,,,,,,sunbasypfgzjtomktmu.jpg,Place,>,Face,,1.421,2.0,Side,,,,,,1538592247.6972392,1538592249.681561,
222,132,10,Memory,2,,,,,,,sunaivdylrawbmhryfp.jpg,Place,>,Face,,0.6859999999999999,1.0,Side,,,,,,1538592251.065327,1538592253.048389,
223,133,10,Memory,2,,,,,,,sunagpjzsbltchlwvou.jpg,Place,>,Face,,1.153,3.0,Novel,,,,,,1538592254.300591,1538592256.283809,
224,134,10,Memory,2,,,,,,,sunaajayojuslbbnneg.jpg,Place,>,Face,,0.669,1.0,None,,,,,,1538592257.550589,1538592259.5350769,
225,135,10,Memory,2,,,,,,,00097931230fa.jpg,Face,>,Face,,0.8540000000000001,3.0,Category,,,,,,1538592260.785924,1538592262.76822,
226,136,10,Memory,2,,,,,,,00816941205fa.jpg,Face,>,Face,,1.137,1.0,Category,,,,,,1538592264.153225,1538592266.1362991,
227,137,10,Memory,2,,,,,,,sunahmhrncocyhsjpxk.jpg,Place,>,Face,,1.119,1.0,None,,,,,,1538592267.403305,1538592269.388358,
228,138,10,Memory,2,,,,,,,sunabanoxjtqxamkucc.jpg,Place,>,Face,,1.52,1.0,None,,,,,,1538592270.638708,1538592272.6224449,
229,139,10,Memory,2,,,,,,,sunaawqdbpihmlbwyyn.jpg,Place,>,Face,,0.621,1.0,Novel,,,,,,1538592273.872659,1538592275.857541,
230,140,10,Memory,2,,,,,,,00782941205fa.jpg,Face,>,Face,,0.887,3.0,Novel,,,,,,1538592277.107001,1538592279.091622,
231,141,10,Memory,2,,,,,,,sunabyfxcxhdebvdyfd.jpg,Place,>,Face,,0.8370000000000001,1.0,None,,,,,,1538592280.341225,1538592282.325124,
232,142,10,Memory,2,,,,,,,00848940307fa.jpg,Face,>,Face,,0.887,3.0,Full,,,,,,1538592283.592074,1538592285.5762858,
233,143,10,Memory,2,,,,,,,00482940519fa.jpg,Face,>,Face,,1.103,3.0,Category,,,,,,1538592286.827136,1538592288.809421,
234,144,10,Memory,2,,,,,,,00576941031fa.jpg,Face,>,Face,,0.836,4.0,Novel,,,,,,1538592290.061413,1538592292.044513,
235,145,10,Memory,2,,,,,,,00969960627fa.jpg,Face,>,Face,,0.9540000000000001,4.0,Full,,,,,,1538592293.394906,1538592295.379632,
236,146,10,Memory,2,,,,,,,00952960627fa.jpg,Face,>,Face,,1.421,1.0,Novel,,,,,,1538592296.645936,1538592298.629975,
237,147,10,Memory,2,,,,,,,00790941205fa.jpg,Face,>,Face,,1.22,1.0,Novel,,,,,,1538592299.998101,1538592301.981103,
238,148,10,Memory,2,,,,,,,00120931230fa.jpg,Face,>,Face,,0.938,1.0,Novel,,,,,,1538592303.247977,1538592305.23326,
239,149,10,Memory,2,,,,,,,00210940128fb.jpg,Face,>,Face,,0.903,3.0,Category,,,,,,1538592306.48338,1538592308.467303,
240,310,10,Memory,6,,,,,,,sunaafbmtoniaasysgu.jpg,Place,<,Place,,1.4240000000000002,1.0,Novel,,,,,,1538594114.215245,1538594116.26529,
241,311,10,Memory,6,,,,,,,00892960530fa.jpg,Face,<,Place,,1.436,1.0,None,,,,,,1538594117.532573,1538594119.516393,
242,312,10,Memory,6,,,,,,,suncnkvbhypnivcohyx.jpg,Place,<,Place,,1.788,1.0,Full,,,,,,1538594120.7676961,1538594122.7508972,
243,313,10,Memory,6,,,,,,,00931960627fa.jpg,Face,<,Place,,0.9209999999999999,1.0,None,,,,,,1538594124.000863,1538594125.98565,
244,314,10,Memory,6,,,,,,,00880960530fa.jpg,Face,<,Place,,0.7709999999999999,1.0,Side,,,,,,1538594127.235977,1538594129.2190359,
245,315,10,Memory,6,,,,,,,sunaglqunwuycxydmyu.jpg,Place,<,Place,,1.337,4.0,Full,,,,,,1538594130.470978,1538594132.454059,
246,316,10,Memory,6,,,,,,,sunaajspcoepticvplv.jpg,Place,<,Place,,1.405,3.0,Novel,,,,,,1538594133.7212439,1538594135.7053711,
247,317,10,Memory,6,,,,,,,sunalntxqqadigcletd.jpg,Place,<,Place,,1.3869999999999998,1.0,Category,,,,,,1538594136.973205,1538594138.955518,
248,318,10,Memory,6,,,,,,,00876960620fa.jpg,Face,<,Place,,0.8859999999999999,1.0,Side,,,,,,1538594140.206746,1538594142.190618,
249,319,10,Memory,6,,,,,,,00834940307fa.jpg,Face,<,Place,,0.603,1.0,Novel,,,,,,1538594143.45751,1538594145.442084,
250,320,10,Memory,6,,,,,,,00906960530fa.jpg,Face,<,Place,,0.45299999999999996,1.0,Novel,,,,,,1538594146.709065,1538594148.691975,
251,321,10,Memory,6,,,,,,,sunaibnpvhkdpdnzcnz.jpg,Place,<,Place,,1.87,2.0,Novel,,,,,,1538594150.00996,1538594151.993964,
252,322,10,Memory,6,,,,,,,00073931230fa.jpg,Face,<,Place,,0.5539999999999999,1.0,Novel,,,,,,1538594153.294363,1538594155.278639,
253,323,10,Memory,6,,,,,,,00305940422fa.jpg,Face,<,Place,,0.7859999999999999,1.0,Novel,,,,,,1538594156.6616411,1538594158.645719,
254,324,10,Memory,6,,,,,,,sunaozisvwfbmlkfhzv.jpg,Place,<,Place,,0.871,1.0,Novel,,,,,,1538594159.9143732,1538594161.8969631,
255,325,10,Memory,6,,,,,,,sunajjxttslobudoqbv.jpg,Place,<,Place,,1.104,1.0,Novel,,,,,,1538594163.147651,1538594165.132052,
256,326,10,Memory,6,,,,,,,sunabtrnbvpppgczjim.jpg,Place,<,Place,,1.137,1.0,Novel,,,,,,1538594166.381882,1538594168.365079,
257,327,10,Memory,6,,,,,,,sunbbxkanhzjgbwyxqs.jpg,Place,<,Place,,1.304,2.0,Category,,,,,,1538594169.615218,1538594171.6011221,
258,328,10,Memory,6,,,,,,,00967960627fa.jpg,Face,<,Place,,1.3030000000000002,1.0,Novel,,,,,,1538594172.8505561,1538594174.835305,
259,329,10,Memory,6,,,,,,,sunantryfbloeaomfta.jpg,Place,<,Place,,0.937,1.0,Novel,,,,,,1538594176.102289,1538594178.084671,
260,330,10,Memory,6,,,,,,,00914960620fa.jpg,Face,<,Place,,0.605,1.0,Novel,,,,,,1538594179.351775,1538594181.336659,
261,331,10,Memory,6,,,,,,,00785941205fa.jpg,Face,<,Place,,0.504,1.0,Side,,,,,,1538594182.6866882,1538594184.670005,
262,332,10,Memory,6,,,,,,,sunaygrtwrwfezqjizr.jpg,Place,<,Place,,0.787,2.0,Category,,,,,,1538594185.921104,1538594187.905783,
263,333,10,Memory,6,,,,,,,sunaaelyvurpntclgau.jpg,Place,<,Place,,1.187,1.0,Novel,,,,,,1538594189.1552289,1538594191.139427,
264,334,10,Memory,6,,,,,,,sunaptrqvaooxfvktvw.jpg,Place,<,Place,,1.053,1.0,Category,,,,,,1538594192.390226,1538594194.374238,
265,335,10,Memory,6,,,,,,,01010960627fa.jpg,Face,<,Place,,0.486,1.0,Side,,,,,,1538594195.657633,1538594197.641535,
266,336,10,Memory,6,,,,,,,00868960307fa.jpg,Face,<,Place,,0.6859999999999999,1.0,Novel,,,,,,1538594198.9756598,1538594200.9596,
267,337,10,Memory,6,,,,,,,00966960627fa.jpg,Face,<,Place,,1.153,1.0,None,,,,,,1538594202.2269301,1538594204.209962,
268,338,10,Memory,6,,,,,,,sunakmnfgklupjijsgf.jpg,Place,<,Place,,0.72,1.0,Full,,,,,,1538594205.461129,1538594207.44529,
269,339,10,Memory,6,,,,,,,00977960627fa.jpg,Face,<,Place,,0.45299999999999996,1.0,None,,,,,,1538594208.695266,1538594210.6801438,
270,340,10,Memory,6,,,,,,,00102931230fa.jpg,Face,<,Place,,0.436,1.0,Novel,,,,,,1538594211.93026,1538594213.913407,
271,341,10,Memory,6,,,,,,,00142931230fb.jpg,Face,<,Place,,0.43700000000000006,1.0,Novel,,,,,,1538594215.164559,1538594217.148609,
272,342,10,Memory,6,,,,,,,sunaapxkpvrhpjplsok.jpg,Place,<,Place,,0.37,1.0,Novel,,,,,,1538594218.3985028,1538594220.382978,
273,343,10,Memory,6,,,,,,,sunacacflqoyxhsqzhe.jpg,Place,<,Place,,0.28600000000000003,1.0,Category,,,,,,1538594221.766919,1538594223.749951,
274,344,10,Memory,6,,,,,,,sunajwqkfsykceonyig.jpg,Place,<,Place,,0.953,1.0,Full,,,,,,1538594225.001406,1538594226.9850311,
275,345,10,Memory,6,,,,,,,sunacerqowiaeoqkmsq.jpg,Place,<,Place,,0.519,1.0,Full,,,,,,1538594228.251237,1538594230.236445,
276,346,10,Memory,6,,,,,,,00548940519fa.jpg,Face,<,Place,,0.469,1.0,Side,,,,,,1538594231.486407,1538594233.470342,
277,347,10,Memory,6,,,,,,,sunbaejotfklekvpxcz.jpg,Place,<,Place,,0.486,1.0,Novel,,,,,,1538594234.887305,1538594236.871626,
278,348,10,Memory,6,,,,,,,00507940519fa.jpg,Face,<,Place,,0.8029999999999999,1.0,None,,,,,,1538594238.1207721,1538594240.106723,
279,349,10,Memory,6,,,,,,,00063931230fa.jpg,Face,<,Place,,1.604,2.0,Novel,,,,,,1538594241.3561132,1538594243.339883,
280,360,10,Memory,7,,,,,,,sunaauueuhhvklldjik.jpg,Place,>,Place,,1.6880000000000002,1.0,Full,,,,,,1538594459.109246,1538594461.160232,
281,361,10,Memory,7,,,,,,,sunafpfpiiujzoesnqg.jpg,Place,>,Place,,1.12,1.0,Novel,,,,,,1538594462.4264472,1538594464.411348,
282,362,10,Memory,7,,,,,,,00314940422fa.jpg,Face,>,Place,,0.787,1.0,Novel,,,,,,1538594465.66175,1538594467.645542,
283,363,10,Memory,7,,,,,,,sunaizgnnplsvajzhkc.jpg,Place,>,Place,,0.87,1.0,Novel,,,,,,1538594468.894875,1538594470.880657,
284,364,10,Memory,7,,,,,,,sunafkmnlytenlsywia.jpg,Place,>,Place,,1.205,3.0,Novel,,,,,,1538594472.130806,1538594474.114139,
285,365,10,Memory,7,,,,,,,00903960620fa.jpg,Face,>,Place,,1.236,2.0,Side,,,,,,1538594475.364894,1538594477.348988,
286,366,10,Memory,7,,,,,,,sunafvcflzhlqloapyo.jpg,Place,>,Place,,1.053,1.0,Novel,,,,,,1538594478.598925,1538594480.584218,
287,367,10,Memory,7,,,,,,,00264940128fb.jpg,Face,>,Place,,1.42,4.0,None,,,,,,1538594481.849577,1538594483.833459,
288,368,10,Memory,7,,,,,,,sunagmhildamktmqjss.jpg,Place,>,Place,,1.569,2.0,Category,,,,,,1538594485.101429,1538594487.085601,
289,369,10,Memory,7,,,,,,,00123931230fb.jpg,Face,>,Place,,1.188,3.0,None,,,,,,1538594488.3348641,1538594490.31975,
290,370,10,Memory,7,,,,,,,sunafgzgbisbopcyslr.jpg,Place,>,Place,,1.536,3.0,Full,,,,,,1538594491.686815,1538594493.6708539,
291,371,10,Memory,7,,,,,,,00983960627fa.jpg,Face,>,Place,,0.838,2.0,Novel,,,,,,1538594494.938062,1538594496.9220002,
292,372,10,Memory,7,,,,,,,00862940307fa.jpg,Face,>,Place,,0.787,1.0,Novel,,,,,,1538594498.289174,1538594500.272593,
293,373,10,Memory,7,,,,,,,00786941205fa.jpg,Face,>,Place,,1.203,2.0,None,,,,,,1538594501.5233538,1538594503.5065448,
294,374,10,Memory,7,,,,,,,00609940928fa.jpg,Face,>,Place,,1.236,3.0,Novel,,,,,,1538594504.857589,1538594506.8416061,
295,375,10,Memory,7,,,,,,,sunabwmcbaxwioksdgw.jpg,Place,>,Place,,1.17,3.0,Novel,,,,,,1538594508.108741,1538594510.09271,
296,376,10,Memory,7,,,,,,,00762941201fa.jpg,Face,>,Place,,1.02,2.0,Side,,,,,,1538594511.492958,1538594513.476845,
297,377,10,Memory,7,,,,,,,00154931230fa.jpg,Face,>,Place,,0.971,1.0,Side,,,,,,1538594514.727027,1538594516.711953,
298,378,10,Memory,7,,,,,,,sunablfqiwfqomjarht.jpg,Place,>,Place,,0.72,1.0,Novel,,,,,,1538594517.978245,1538594519.962438,
299,379,10,Memory,7,,,,,,,00925960627fa.jpg,Face,>,Place,,0.92,1.0,None,,,,,,1538594521.2126539,1538594523.196429,
300,380,10,Memory,7,,,,,,,00267940128fb.jpg,Face,>,Place,,0.855,1.0,Novel,,,,,,1538594524.446649,1538594526.431459,
301,381,10,Memory,7,,,,,,,00911960530fa.jpg,Face,>,Place,,0.604,1.0,Side,,,,,,1538594527.6817698,1538594529.66477,
302,382,10,Memory,7,,,,,,,sunacycdoztxoluxjyk.jpg,Place,>,Place,,0.953,1.0,Novel,,,,,,1538594530.9321651,1538594532.915943,
303,383,10,Memory,7,,,,,,,sunabbafjowbzcvbucc.jpg,Place,>,Place,,1.104,4.0,Novel,,,,,,1538594534.183213,1538594536.1681552,
304,384,10,Memory,7,,,,,,,00772941201fa.jpg,Face,>,Place,,1.104,1.0,Novel,,,,,,1538594537.4342651,1538594539.4183528,
305,385,10,Memory,7,,,,,,,sunaooaqzputrowwbsw.jpg,Place,>,Place,,1.22,2.0,Full,,,,,,1538594540.6692538,1538594542.6525939,
306,386,10,Memory,7,,,,,,,00214940128fa.jpg,Face,>,Place,,0.9390000000000001,2.0,Novel,,,,,,1538594543.903423,1538594545.887637,
307,387,10,Memory,7,,,,,,,sunahpblecxtmuzkmxb.jpg,Place,>,Place,,1.003,1.0,Category,,,,,,1538594547.13779,1538594549.121922,
308,388,10,Memory,7,,,,,,,sunabkngeblodihjvbk.jpg,Place,>,Place,,0.987,2.0,Novel,,,,,,1538594550.372993,1538594552.355818,
309,389,10,Memory,7,,,,,,,sunahawfngukizslzsd.jpg,Place,>,Place,,0.987,2.0,Full,,,,,,1538594553.606121,1538594555.590291,
310,390,10,Memory,7,,,,,,,sunabjzyxcjnmztdonj.jpg,Place,>,Place,,1.27,3.0,Category,,,,,,1538594556.857439,1538594558.841292,
311,391,10,Memory,7,,,,,,,sunbfyvfqiimvdaxlqn.jpg,Place,>,Place,,1.0190000000000001,3.0,Novel,,,,,,1538594560.226201,1538594562.209423,
312,392,10,Memory,7,,,,,,,sunanainkqdvktzoxyl.jpg,Place,>,Place,,0.953,1.0,Full,,,,,,1538594563.459709,1538594565.443725,
313,393,10,Memory,7,,,,,,,sunaalcrrdbjgdztbiz.jpg,Place,>,Place,,0.82,1.0,Category,,,,,,1538594566.693743,1538594568.677896,
314,394,10,Memory,7,,,,,,,sunapqwnqzxlsfvgsjm.jpg,Place,>,Place,,0.752,1.0,Category,,,,,,1538594569.929146,1538594571.912059,
315,395,10,Memory,7,,,,,,,00807941205fa.jpg,Face,>,Place,,0.903,1.0,Side,,,,,,1538594573.2958539,1538594575.280226,
316,396,10,Memory,7,,,,,,,00773941201fa.jpg,Face,>,Place,,0.637,1.0,Novel,,,,,,1538594576.54751,1538594578.530626,
317,397,10,Memory,7,,,,,,,00768941205fa.jpg,Face,>,Place,,0.705,1.0,Novel,,,,,,1538594579.781531,1538594581.765705,
318,398,10,Memory,7,,,,,,,00818940307fa.jpg,Face,>,Place,,0.62,1.0,None,,,,,,1538594583.166018,1538594585.1508071,
319,399,10,Memory,7,,,,,,,00266940128fb.jpg,Face,>,Place,,0.752,1.0,Novel,,,,,,1538594586.5170631,1538594588.500888,
320,260,10,Memory,5,,,,,,,00822940307fa.jpg,Face,<,Face,,1.857,1.0,Novel,,,,,,1538593455.119179,1538593457.153027,
321,261,10,Memory,5,,,,,,,sunahqrxievfeusiqlt.jpg,Place,<,Face,,1.7380000000000002,1.0,Novel,,,,,,1538593458.420294,1538593460.40445,
322,262,10,Memory,5,,,,,,,sunalkiibhqpxfamlll.jpg,Place,<,Face,,1.821,1.0,Side,,,,,,1538593461.7885141,1538593463.771683,
323,263,10,Memory,5,,,,,,,sunbvzmgrdvaakxusbu.jpg,Place,<,Face,,0.9359999999999999,1.0,Novel,,,,,,1538593465.0233061,1538593467.006685,
324,264,10,Memory,5,,,,,,,00505960627fa.jpg,Face,<,Face,,1.454,1.0,Category,,,,,,1538593468.256911,1538593470.241037,
325,265,10,Memory,5,,,,,,,sunaletopenvvozhpxc.jpg,Place,<,Face,,1.136,1.0,None,,,,,,1538593471.625135,1538593473.608063,
326,266,10,Memory,5,,,,,,,00889960530fa.jpg,Face,<,Face,,0.603,1.0,Category,,,,,,1538593474.859975,1538593476.843226,
327,267,10,Memory,5,,,,,,,sunaffstbkappprzxnv.jpg,Place,<,Face,,1.003,1.0,Novel,,,,,,1538593478.227071,1538593480.2114131,
328,268,10,Memory,5,,,,,,,sunapqkyghktgtosuuk.jpg,Place,<,Face,,0.72,1.0,Novel,,,,,,1538593481.461272,1538593483.445303,
329,269,10,Memory,5,,,,,,,00771941205fa.jpg,Face,<,Face,,0.603,1.0,Full,,,,,,1538593484.746425,1538593486.729754,
330,270,10,Memory,5,,,,,,,sunaafgqutfaishsxyu.jpg,Place,<,Face,,0.736,1.0,None,,,,,,1538593487.996933,1538593489.980798,
331,271,10,Memory,5,,,,,,,sunahqldjibofgsfdgb.jpg,Place,<,Face,,0.57,1.0,Side,,,,,,1538593491.23187,1538593493.2148788,
332,272,10,Memory,5,,,,,,,sunanaacmmosxrfwmvl.jpg,Place,<,Face,,0.7190000000000001,1.0,Novel,,,,,,1538593494.465908,1538593496.449161,
333,273,10,Memory,5,,,,,,,00060931230fa.jpg,Face,<,Face,,1.137,3.0,Novel,,,,,,1538593497.700114,1538593499.6844,
334,274,10,Memory,5,,,,,,,00728941205fa.jpg,Face,<,Face,,1.07,2.0,Novel,,,,,,1538593500.950511,1538593502.934375,
335,275,10,Memory,5,,,,,,,sunaajuzribjrizdshh.jpg,Place,<,Face,,0.42100000000000004,1.0,Side,,,,,,1538593504.268517,1538593506.252572,
336,276,10,Memory,5,,,,,,,00662941121fa.jpg,Face,<,Face,,0.77,3.0,Category,,,,,,1538593507.51901,1538593509.504828,
337,277,10,Memory,5,,,,,,,00288940422fa.jpg,Face,<,Face,,1.1520000000000001,4.0,Full,,,,,,1538593510.755025,1538593512.738101,
338,278,10,Memory,5,,,,,,,00760960620fa.jpg,Face,<,Face,,1.454,1.0,Novel,,,,,,1538593513.988321,1538593515.972263,
339,279,10,Memory,5,,,,,,,sunaaehaikpckyjsety.jpg,Place,<,Face,,0.8540000000000001,1.0,Novel,,,,,,1538593517.222491,1538593519.206371,
340,280,10,Memory,5,,,,,,,sunabzuqsrgcsonqlkz.jpg,Place,<,Face,,0.62,1.0,None,,,,,,1538593520.458432,1538593522.440629,
341,281,10,Memory,5,,,,,,,00636941031fa.jpg,Face,<,Face,,0.0,,Novel,,,,,,1538593523.691753,1538593525.676013,
342,282,10,Memory,5,,,,,,,00891960530fa.jpg,Face,<,Face,,1.087,3.0,Full,,,,,,1538593526.9266472,1538593528.9097462,
343,283,10,Memory,5,,,,,,,00922960627fa.jpg,Face,<,Face,,0.636,3.0,Novel,,,,,,1538593530.160842,1538593532.143878,
344,284,10,Memory,5,,,,,,,sunaejnvnpltdmhbcsi.jpg,Place,<,Face,,0.45399999999999996,1.0,Novel,,,,,,1538593533.3950222,1538593535.379405,
345,285,10,Memory,5,,,,,,,sunabppokiyglaxpcha.jpg,Place,<,Face,,0.32,1.0,Side,,,,,,1538593536.7462552,1538593538.728704,
346,286,10,Memory,5,,,,,,,00819940307fa.jpg,Face,<,Face,,1.137,1.0,Full,,,,,,1538593539.980594,1538593541.964604,
347,287,10,Memory,5,,,,,,,00109931230fa.jpg,Face,<,Face,,1.421,2.0,Full,,,,,,1538593543.3477788,1538593545.331761,
348,288,10,Memory,5,,,,,,,sunafowswglhxcsufpo.jpg,Place,<,Face,,0.603,2.0,Side,,,,,,1538593546.598779,1538593548.582931,
349,289,10,Memory,5,,,,,,,sunaddtdkycxbqlpfqa.jpg,Place,<,Face,,0.387,1.0,Novel,,,,,,1538593549.8340821,1538593551.817998,
350,290,10,Memory,5,,,,,,,00631940928fa.jpg,Face,<,Face,,0.986,3.0,Novel,,,,,,1538593553.0680132,1538593555.052317,
351,291,10,Memory,5,,,,,,,00902960530fa.jpg,Face,<,Face,,0.953,3.0,Novel,,,,,,1538593556.302139,1538593558.286313,
352,292,10,Memory,5,,,,,,,00943960627fa.jpg,Face,<,Face,,1.219,1.0,Category,,,,,,1538593559.537293,1538593561.520918,
353,293,10,Memory,5,,,,,,,sunadkazmlajmohnwfl.jpg,Place,<,Face,,0.92,1.0,None,,,,,,1538593562.770776,1538593564.755757,
354,294,10,Memory,5,,,,,,,sunawksfbacycuhbrsc.jpg,Place,<,Face,,0.687,1.0,Novel,,,,,,1538593566.1396608,1538593568.123003,
355,295,10,Memory,5,,,,,,,01000960627fa.jpg,Face,<,Face,,0.904,1.0,Novel,,,,,,1538593569.40601,1538593571.3903198,
356,296,10,Memory,5,,,,,,,00960960627fa.jpg,Face,<,Face,,0.7709999999999999,1.0,Novel,,,,,,1538593572.641107,1538593574.625476,
357,297,10,Memory,5,,,,,,,sunarpsxqkduedrrzyi.jpg,Place,<,Face,,0.436,1.0,None,,,,,,1538593575.892122,1538593577.875232,
358,298,10,Memory,5,,,,,,,00077931230fb.jpg,Face,<,Face,,1.2209999999999999,1.0,Category,,,,,,1538593579.126443,1538593581.110843,
359,299,10,Memory,5,,,,,,,sunadbdqzigzwipuipr.jpg,Place,<,Face,,0.43700000000000006,1.0,Novel,,,,,,1538593582.360781,1538593584.344717,
360,210,10,Memory,4,,,,,,,sunabueyoajufbkraki.jpg,Place,>,Place,,1.587,1.0,Novel,,,,,,1538593124.129507,1538593126.197718,
361,211,10,Memory,4,,,,,,,00306940422fa.jpg,Face,>,Place,,0.9209999999999999,1.0,Novel,,,,,,1538593127.496923,1538593129.499003,
362,212,10,Memory,4,,,,,,,00122931230fa.jpg,Face,>,Place,,0.985,1.0,Novel,,,,,,1538593130.782241,1538593132.782012,
363,213,10,Memory,4,,,,,,,sunacvbrcejzwmcgnoq.jpg,Place,>,Place,,1.504,1.0,Novel,,,,,,1538593134.032455,1538593136.033241,
364,214,10,Memory,4,,,,,,,sunagmwxxwymwojbvgi.jpg,Place,>,Place,,1.186,4.0,Full,,,,,,1538593137.283753,1538593139.283492,
365,215,10,Memory,4,,,,,,,00787941205fa.jpg,Face,>,Place,,0.7190000000000001,1.0,Side,,,,,,1538593140.534681,1538593142.5356321,
366,216,10,Memory,4,,,,,,,00794960620fa.jpg,Face,>,Place,,1.1540000000000001,3.0,None,,,,,,1538593143.785841,1538593145.7870278,
367,217,10,Memory,4,,,,,,,sunauburywlkjszngcq.jpg,Place,>,Place,,1.419,1.0,Novel,,,,,,1538593147.053857,1538593149.0539482,
368,218,10,Memory,4,,,,,,,00984960627fa.jpg,Face,>,Place,,0.9540000000000001,1.0,Novel,,,,,,1538593150.3052711,1538593152.305302,
369,219,10,Memory,4,,,,,,,00316940422fa.jpg,Face,>,Place,,1.055,3.0,Novel,,,,,,1538593153.555127,1538593155.5564609,
370,220,10,Memory,4,,,,,,,sunadflbrkckmepztql.jpg,Place,>,Place,,1.4369999999999998,1.0,Novel,,,,,,1538593156.823628,1538593158.8235948,
371,221,10,Memory,4,,,,,,,00705960530fa.jpg,Face,>,Place,,0.7859999999999999,1.0,Novel,,,,,,1538593160.074801,1538593162.074743,
372,222,10,Memory,4,,,,,,,sunavxokzybtomhbmvm.jpg,Place,>,Place,,1.97,4.0,Category,,,,,,1538593163.3257449,1538593165.325882,
373,223,10,Memory,4,,,,,,,00929960627fa.jpg,Face,>,Place,,0.67,1.0,Side,,,,,,1538593166.693247,1538593168.693234,
374,224,10,Memory,4,,,,,,,00774941201fa.jpg,Face,>,Place,,0.92,3.0,Novel,,,,,,1538593169.9443,1538593171.944309,
375,225,10,Memory,4,,,,,,,sunacsaovnjezqwbykf.jpg,Place,>,Place,,1.754,4.0,Category,,,,,,1538593173.295391,1538593175.296498,
376,226,10,Memory,4,,,,,,,00638941031fa.jpg,Face,>,Place,,1.3530000000000002,1.0,Side,,,,,,1538593176.546374,1538593178.546712,
377,227,10,Memory,4,,,,,,,00124931230fa.jpg,Face,>,Place,,0.503,1.0,Novel,,,,,,1538593179.7985141,1538593181.798721,
378,228,10,Memory,4,,,,,,,00959960627fa.jpg,Face,>,Place,,0.57,1.0,None,,,,,,1538593183.181643,1538593185.1828039,
379,229,10,Memory,4,,,,,,,sunaduslxfzlbxlllnz.jpg,Place,>,Place,,1.837,2.0,Novel,,,,,,1538593186.449955,1538593188.449902,
380,230,10,Memory,4,,,,,,,sunaivdjruhkrfywfed.jpg,Place,>,Place,,1.7690000000000001,4.0,Full,,,,,,1538593189.701288,1538593191.701335,
381,231,10,Memory,4,,,,,,,sunaixpqndlwhwjtjek.jpg,Place,>,Place,,1.204,3.0,Category,,,,,,1538593193.068056,1538593195.069531,
382,232,10,Memory,4,,,,,,,sunaakxjfbrrequcjmx.jpg,Place,>,Place,,1.22,3.0,Novel,,,,,,1538593196.318776,1538593198.320439,
383,233,10,Memory,4,,,,,,,00847940307fa.jpg,Face,>,Place,,1.969,1.0,Side,,,,,,1538593199.687862,1538593201.687649,
384,234,10,Memory,4,,,,,,,00574940928fa.jpg,Face,>,Place,,0.67,1.0,Novel,,,,,,1538593202.938027,1538593204.939871,
385,235,10,Memory,4,,,,,,,sunaprnrbmgkomdbchr.jpg,Place,>,Place,,0.9359999999999999,3.0,Full,,,,,,1538593206.189895,1538593208.1893198,
386,236,10,Memory,4,,,,,,,00647941031fa.jpg,Face,>,Place,,0.603,1.0,Novel,,,,,,1538593209.557349,1538593211.557393,
387,237,10,Memory,4,,,,,,,00858940307fa.jpg,Face,>,Place,,0.486,1.0,None,,,,,,1538593212.807595,1538593214.809247,
388,238,10,Memory,4,,,,,,,sunafvtpfczkzopbgue.jpg,Place,>,Place,,0.8029999999999999,3.0,Novel,,,,,,1538593216.192391,1538593218.192465,
389,239,10,Memory,4,,,,,,,sunaavchcbptaerhcfy.jpg,Place,>,Place,,1.369,1.0,Category,,,,,,1538593219.5440538,1538593221.544066,
390,240,10,Memory,4,,,,,,,sunabxmguapjekttvwm.jpg,Place,>,Place,,0.7859999999999999,1.0,Novel,,,,,,1538593222.794808,1538593224.795941,
391,241,10,Memory,4,,,,,,,00804960530fa.jpg,Face,>,Place,,0.636,1.0,Side,,,,,,1538593226.1800141,1538593228.179106,
392,242,10,Memory,4,,,,,,,sunagwswhkvnsmuszlz.jpg,Place,>,Place,,0.7859999999999999,1.0,Full,,,,,,1538593229.431247,1538593231.430443,
393,243,10,Memory,4,,,,,,,00564941031fa.jpg,Face,>,Place,,0.502,1.0,None,,,,,,1538593232.814742,1538593234.815442,
394,244,10,Memory,4,,,,,,,00955960627fb.jpg,Face,>,Place,,0.603,1.0,Novel,,,,,,1538593236.198593,1538593238.199664,
395,245,10,Memory,4,,,,,,,sunagtqhhwxjeuxdebe.jpg,Place,>,Place,,1.07,3.0,Category,,,,,,1538593239.450809,1538593241.450676,
396,246,10,Memory,4,,,,,,,sunaalhlvzmjmitybdn.jpg,Place,>,Place,,0.987,1.0,Novel,,,,,,1538593242.701015,1538593244.701981,
397,247,10,Memory,4,,,,,,,00158931230fb.jpg,Face,>,Place,,0.57,1.0,None,,,,,,1538593245.969083,1538593247.969033,
398,248,10,Memory,4,,,,,,,sunbfzchmomnvzhbxdg.jpg,Place,>,Place,,1.138,1.0,Novel,,,,,,1538593249.219366,1538593251.2211778,
399,249,10,Memory,4,,,,,,,sunadfktsqjthoglcsm.jpg,Place,>,Place,,1.371,3.0,Full,,,,,,1538593252.470553,1538593254.471578,
0,150,13,Presentation,3,00276940422fa_sunabmytpyhsgigllxu.jpg,00763941205fa_sunafhmnhsdurlvddpw.jpg,00276940422fa.jpg,sunabmytpyhsgigllxu.jpg,00763941205fa.jpg,sunafhmnhsdurlvddpw.jpg,,,>,Place,0.3852829933166504,,,,0.0,,,3.0,,1539182673.63525,1539182677.002903,x
1,151,13,Presentation,3,00796941205fa_sunaguchqqnrtodtezq.jpg,00891960530fa_sunalkiibhqpxfamlll.jpg,00796941205fa.jpg,sunaguchqqnrtodtezq.jpg,00891960530fa.jpg,sunalkiibhqpxfamlll.jpg,,,>,Place,0.551184892654419,,,,1.0,,,3.0,,1539182678.769746,1539182682.15476,x
2,152,13,Presentation,3,00862940307fa_sunaizgnnplsvajzhkc.jpg,00876960620fa_sunajwqkfsykceonyig.jpg,00862940307fa.jpg,sunaizgnnplsvajzhkc.jpg,00876960620fa.jpg,sunajwqkfsykceonyig.jpg,,,>,Place,0.8173239231109619,,,,1.0,,,3.0,,1539182684.087891,1539182687.339207,o
3,153,13,Presentation,3,01002960627fb_sunbwaafjdebjzttuvq.jpg,00910960530fa_sunaofikylqtxphvdem.jpg,01002960627fb.jpg,sunbwaafjdebjzttuvq.jpg,00910960530fa.jpg,sunaofikylqtxphvdem.jpg,,,>,Place,1.2675631046295166,,,,1.0,,,1.0,,1539182689.5074348,1539182692.841408,x
4,154,13,Presentation,3,00894960620fa_sunalqmfgeadpqsyzpd.jpg,00752960620fa_sunafbwnojpqeyzssoe.jpg,00894960620fa.jpg,sunalqmfgeadpqsyzpd.jpg,00752960620fa.jpg,sunafbwnojpqeyzssoe.jpg,,,>,Place,0.8524580001831055,,,,1.0,,,1.0,,1539182695.4594882,1539182698.8261,x
5,155,13,Presentation,3,00809960620fa_sunahbvlpavurqoxdeq.jpg,00719941201fa_sunadvithllcgmfxsrn.jpg,00809960620fa.jpg,sunahbvlpavurqoxdeq.jpg,00719941201fa.jpg,sunadvithllcgmfxsrn.jpg,,,>,Place,0.7015359401702881,,,,1.0,,,1.0,,1539182701.144756,1539182704.528895,x
6,156,13,Presentation,3,00794960620fa_sunagtqhhwxjeuxdebe.jpg,00116931230fa_sunaakqepfoeqomfgxf.jpg,00794960620fa.jpg,sunagtqhhwxjeuxdebe.jpg,00116931230fa.jpg,sunaakqepfoeqomfgxf.jpg,,,>,Place,1.0178279876708984,,,,1.0,,,3.0,,1539182706.546056,1539182709.929875,o
7,157,13,Presentation,3,00859940307fa_sunaiycurtqsfkvcaso.jpg,00854940307fa_sunaiwduelojtwaqeyh.jpg,00859940307fa.jpg,sunaiycurtqsfkvcaso.jpg,00854940307fa.jpg,sunaiwduelojtwaqeyh.jpg,,,>,Place,0.699984073638916,,,,1.0,,,3.0,,1539182712.280628,1539182715.615018,o
8,158,13,Presentation,3,00864940307fa_sunajawzbrlrwafowen.jpg,00773941201fa_sunafvcflzhlqloapyo.jpg,00864940307fa.jpg,sunajawzbrlrwafowen.jpg,00773941201fa.jpg,sunafvcflzhlqloapyo.jpg,,,>,Place,1.5840160846710205,,,,1.0,,,1.0,,1539182717.665978,1539182720.950231,x
9,159,13,Presentation,3,01007960627fa_sunbxarcshsnqsefemx.jpg,00985960627fa_sunbgklxeqjhdbyfhhy.jpg,01007960627fa.jpg,sunbxarcshsnqsefemx.jpg,00985960627fa.jpg,sunbgklxeqjhdbyfhhy.jpg,,,>,Place,0.7517809867858887,,,,1.0,,,3.0,,1539182723.884016,1539182727.219501,o
10,100,13,Presentation,2,00973960627fa_sunbbgtoeuzierkkajt.jpg,00073931230fa_sunaafbmtoniaasysgu.jpg,00973960627fa.jpg,sunbbgtoeuzierkkajt.jpg,00073931230fa.jpg,sunaafbmtoniaasysgu.jpg,,,<,Face,0.6336319446563721,,,,1.0,,,1.0,,1539182322.255623,1539182325.656492,x
11,101,13,Presentation,2,00127931230fa_sunaampvucecsfbdafn.jpg,00966960627fa_sunaygrtwrwfezqjizr.jpg,00127931230fa.jpg,sunaampvucecsfbdafn.jpg,00966960627fa.jpg,sunaygrtwrwfezqjizr.jpg,,,<,Face,0.5686140060424805,,,,1.0,,,1.0,,1539182327.6905632,1539182331.092046,o
12,102,13,Presentation,2,00239940128fa_sunabctlikybqabezjv.jpg,00598941031fa_sunacxtcahkymosigud.jpg,00239940128fa.jpg,sunabctlikybqabezjv.jpg,00598941031fa.jpg,sunacxtcahkymosigud.jpg,,,<,Face,0.7194750308990479,,,,1.0,,,1.0,,1539182333.008248,1539182336.410536,o
13,103,13,Presentation,2,00681941121fa_sunadqmjrhfjyuzyvdd.jpg,00071941031fa_sunaaexqbtdswxrqjvz.jpg,00681941121fa.jpg,sunadqmjrhfjyuzyvdd.jpg,00071941031fa.jpg,sunaaexqbtdswxrqjvz.jpg,,,<,Face,0.5012331008911133,,,,1.0,,,1.0,,1539182338.426379,1539182341.777914,o
14,104,13,Presentation,2,00208940128fa_sunaazzyhbvqjpmazjq.jpg,00860940307fa_sunaizeyhvjzknwjudw.jpg,00208940128fa.jpg,sunaazzyhbvqjpmazjq.jpg,00860940307fa.jpg,sunaizeyhvjzknwjudw.jpg,,,<,Face,0.8016040325164795,,,,1.0,,,3.0,,1539182343.62817,1539182346.89639,o
15,105,13,Presentation,2,00877960530fa_sunajxpkuhbizeveguy.jpg,00194940128fb_sunaayehfdqcyxggsej.jpg,00877960530fa.jpg,sunajxpkuhbizeveguy.jpg,00194940128fb.jpg,sunaayehfdqcyxggsej.jpg,,,<,Face,0.9017219543457032,,,,1.0,,,1.0,,1539182349.0799491,1539182352.398042,x
16,106,13,Presentation,2,00483940519fa_sunabyvpwkgsjtijdwj.jpg,00131931230fb_sunaangbuylfvckqqoo.jpg,00483940519fa.jpg,sunabyvpwkgsjtijdwj.jpg,00131931230fb.jpg,sunaangbuylfvckqqoo.jpg,,,<,Face,0.835723876953125,,,,1.0,,,3.0,,1539182354.800026,1539182358.1339052,x
17,107,13,Presentation,2,00776941205fa_sunafxokyavhgptyfye.jpg,00741941201fa_sunaemcowdozyphwknd.jpg,00776941205fa.jpg,sunafxokyavhgptyfye.jpg,00741941201fa.jpg,sunaemcowdozyphwknd.jpg,,,<,Face,0.5843658447265625,,,,1.0,,,1.0,,1539182360.335182,1539182363.652258,x
18,108,13,Presentation,2,00829940307fa_sunahwgbqkqcrwprgvh.jpg,00866940307fa_sunajbwkywmsqkldfml.jpg,00829940307fa.jpg,sunahwgbqkqcrwprgvh.jpg,00866940307fa.jpg,sunajbwkywmsqkldfml.jpg,,,<,Face,0.6354269981384277,,,,1.0,,,1.0,,1539182365.619726,1539182368.986675,x
19,109,13,Presentation,2,00505960627fa_sunabzuqsrgcsonqlkz.jpg,00935960627fa_sunaqbmgkgqucajzrkp.jpg,00505960627fa.jpg,sunabzuqsrgcsonqlkz.jpg,00935960627fa.jpg,sunaqbmgkgqucajzrkp.jpg,,,<,Face,0.4176061153411865,,,,1.0,,,3.0,,1539182370.9209518,1539182374.322108,o
20,0,13,Presentation,0,00944960627fa_sunasbbntuiheekqyaq.jpg,00939960627fa_sunarceibpcyacbmfga.jpg,00944960627fa.jpg,sunasbbntuiheekqyaq.jpg,00939960627fa.jpg,sunarceibpcyacbmfga.jpg,,,>,Face,0.6681511402130127,,,,1.0,,,3.0,,1539181592.020151,1539181595.4386618,o
21,1,13,Presentation,0,00950960627fa_sunasrjlmglmjzbmqxb.jpg,00598940928fa_sunacxeheuiigkcgquf.jpg,00950960627fa.jpg,sunasrjlmglmjzbmqxb.jpg,00598940928fa.jpg,sunacxeheuiigkcgquf.jpg,,,>,Face,0.8160991668701172,,,,0.0,,,3.0,,1539181597.455112,1539181600.823452,o
22,2,13,Presentation,0,00963960627fa_sunayaepykrqvenaqqy.jpg,00905960530fa_sunanmoqeyprjjjfxjt.jpg,00963960627fa.jpg,sunayaepykrqvenaqqy.jpg,00905960530fa.jpg,sunanmoqeyprjjjfxjt.jpg,,,>,Face,0.4507181644439697,,,,1.0,,,3.0,,1539181602.9901311,1539181606.2922618,o
23,3,13,Presentation,0,00730960620fa_sunaekgzpfilgjxpeyq.jpg,00119931230fb_sunaakvmbftkrgqhjun.jpg,00730960620fa.jpg,sunaekgzpfilgjxpeyq.jpg,00119931230fb.jpg,sunaakvmbftkrgqhjun.jpg,,,>,Face,0.3832898139953613,,,,1.0,,,3.0,,1539181608.159035,1539181611.4757779,o
24,4,13,Presentation,0,00779941205fa_sunagdzlvkqtpnfxfcg.jpg,00296940422fa_sunabrwnslxalcohfre.jpg,00779941205fa.jpg,sunagdzlvkqtpnfxfcg.jpg,00296940422fa.jpg,sunabrwnslxalcohfre.jpg,,,>,Face,0.31836509704589844,,,,1.0,,,3.0,,1539181613.176725,1539181616.528556,x
25,5,13,Presentation,0,00288940422fa_sunabppokiyglaxpcha.jpg,00804960530fa_sunagwswhkvnsmuszlz.jpg,00288940422fa.jpg,sunabppokiyglaxpcha.jpg,00804960530fa.jpg,sunagwswhkvnsmuszlz.jpg,,,>,Face,0.7838339805603027,,,,0.0,,,3.0,,1539181618.244447,1539181621.5458632,o
26,6,13,Presentation,0,00977960627fa_sunbbxkanhzjgbwyxqs.jpg,00997960627fa_sunbtpilbhhbmhmeuzq.jpg,00977960627fa.jpg,sunbbxkanhzjgbwyxqs.jpg,00997960627fa.jpg,sunbtpilbhhbmhmeuzq.jpg,,,>,Face,0.4997160434722901,,,,1.0,,,1.0,,1539181623.680064,1539181627.032717,x
27,7,13,Presentation,0,00772941201fa_sunafpfpiiujzoesnqg.jpg,00543940519fa_sunacepzfrmtkiqonpy.jpg,00772941201fa.jpg,sunafpfpiiujzoesnqg.jpg,00543940519fa.jpg,sunacepzfrmtkiqonpy.jpg,,,>,Face,0.8355469703674316,,,,1.0,,,1.0,,1539181628.915516,1539181632.18275,x
28,8,13,Presentation,0,00795941205fa_sunagtumacdlmciqamz.jpg,00816941205fa_sunahmhrncocyhsjpxk.jpg,00795941205fa.jpg,sunagtumacdlmciqamz.jpg,00816941205fa.jpg,sunahmhrncocyhsjpxk.jpg,,,>,Face,0.6668288707733154,,,,1.0,,,1.0,,1539181634.417512,1539181637.6674528,x
29,9,13,Presentation,0,00076931230fa_sunaafewhewbxmjiurz.jpg,00902960530fa_sunanaacmmosxrfwmvl.jpg,00076931230fa.jpg,sunaafewhewbxmjiurz.jpg,00902960530fa.jpg,sunanaacmmosxrfwmvl.jpg,,,>,Face,0.7334780693054199,,,,1.0,,,3.0,,1539181639.686204,1539181643.036543,o
30,50,13,Presentation,1,00996960627fa_sunbpvgllfdejxcpjqp.jpg,00969960627fa_sunbaoizrfijvhpnnjn.jpg,00996960627fa.jpg,sunbpvgllfdejxcpjqp.jpg,00969960627fa.jpg,sunbaoizrfijvhpnnjn.jpg,,,>,Place,0.9345099925994872,,,,1.0,,,1.0,,1539181915.925303,1539181919.2931712,x
31,51,13,Presentation,1,00554940519fa_sunacfdkbsrughwqwtt.jpg,00792941205fa_sunagsiwrmuixqgdimb.jpg,00554940519fa.jpg,sunacfdkbsrughwqwtt.jpg,00792941205fa.jpg,sunagsiwrmuixqgdimb.jpg,,,>,Place,0.7183909416198729,,,,0.0,,,1.0,,1539181921.593622,1539181924.87753,x
32,52,13,Presentation,1,00149931230fa_sunaauglwmctnkxyird.jpg,00785941205fa_sunaglqunwuycxydmyu.jpg,00149931230fa.jpg,sunaauglwmctnkxyird.jpg,00785941205fa.jpg,sunaglqunwuycxydmyu.jpg,,,>,Place,0.7516241073608398,,,,1.0,,,3.0,,1539181927.110897,1539181930.445959,o
33,53,13,Presentation,1,00771941205fa_sunafowswglhxcsufpo.jpg,00235940128fb_sunabclssnoeuigtawp.jpg,00771941205fa.jpg,sunafowswglhxcsufpo.jpg,00235940128fb.jpg,sunabclssnoeuigtawp.jpg,,,>,Place,0.7682130336761475,,,,1.0,,,3.0,,1539181932.647024,1539181935.9310539,o
34,54,13,Presentation,1,00778941205fa_sunagcthdfirrcawoic.jpg,00753941201fa_sunafcofuuzebuadceo.jpg,00778941205fa.jpg,sunagcthdfirrcawoic.jpg,00753941201fa.jpg,sunafcofuuzebuadceo.jpg,,,>,Place,0.7348968982696533,,,,1.0,,,3.0,,1539181938.064516,1539181941.299419,o
35,55,13,Presentation,1,00768941205fa_sunafkmnlytenlsywia.jpg,00314940422fa_sunabwmcbaxwioksdgw.jpg,00768941205fa.jpg,sunafkmnlytenlsywia.jpg,00314940422fa.jpg,sunabwmcbaxwioksdgw.jpg,,,>,Place,0.7013909816741943,,,,0.0,,,1.0,,1539181943.382912,1539181946.684043,x
36,56,13,Presentation,1,00210940128fb_sunabanoxjtqxamkucc.jpg,00986960627fa_sunbgzjryivyczuvkvm.jpg,00210940128fb.jpg,sunabanoxjtqxamkucc.jpg,00986960627fa.jpg,sunbgzjryivyczuvkvm.jpg,,,>,Place,1.0170619487762451,,,,1.0,,,1.0,,1539181948.801649,1539181952.13595,x
37,57,13,Presentation,1,00634940928fa_sunadcphrizvfpljiqt.jpg,00999960627fa_sunbvbrvgbpanfrawft.jpg,00634940928fa.jpg,sunadcphrizvfpljiqt.jpg,00999960627fa.jpg,sunbvbrvgbpanfrawft.jpg,,,>,Place,0.666126012802124,,,,1.0,,,3.0,,1539181954.5198169,1539181957.8544679,o
38,58,13,Presentation,1,00102931230fa_sunaajspcoepticvplv.jpg,00825940307fa_sunahrltmuwbiehihpe.jpg,00102931230fa.jpg,sunaajspcoepticvplv.jpg,00825940307fa.jpg,sunahrltmuwbiehihpe.jpg,,,>,Place,0.6680557727813721,,,,1.0,,,1.0,,1539181959.821478,1539181963.255776,x
39,59,13,Presentation,1,00123931230fb_sunaalcrrdbjgdztbiz.jpg,00762941201fa_sunafgzgbisbopcyslr.jpg,00123931230fb.jpg,sunaalcrrdbjgdztbiz.jpg,00762941201fa.jpg,sunafgzgbisbopcyslr.jpg,,,>,Place,0.6190309524536133,,,,1.0,,,3.0,,1539181965.241075,1539181968.507792,o
40,250,13,Presentation,5,00805941205fa_sunagwzdbtlixdhgolm.jpg,00807941205fa_sunahawfngukizslzsd.jpg,00805941205fa.jpg,sunagwzdbtlixdhgolm.jpg,00807941205fa.jpg,sunahawfngukizslzsd.jpg,,,<,Place,0.9177279472351074,,,,1.0,,,3.0,,1539183362.90779,1539183366.2916481,o
41,251,13,Presentation,5,00265940128fb_sunabkmdplkdbvxriff.jpg,00647941031fa_sunadflbrkckmepztql.jpg,00265940128fb.jpg,sunabkmdplkdbvxriff.jpg,00647941031fa.jpg,sunadflbrkckmepztql.jpg,,,<,Place,0.7182049751281738,,,,1.0,,,3.0,,1539183368.5926552,1539183371.894042,o
42,252,13,Presentation,5,00847940307fa_sunaivdjruhkrfywfed.jpg,00747941201fa_sunaeutbrtswvsozxyk.jpg,00847940307fa.jpg,sunaivdjruhkrfywfed.jpg,00747941201fa.jpg,sunaeutbrtswvsozxyk.jpg,,,<,Place,0.6012461185455322,,,,1.0,,,1.0,,1539183373.993561,1539183377.2617009,x
43,253,13,Presentation,5,00532960627fa_sunaccdtpgenvcbcbcf.jpg,00061931230fb_sunaaekxzjzrfgtkwjf.jpg,00532960627fa.jpg,sunaccdtpgenvcbcbcf.jpg,00061931230fb.jpg,sunaaekxzjzrfgtkwjf.jpg,,,<,Place,1.0515320301055908,,,,0.0,,,3.0,,1539183379.212348,1539183382.5136552,o
44,254,13,Presentation,5,00097931230fa_sunaajayojuslbbnneg.jpg,00479940519fa_sunabxsbfwjccqxxzxq.jpg,00097931230fa.jpg,sunaajayojuslbbnneg.jpg,00479940519fa.jpg,sunabxsbfwjccqxxzxq.jpg,,,<,Place,1.0502729415893557,,,,1.0,,,1.0,,1539183384.931211,1539183388.198139,o
45,255,13,Presentation,5,00728941205fa_sunaejnvnpltdmhbcsi.jpg,00901960530fa_sunammbnoambmhdxdwd.jpg,00728941205fa.jpg,sunaejnvnpltdmhbcsi.jpg,00901960530fa.jpg,sunammbnoambmhdxdwd.jpg,,,<,Place,0.7693800926208496,,,,1.0,,,1.0,,1539183390.650268,1539183393.933519,x
46,256,13,Presentation,5,00976960627fa_sunbbhqyyzmsxhsbjmp.jpg,00775941205fa_sunafvwfsmqkjrutjta.jpg,00976960627fa.jpg,sunbbhqyyzmsxhsbjmp.jpg,00775941205fa.jpg,sunafvwfsmqkjrutjta.jpg,,,<,Place,0.6850190162658691,,,,1.0,,,3.0,,1539183396.0012221,1539183399.4349,o
47,257,13,Presentation,5,00098931230fa_sunaajpqmulidejvjsr.jpg,00262940128fa_sunabizydfotqddlnjp.jpg,00098931230fa.jpg,sunaajpqmulidejvjsr.jpg,00262940128fa.jpg,sunabizydfotqddlnjp.jpg,,,<,Place,0.8348891735076904,,,,1.0,,,1.0,,1539183401.519941,1539183404.88801,x
48,258,13,Presentation,5,00801941205fa_sunagvprlbprarvgdvj.jpg,00811960530fa_sunahedfrhtcwpneund.jpg,00801941205fa.jpg,sunagvprlbprarvgdvj.jpg,00811960530fa.jpg,sunahedfrhtcwpneund.jpg,,,<,Place,0.6191859245300293,,,,1.0,,,3.0,,1539183407.054342,1539183410.356075,o
49,259,13,Presentation,5,00700941121fa_sunadsgmtznewzyasnk.jpg,00096931230fa_sunaaiqiqcggrskoqgy.jpg,00700941121fa.jpg,sunadsgmtznewzyasnk.jpg,00096931230fa.jpg,sunaaiqiqcggrskoqgy.jpg,,,<,Place,0.7341651916503906,,,,1.0,,,3.0,,1539183412.389833,1539183415.741453,o
50,200,13,Presentation,4,00242940128fa_sunabcuurugvxwparpk.jpg,00214940128fa_sunabbafjowbzcvbucc.jpg,00242940128fa.jpg,sunabcuurugvxwparpk.jpg,00214940128fa.jpg,sunabbafjowbzcvbucc.jpg,,,<,Face,1.0182809829711914,,,,1.0,,,3.0,,1539183028.800272,1539183032.1672509,o
51,201,13,Presentation,4,00931960627fa_sunaptrqvaooxfvktvw.jpg,00787960620fa_sunagoufulkpsxrmklt.jpg,00931960627fa.jpg,sunaptrqvaooxfvktvw.jpg,00787960620fa.jpg,sunagoufulkpsxrmklt.jpg,,,<,Face,1.1663930416107178,,,,1.0,,,3.0,,1539183034.518386,1539183037.869726,o
52,202,13,Presentation,4,00095931230fa_sunaahzooisqkwlxwoz.jpg,00878960530fa_sunakgbnzxmfohgehnu.jpg,00095931230fa.jpg,sunaahzooisqkwlxwoz.jpg,00878960530fa.jpg,sunakgbnzxmfohgehnu.jpg,,,<,Face,0.6868610382080078,,,,1.0,,,1.0,,1539183040.4205642,1539183043.737124,x
53,203,13,Presentation,4,00887960530_sunalcrtwiycqobgelp.jpg,00787941205fa_sunagmwxxwymwojbvgi.jpg,00887960530.jpg,sunalcrtwiycqobgelp.jpg,00787941205fa.jpg,sunagmwxxwymwojbvgi.jpg,,,<,Face,0.8683838844299316,,,,1.0,,,1.0,,1539183045.822035,1539183049.155857,x
54,204,13,Presentation,4,00921960627fa_sunapqkpqdfvxlbqwyo.jpg,00481940519fa_sunabxsuqbleluwczoy.jpg,00921960627fa.jpg,sunapqkpqdfvxlbqwyo.jpg,00481940519fa.jpg,sunabxsuqbleluwczoy.jpg,,,<,Face,0.7010259628295898,,,,1.0,,,3.0,,1539183051.389191,1539183054.774498,o
55,205,13,Presentation,4,00280940422fb_sunabohxbskznglnrhv.jpg,00065931230fb_sunaaemixhfquhnxxlm.jpg,00280940422fb.jpg,sunabohxbskznglnrhv.jpg,00065931230fb.jpg,sunaaemixhfquhnxxlm.jpg,,,<,Face,0.7960309982299805,,,,1.0,,,1.0,,1539183056.8422859,1539183060.125885,x
56,206,13,Presentation,4,00507940519fa_sunacacflqoyxhsqzhe.jpg,00828940307fa_sunahuynahneraqftyz.jpg,00507940519fa.jpg,sunacacflqoyxhsqzhe.jpg,00828940307fa.jpg,sunahuynahneraqftyz.jpg,,,<,Face,0.7351689338684082,,,,1.0,,,1.0,,1539183062.3438618,1539183065.662093,x
57,207,13,Presentation,4,00559940519fa_sunacjkmnpawfzbyvae.jpg,00124931230fa_sunaalhlvzmjmitybdn.jpg,00559940519fa.jpg,sunacjkmnpawfzbyvae.jpg,00124931230fa.jpg,sunaalhlvzmjmitybdn.jpg,,,<,Face,0.7024459838867188,,,,1.0,,,1.0,,1539183067.745009,1539183071.0802472,x
58,208,13,Presentation,4,00743941201fa_sunaeoghzrjarigmwua.jpg,00983960627fa_sunbfyvfqiimvdaxlqn.jpg,00743941201fa.jpg,sunaeoghzrjarigmwua.jpg,00983960627fa.jpg,sunbfyvfqiimvdaxlqn.jpg,,,<,Face,0.9164340496063232,,,,1.0,,,1.0,,1539183073.246533,1539183076.598882,x
59,209,13,Presentation,4,00908960530fa_sunanwjjyqqwzqrqagd.jpg,00789960620fa_sunagpancjmxqfazssf.jpg,00908960530fa.jpg,sunanwjjyqqwzqrqagd.jpg,00789960620fa.jpg,sunagpancjmxqfazssf.jpg,,,<,Face,1.4013209342956543,,,,1.0,,,3.0,,1539183078.948414,1539183082.2664142,o
60,300,13,Presentation,6,00154931230fa_sunaauueuhhvklldjik.jpg,00723941201fa_sunaedtgwjvvziytspa.jpg,00154931230fa.jpg,sunaauueuhhvklldjik.jpg,00723941201fa.jpg,sunaedtgwjvvziytspa.jpg,,,>,Face,0.8176298141479492,,,,1.0,,,3.0,,1539183659.885937,1539183663.2043948,o
61,301,13,Presentation,6,00086931230fa_sunaafynehyrzpsoaml.jpg,00620940928fa_sunacypmnujalygkunp.jpg,00086931230fa.jpg,sunaafynehyrzpsoaml.jpg,00620940928fa.jpg,sunacypmnujalygkunp.jpg,,,>,Face,0.8673279285430908,,,,1.0,,,1.0,,1539183665.405787,1539183668.704926,x
62,302,13,Presentation,6,00750941201fa_sunaeuzwggvibufclwf.jpg,00884960530fa_sunakodkcslgqhqlgwl.jpg,00750941201fa.jpg,sunaeuzwggvibufclwf.jpg,00884960530fa.jpg,sunakodkcslgqhqlgwl.jpg,,,>,Face,0.7521419525146484,,,,0.0,,,1.0,,1539183670.906884,1539183674.124194,x
63,303,13,Presentation,6,00185940422fb_sunaawqdbpihmlbwyyn.jpg,00638941031fa_sunadfktsqjthoglcsm.jpg,00185940422fb.jpg,sunaawqdbpihmlbwyyn.jpg,00638941031fa.jpg,sunadfktsqjthoglcsm.jpg,,,>,Face,0.7178390026092529,,,,1.0,,,3.0,,1539183676.2258859,1539183679.408463,o
64,304,13,Presentation,6,00270940422fb_sunabllobxadqcyttej.jpg,00919960620fa_sunapmfmzadmosuogaz.jpg,00270940422fb.jpg,sunabllobxadqcyttej.jpg,00919960620fa.jpg,sunapmfmzadmosuogaz.jpg,,,>,Face,0.8662781715393066,,,,1.0,,,1.0,,1539183681.460502,1539183684.762369,x
65,305,13,Presentation,6,00968960627fa_sunbagfpovqwbuexqdn.jpg,00838940307fa_sunaiozxhxgtfrmoagh.jpg,00968960627fa.jpg,sunbagfpovqwbuexqdn.jpg,00838940307fa.jpg,sunaiozxhxgtfrmoagh.jpg,,,>,Face,1.1856341361999512,,,,1.0,,,3.0,,1539183686.961761,1539183690.2298038,o
66,306,13,Presentation,6,00633940928fa_sunadbhmrgrrpyzglxs.jpg,00136931230fb_sunaanptmsknhirrzed.jpg,00633940928fa.jpg,sunadbhmrgrrpyzglxs.jpg,00136931230fb.jpg,sunaanptmsknhirrzed.jpg,,,>,Face,0.6355171203613281,,,,1.0,,,3.0,,1539183692.79689,1539183696.147595,o
67,307,13,Presentation,6,00947960627fa_sunasmmcxdddtmtazwx.jpg,00162931230fb_sunaavjinpnkappuonm.jpg,00947960627fa.jpg,sunasmmcxdddtmtazwx.jpg,00162931230fb.jpg,sunaavjinpnkappuonm.jpg,,,>,Face,0.6015119552612305,,,,1.0,,,3.0,,1539183698.115203,1539183701.384506,o
68,308,13,Presentation,6,00982960627fa_sunbesrwkdsffeogeqq.jpg,00870940307fa_sunajrgtewnualfcerj.jpg,00982960627fa.jpg,sunbesrwkdsffeogeqq.jpg,00870940307fa.jpg,sunajrgtewnualfcerj.jpg,,,>,Face,0.5855879783630371,,,,0.0,,,1.0,,1539183703.450311,1539183706.818608,x
69,309,13,Presentation,6,00111931230fb_sunaakgekhjklxmvulj.jpg,00868960307fa_sunajjxttslobudoqbv.jpg,00111931230fb.jpg,sunaakgekhjklxmvulj.jpg,00868960307fa.jpg,sunajjxttslobudoqbv.jpg,,,>,Face,0.7175569534301758,,,,1.0,,,1.0,,1539183708.751877,1539183712.1196911,x
70,350,13,Presentation,7,00810941205fa_sunahctntqrunhdxhtb.jpg,00060931230fa_sunaaehaikpckyjsety.jpg,00810941205fa.jpg,sunahctntqrunhdxhtb.jpg,00060931230fa.jpg,sunaaehaikpckyjsety.jpg,,,<,Place,0.7188031673431396,,,,1.0,,,1.0,,1539183996.595829,1539184000.030478,x
71,351,13,Presentation,7,00266940128fb_sunabkngeblodihjvbk.jpg,00158931230fb_sunaavchcbptaerhcfy.jpg,00266940128fb.jpg,sunabkngeblodihjvbk.jpg,00158931230fb.jpg,sunaavchcbptaerhcfy.jpg,,,<,Place,0.7672119140625,,,,1.0,,,3.0,,1539184002.1641471,1539184005.4815972,o
72,352,13,Presentation,7,00675941121fa_sunadoxcchtmsxewsau.jpg,00990960627fa_sunbpflsdaxnddnwcqi.jpg,00675941121fa.jpg,sunadoxcchtmsxewsau.jpg,00990960627fa.jpg,sunbpflsdaxnddnwcqi.jpg,,,<,Place,0.685168981552124,,,,1.0,,,1.0,,1539184007.5812962,1539184010.933023,x
73,353,13,Presentation,7,01004960627fa_sunbwtlihsuptkrckid.jpg,00676941121fa_sunadpnqovzckyikrjo.jpg,01004960627fa.jpg,sunbwtlihsuptkrckid.jpg,00676941121fa.jpg,sunadpnqovzckyikrjo.jpg,,,<,Place,0.7179999351501465,,,,1.0,,,3.0,,1539184013.001059,1539184016.3015099,o
74,354,13,Presentation,7,00822940307fa_sunahqrxievfeusiqlt.jpg,00609940928fa_sunacycdoztxoluxjyk.jpg,00822940307fa.jpg,sunahqrxievfeusiqlt.jpg,00609940928fa.jpg,sunacycdoztxoluxjyk.jpg,,,<,Place,0.4518260955810547,,,,1.0,,,1.0,,1539184018.351474,1539184021.686455,x
75,355,13,Presentation,7,00163931230fb_sunaavodbcpygkggnfp.jpg,00109931230fa_sunaajuzribjrizdshh.jpg,00163931230fb.jpg,sunaavodbcpygkggnfp.jpg,00109931230fa.jpg,sunaajuzribjrizdshh.jpg,,,<,Place,0.41755080223083496,,,,1.0,,,1.0,,1539184023.469858,1539184026.788311,x
76,356,13,Presentation,7,00751960620fa_sunaezuszgtxnmsxdbk.jpg,00147931230fb_sunaatpkocdkocwxpkb.jpg,00751960620fa.jpg,sunaezuszgtxnmsxdbk.jpg,00147931230fb.jpg,sunaatpkocdkocwxpkb.jpg,,,<,Place,0.7842819690704346,,,,1.0,,,1.0,,1539184028.622027,1539184031.956934,o
77,357,13,Presentation,7,00082931230fa_sunaafvitpexrpvumsa.jpg,00971960627fa_sunbbegcweqnetpdlrh.jpg,00082931230fa.jpg,sunaafvitpexrpvumsa.jpg,00971960627fa.jpg,sunbbegcweqnetpdlrh.jpg,,,<,Place,0.6679830551147461,,,,1.0,,,3.0,,1539184034.1902769,1539184037.4919288,o
78,358,13,Presentation,7,00557940519fa_sunachtuarilwyqnvjx.jpg,00766960620fa_sunafijbgncijwykrnl.jpg,00557940519fa.jpg,sunachtuarilwyqnvjx.jpg,00766960620fa.jpg,sunafijbgncijwykrnl.jpg,,,<,Place,0.9173698425292968,,,,1.0,,,1.0,,1539184039.575138,1539184042.9102368,x
79,359,13,Presentation,7,00081941031fa_sunaaftlyfudyzuhqzf.jpg,00133931230fa_sunaanlwnpqndclffxt.jpg,00081941031fa.jpg,sunaaftlyfudyzuhqzf.jpg,00133931230fa.jpg,sunaanlwnpqndclffxt.jpg,,,<,Place,0.6520631313323975,,,,1.0,,,1.0,,1539184045.1608882,1539184048.511914,x
80,10,13,Memory,0,,,,,,,00869940307fa.jpg,Face,>,Face,,0.0,,Novel,,,,,,1539181651.839615,1539181654.340651,
81,11,13,Memory,0,,,,,,,sundbixjudsgeuuehrn.jpg,Place,>,Face,,0.0,,Novel,,,,,,1539181655.757673,1539181658.325071,
82,12,13,Memory,0,,,,,,,sunahmhrncocyhsjpxk.jpg,Place,>,Face,,2.0869999999999997,2.0,None,,,,,,1539181659.725828,1539181662.160508,
83,13,13,Memory,0,,,,,,,00977960627fa.jpg,Face,>,Face,,1.505,1.0,Full,,,,,,1539181663.576414,1539181665.944553,
84,14,13,Memory,0,,,,,,,00939960627fa.jpg,Face,>,Face,,0.7859999999999999,1.0,Category,,,,,,1539181667.394712,1539181669.778666,
85,15,13,Memory,0,,,,,,,00193940928fa.jpg,Face,>,Face,,1.8030000000000002,2.0,Novel,,,,,,1539181671.194941,1539181673.628926,
86,16,13,Memory,0,,,,,,,00970960627fa.jpg,Face,>,Face,,0.852,1.0,Novel,,,,,,1539181675.047883,1539181677.497479,
87,17,13,Memory,0,,,,,,,sunarceibpcyacbmfga.jpg,Place,>,Face,,1.87,4.0,None,,,,,,1539181678.864274,1539181681.3493369,
88,18,13,Memory,0,,,,,,,sunaaxjpzcnxligjtjq.jpg,Place,>,Face,,1.9040000000000001,1.0,Novel,,,,,,1539181682.764776,1539181685.250308,
89,19,13,Memory,0,,,,,,,00902960530fa.jpg,Face,>,Face,,1.37,4.0,Category,,,,,,1539181686.6842132,1539181689.05159,
90,20,13,Memory,0,,,,,,,00730960620fa.jpg,Face,>,Face,,1.186,1.0,Full,,,,,,1539181690.402306,1539181692.835068,
91,21,13,Memory,0,,,,,,,sunadochqcucscehsgk.jpg,Place,>,Face,,1.304,4.0,Novel,,,,,,1539181694.336936,1539181696.687109,
92,22,13,Memory,0,,,,,,,00772941201fa.jpg,Face,>,Face,,1.156,2.0,Full,,,,,,1539181698.220998,1539181700.505198,
93,23,13,Memory,0,,,,,,,sunaakvmbftkrgqhjun.jpg,Place,>,Face,,1.635,1.0,None,,,,,,1539181701.939327,1539181704.390316,
94,24,13,Memory,0,,,,,,,00589940928fa.jpg,Face,>,Face,,0.0,,Novel,,,,,,1539181705.824051,1539181708.1405962,
95,25,13,Memory,0,,,,,,,sunbbxkanhzjgbwyxqs.jpg,Place,>,Face,,1.139,3.0,Side,,,,,,1539181709.60838,1539181712.259157,
96,26,13,Memory,0,,,,,,,00184940128fa.jpg,Face,>,Face,,0.872,4.0,Novel,,,,,,1539181713.692468,1539181716.177622,
97,27,13,Memory,0,,,,,,,00898960530fa.jpg,Face,>,Face,,1.104,1.0,Novel,,,,,,1539181717.727071,1539181720.112034,
98,28,13,Memory,0,,,,,,,sunaavtbadenwnzeutj.jpg,Place,>,Face,,2.003,2.0,Novel,,,,,,1539181721.496451,1539181723.9462821,
99,29,13,Memory,0,,,,,,,sunanaacmmosxrfwmvl.jpg,Place,>,Face,,1.62,2.0,None,,,,,,1539181725.314143,1539181727.6968212,
100,30,13,Memory,0,,,,,,,sunajoveqhiprwqgoco.jpg,Place,>,Face,,0.851,1.0,Novel,,,,,,1539181729.063911,1539181731.41496,
101,31,13,Memory,0,,,,,,,sunafpfpiiujzoesnqg.jpg,Place,>,Face,,1.8530000000000002,3.0,Side,,,,,,1539181732.798095,1539181735.199517,
102,32,13,Memory,0,,,,,,,sunacwggadqsfpovdjv.jpg,Place,>,Face,,0.986,1.0,Novel,,,,,,1539181736.6337051,1539181738.984246,
103,33,13,Memory,0,,,,,,,00719960620fa.jpg,Face,>,Face,,0.804,4.0,Novel,,,,,,1539181740.384876,1539181742.734913,
104,34,13,Memory,0,,,,,,,sunaekgzpfilgjxpeyq.jpg,Place,>,Face,,1.2670000000000001,4.0,Side,,,,,,1539181744.168835,1539181746.602829,
105,35,13,Memory,0,,,,,,,00816941205fa.jpg,Face,>,Face,,0.8029999999999999,4.0,Category,,,,,,1539181747.987325,1539181750.388545,
106,36,13,Memory,0,,,,,,,sunbtpilbhhbmhmeuzq.jpg,Place,>,Face,,0.902,1.0,None,,,,,,1539181751.737451,1539181754.155947,
107,37,13,Memory,0,,,,,,,sunamkmeblgteyggink.jpg,Place,>,Face,,2.036,3.0,Novel,,,,,,1539181755.623874,1539181757.957211,
108,38,13,Memory,0,,,,,,,00997960627fa.jpg,Face,>,Face,,0.953,1.0,Category,,,,,,1539181759.3581471,1539181761.807774,
109,39,13,Memory,0,,,,,,,sunadzuvtmtmgupotmf.jpg,Place,>,Face,,1.204,1.0,Novel,,,,,,1539181763.241653,1539181765.6090698,
110,40,13,Memory,0,,,,,,,sunagdzlvkqtpnfxfcg.jpg,Place,>,Face,,0.87,1.0,Side,,,,,,1539181767.009891,1539181769.44454,
111,41,13,Memory,0,,,,,,,00119931230fb.jpg,Face,>,Face,,1.421,3.0,Category,,,,,,1539181770.929216,1539181773.4120882,
112,42,13,Memory,0,,,,,,,00777941205fa.jpg,Face,>,Face,,1.3330000000000002,3.0,Novel,,,,,,1539181774.8137028,1539181777.230119,
113,43,13,Memory,0,,,,,,,sunaafewhewbxmjiurz.jpg,Place,>,Face,,0.953,4.0,Side,,,,,,1539181778.696898,1539181781.197429,
114,44,13,Memory,0,,,,,,,sunagcinxkccdtrjmlv.jpg,Place,>,Face,,1.952,3.0,Novel,,,,,,1539181782.614616,1539181785.18179,
115,45,13,Memory,0,,,,,,,00670941121fa.jpg,Face,>,Face,,0.937,1.0,Novel,,,,,,1539181786.5666971,1539181788.94878,
116,46,13,Memory,0,,,,,,,01207940128fa.jpg,Face,>,Face,,2.07,3.0,Novel,,,,,,1539181790.334707,1539181792.717843,
117,47,13,Memory,0,,,,,,,00779941205fa.jpg,Face,>,Face,,1.42,2.0,Full,,,,,,1539181794.219006,1539181796.837464,
118,48,13,Memory,0,,,,,,,sunbasypfgzjtomktmu.jpg,Place,>,Face,,1.855,3.0,Novel,,,,,,1539181798.40327,1539181800.954309,
119,49,13,Memory,0,,,,,,,00076931230fa.jpg,Face,>,Face,,0.821,4.0,Full,,,,,,1539181802.287517,1539181804.689526,
120,60,13,Memory,1,,,,,,,00662941121fa.jpg,Face,>,Place,,2.056,1.0,Novel,,,,,,1539181973.9420462,1539181976.443567,
121,61,13,Memory,1,,,,,,,00889960530fa.jpg,Face,>,Place,,2.404,2.0,Novel,,,,,,1539181977.943665,1539181980.4117699,
122,62,13,Memory,1,,,,,,,sunbvbrvgbpanfrawft.jpg,Place,>,Place,,1.536,1.0,Category,,,,,,1539181981.878553,1539181984.2968779,
123,63,13,Memory,1,,,,,,,00768941205fa.jpg,Face,>,Place,,1.5859999999999999,2.0,Side,,,,,,1539181985.780202,1539181988.2640722,
124,64,13,Memory,1,,,,,,,00922960627fa.jpg,Face,>,Place,,0.85,4.0,Novel,,,,,,1539181989.665113,1539181992.1503491,
125,65,13,Memory,1,,,,,,,00753941201fa.jpg,Face,>,Place,,1.719,3.0,None,,,,,,1539181993.533084,1539181995.982519,
126,66,13,Memory,1,,,,,,,00634940928fa.jpg,Face,>,Place,,0.0,,Side,,,,,,1539181997.4342618,1539181999.801658,
127,67,13,Memory,1,,,,,,,00727941205fa.jpg,Face,>,Place,,1.067,4.0,Novel,,,,,,1539182001.18471,1539182003.585394,
128,68,13,Memory,1,,,,,,,sunagrmyoovzukhxmlo.jpg,Place,>,Place,,0.0,,Novel,,,,,,1539182005.019706,1539182007.470008,
129,69,13,Memory,1,,,,,,,sunaeisnjeetzmkbuad.jpg,Place,>,Place,,1.104,4.0,Novel,,,,,,1539182009.004173,1539182011.338926,
130,70,13,Memory,1,,,,,,,00554940519fa.jpg,Face,>,Place,,0.7859999999999999,1.0,Side,,,,,,1539182012.721811,1539182015.040333,
131,71,13,Memory,1,,,,,,,00210940128fb.jpg,Face,>,Place,,1.153,4.0,Side,,,,,,1539182016.440327,1539182018.790274,
132,72,13,Memory,1,,,,,,,sunaletopenvvozhpxc.jpg,Place,>,Place,,1.67,1.0,Novel,,,,,,1539182020.1748118,1539182022.574448,
133,73,13,Memory,1,,,,,,,sunaglqunwuycxydmyu.jpg,Place,>,Place,,0.988,1.0,Category,,,,,,1539182023.992527,1539182026.359834,
134,74,13,Memory,1,,,,,,,sunaeuvjbmdpknaqqaj.jpg,Place,>,Place,,1.521,1.0,Novel,,,,,,1539182027.8101,1539182030.128313,
135,75,13,Memory,1,,,,,,,sunagsiwrmuixqgdimb.jpg,Place,>,Place,,0.8190000000000001,4.0,Category,,,,,,1539182031.545005,1539182034.062473,
136,76,13,Memory,1,,,,,,,sunaalcrrdbjgdztbiz.jpg,Place,>,Place,,1.4169999999999998,2.0,Full,,,,,,1539182035.4641821,1539182037.812686,
137,77,13,Memory,1,,,,,,,00792941205fa.jpg,Face,>,Place,,0.887,4.0,None,,,,,,1539182039.230751,1539182041.548188,
138,78,13,Memory,1,,,,,,,00482940519fa.jpg,Face,>,Place,,0.8170000000000001,4.0,Novel,,,,,,1539182042.9326289,1539182045.332931,
139,79,13,Memory,1,,,,,,,sunahrltmuwbiehihpe.jpg,Place,>,Place,,1.338,4.0,Category,,,,,,1539182046.800042,1539182049.2178938,
140,80,13,Memory,1,,,,,,,00834940307fa.jpg,Face,>,Place,,0.937,1.0,Novel,,,,,,1539182050.635097,1539182053.019029,
141,81,13,Memory,1,,,,,,,sunafkmnlytenlsywia.jpg,Place,>,Place,,0.9690000000000001,4.0,Full,,,,,,1539182054.553282,1539182056.852728,
142,82,13,Memory,1,,,,,,,00123931230fb.jpg,Face,>,Place,,1.619,4.0,Side,,,,,,1539182058.2196321,1539182060.6045802,
143,83,13,Memory,1,,,,,,,00749941201fa.jpg,Face,>,Place,,1.103,1.0,Novel,,,,,,1539182062.054914,1539182064.372941,
144,84,13,Memory,1,,,,,,,00785941205fa.jpg,Face,>,Place,,0.853,4.0,None,,,,,,1539182065.906812,1539182068.322905,
145,85,13,Memory,1,,,,,,,sunaauhozyxzeeqstxi.jpg,Place,>,Place,,1.053,1.0,Novel,,,,,,1539182069.757883,1539182072.25881,
146,86,13,Memory,1,,,,,,,00153931230fa.jpg,Face,>,Place,,1.038,1.0,Novel,,,,,,1539182073.708596,1539182076.209496,
147,87,13,Memory,1,,,,,,,sunacjnahdmqfnjfwqx.jpg,Place,>,Place,,1.555,2.0,Novel,,,,,,1539182077.65906,1539182080.077696,
148,88,13,Memory,1,,,,,,,sunadkazmlajmohnwfl.jpg,Place,>,Place,,1.37,1.0,Novel,,,,,,1539182081.4446971,1539182083.8939831,
149,89,13,Memory,1,,,,,,,sunapqkyghktgtosuuk.jpg,Place,>,Place,,0.72,1.0,Novel,,,,,,1539182085.395527,1539182087.713034,
150,90,13,Memory,1,,,,,,,sunadcphrizvfpljiqt.jpg,Place,>,Place,,1.819,1.0,Full,,,,,,1539182089.096175,1539182091.581715,
151,91,13,Memory,1,,,,,,,00999960627fa.jpg,Face,>,Place,,1.521,4.0,None,,,,,,1539182093.015616,1539182095.515614,
152,92,13,Memory,1,,,,,,,sunabanoxjtqxamkucc.jpg,Place,>,Place,,0.953,4.0,Full,,,,,,1539182096.833354,1539182099.333701,
153,93,13,Memory,1,,,,,,,00562941031fa.jpg,Face,>,Place,,1.136,2.0,Novel,,,,,,1539182100.700948,1539182103.118053,
154,94,13,Memory,1,,,,,,,sunabyfxcxhdebvdyfd.jpg,Place,>,Place,,1.719,2.0,Novel,,,,,,1539182104.485997,1539182107.002177,
155,95,13,Memory,1,,,,,,,00825940307fa.jpg,Face,>,Place,,0.72,1.0,None,,,,,,1539182108.452364,1539182110.788076,
156,96,13,Memory,1,,,,,,,sunaibnpvhkdpdnzcnz.jpg,Place,>,Place,,0.82,4.0,Novel,,,,,,1539182112.221255,1539182114.889668,
157,97,13,Memory,1,,,,,,,sunacfdkbsrughwqwtt.jpg,Place,>,Place,,1.3840000000000001,1.0,Full,,,,,,1539182116.3056571,1539182118.805878,
158,98,13,Memory,1,,,,,,,sunafcofuuzebuadceo.jpg,Place,>,Place,,2.519,3.0,Category,,,,,,1539182120.223893,1539182122.757224,
159,99,13,Memory,1,,,,,,,00791941205fa.jpg,Face,>,Place,,1.871,1.0,Novel,,,,,,1539182124.156724,1539182126.642134,
160,160,13,Memory,3,,,,,,,sunbxarcshsnqsefemx.jpg,Place,>,Place,,1.5519999999999998,3.0,Full,,,,,,1539182731.903758,1539182734.337572,
161,161,13,Memory,3,,,,,,,00882960530fa.jpg,Face,>,Place,,1.371,1.0,Novel,,,,,,1539182735.738595,1539182738.072654,
162,162,13,Memory,3,,,,,,,01011960627fa.jpg,Face,>,Place,,0.0,,Novel,,,,,,1539182739.4566288,1539182741.839918,
163,163,13,Memory,3,,,,,,,sunagtqhhwxjeuxdebe.jpg,Place,>,Place,,0.637,4.0,Full,,,,,,1539182743.2079132,1539182745.57515,
164,164,13,Memory,3,,,,,,,sunadakkdovnuzlycvp.jpg,Place,>,Place,,1.486,1.0,Novel,,,,,,1539182747.025611,1539182749.3931801,
165,165,13,Memory,3,,,,,,,00571940928fa.jpg,Face,>,Place,,1.5030000000000001,1.0,Novel,,,,,,1539182750.7931051,1539182753.194479,
166,166,13,Memory,3,,,,,,,00809960620fa.jpg,Face,>,Place,,1.702,3.0,Side,,,,,,1539182754.561415,1539182756.961274,
167,167,13,Memory,3,,,,,,,00854940307fa.jpg,Face,>,Place,,0.987,1.0,None,,,,,,1539182758.461458,1539182760.829585,
168,168,13,Memory,3,,,,,,,sunafhmnhsdurlvddpw.jpg,Place,>,Place,,1.005,1.0,Category,,,,,,1539182762.180181,1539182764.581638,
169,169,13,Memory,3,,,,,,,01007960627fa.jpg,Face,>,Place,,0.784,1.0,Side,,,,,,1539182765.982185,1539182768.499052,
170,170,13,Memory,3,,,,,,,sundahdxwmcdluscvot.jpg,Place,>,Place,,1.153,1.0,Novel,,,,,,1539182769.9162009,1539182772.466652,
171,171,13,Memory,3,,,,,,,00794960620fa.jpg,Face,>,Place,,0.871,1.0,Side,,,,,,1539182773.933957,1539182776.384793,
172,172,13,Memory,3,,,,,,,sunajrujcsdxmfbssmc.jpg,Place,>,Place,,1.6869999999999998,1.0,Novel,,,,,,1539182777.8012462,1539182780.16873,
173,173,13,Memory,3,,,,,,,00763941205fa.jpg,Face,>,Place,,0.684,1.0,None,,,,,,1539182781.5690222,1539182784.020493,
174,174,13,Memory,3,,,,,,,sunahbvlpavurqoxdeq.jpg,Place,>,Place,,1.486,1.0,Full,,,,,,1539182785.370843,1539182787.704155,
175,175,13,Memory,3,,,,,,,00876960620fa.jpg,Face,>,Place,,0.705,1.0,None,,,,,,1539182789.1714349,1539182791.50555,
176,176,13,Memory,3,,,,,,,00742941201fa.jpg,Face,>,Place,,1.82,2.0,Novel,,,,,,1539182792.874047,1539182795.391035,
177,177,13,Memory,3,,,,,,,00116931230fa.jpg,Face,>,Place,,0.987,1.0,None,,,,,,1539182796.840859,1539182799.342365,
178,178,13,Memory,3,,,,,,,sunaczwgyukesaajxnx.jpg,Place,>,Place,,0.7859999999999999,1.0,Novel,,,,,,1539182800.7929552,1539182803.143417,
179,179,13,Memory,3,,,,,,,00630941031fa.jpg,Face,>,Place,,0.9690000000000001,1.0,Novel,,,,,,1539182804.595066,1539182806.89447,
180,180,13,Memory,3,,,,,,,sunaofikylqtxphvdem.jpg,Place,>,Place,,0.836,1.0,Category,,,,,,1539182808.26172,1539182810.7627301,
181,181,13,Memory,3,,,,,,,sunaenwuebvlpdmntju.jpg,Place,>,Place,,0.884,1.0,Novel,,,,,,1539182812.2298,1539182814.613941,
182,182,13,Memory,3,,,,,,,sunaivflshbyfrfzhqb.jpg,Place,>,Place,,0.95,1.0,Novel,,,,,,1539182816.0641189,1539182818.598118,
183,183,13,Memory,3,,,,,,,00910960530fa.jpg,Face,>,Place,,1.751,2.0,None,,,,,,1539182820.0484538,1539182822.399369,
184,184,13,Memory,3,,,,,,,sunabmytpyhsgigllxu.jpg,Place,>,Place,,1.003,4.0,Full,,,,,,1539182823.9494221,1539182826.3685029,
185,185,13,Memory,3,,,,,,,00080931230fb.jpg,Face,>,Place,,1.27,3.0,Novel,,,,,,1539182827.750934,1539182830.085754,
186,186,13,Memory,3,,,,,,,00851940307fa.jpg,Face,>,Place,,0.486,1.0,Novel,,,,,,1539182831.4522529,1539182833.802814,
187,187,13,Memory,3,,,,,,,sunaakqepfoeqomfgxf.jpg,Place,>,Place,,1.069,1.0,Category,,,,,,1539182835.2865539,1539182837.704747,
188,188,13,Memory,3,,,,,,,sunaknlirqjqiwbbeeg.jpg,Place,>,Place,,0.721,1.0,Novel,,,,,,1539182839.138068,1539182841.505371,
189,189,13,Memory,3,,,,,,,sunaiwduelojtwaqeyh.jpg,Place,>,Place,,0.971,1.0,Category,,,,,,1539182842.93928,1539182845.357655,
190,190,13,Memory,3,,,,,,,sunaafjszryxyavjzln.jpg,Place,>,Place,,1.2690000000000001,4.0,Novel,,,,,,1539182846.823876,1539182849.2575788,
191,191,13,Memory,3,,,,,,,sunajwqkfsykceonyig.jpg,Place,>,Place,,0.753,1.0,Category,,,,,,1539182850.759692,1539182853.2748132,
192,192,13,Memory,3,,,,,,,00630940928fa.jpg,Face,>,Place,,0.654,1.0,Novel,,,,,,1539182854.627066,1539182856.977279,
193,193,13,Memory,3,,,,,,,00864940307fa.jpg,Face,>,Place,,0.6679999999999999,1.0,Side,,,,,,1539182858.3451471,1539182860.762448,
194,194,13,Memory,3,,,,,,,sunajawzbrlrwafowen.jpg,Place,>,Place,,0.968,4.0,Full,,,,,,1539182862.212398,1539182864.697433,
195,195,13,Memory,3,,,,,,,00276940422fa.jpg,Face,>,Place,,0.736,1.0,Side,,,,,,1539182866.097547,1539182868.5635731,
196,196,13,Memory,3,,,,,,,sunacuatpqpqhyjhjqk.jpg,Place,>,Place,,0.87,1.0,Novel,,,,,,1539182870.015757,1539182872.398633,
197,197,13,Memory,3,,,,,,,00967960627fa.jpg,Face,>,Place,,1.172,1.0,Novel,,,,,,1539182873.832923,1539182876.41629,
198,198,13,Memory,3,,,,,,,sunbaejotfklekvpxcz.jpg,Place,>,Place,,0.8029999999999999,1.0,Novel,,,,,,1539182877.917123,1539182880.335032,
199,199,13,Memory,3,,,,,,,00871940307.jpg,Face,>,Place,,1.318,3.0,Novel,,,,,,1539182881.735193,1539182884.169509,
200,110,13,Memory,2,,,,,,,00866940307fa.jpg,Face,<,Face,,0.0,,Category,,,,,,1539182378.906128,1539182381.490807,
201,111,13,Memory,2,,,,,,,00305940422fa.jpg,Face,<,Face,,1.083,1.0,Novel,,,,,,1539182382.941279,1539182385.375591,
202,112,13,Memory,2,,,,,,,00131931230fb.jpg,Face,<,Face,,1.42,1.0,Category,,,,,,1539182386.775698,1539182389.158495,
203,113,13,Memory,2,,,,,,,sunantryfbloeaomfta.jpg,Place,<,Face,,0.0,,Novel,,,,,,1539182390.560538,1539182393.044201,
204,114,13,Memory,2,,,,,,,00239940128fa.jpg,Face,<,Face,,1.386,3.0,Full,,,,,,1539182394.528738,1539182397.0286028,
205,115,13,Memory,2,,,,,,,sunajtrfunvzdfticna.jpg,Place,<,Face,,1.42,1.0,Novel,,,,,,1539182398.512965,1539182400.996717,
206,116,13,Memory,2,,,,,,,sunabctlikybqabezjv.jpg,Place,<,Face,,1.854,2.0,Side,,,,,,1539182402.463662,1539182404.898587,
207,117,13,Memory,2,,,,,,,sunabrjdpmoedcdjbpo.jpg,Place,<,Face,,1.385,1.0,Novel,,,,,,1539182406.298544,1539182408.78277,
208,118,13,Memory,2,,,,,,,00782941205fa.jpg,Face,<,Face,,1.089,4.0,Novel,,,,,,1539182410.216891,1539182412.6849241,
209,119,13,Memory,2,,,,,,,sunabzuqsrgcsonqlkz.jpg,Place,<,Face,,1.754,1.0,Side,,,,,,1539182414.067237,1539182416.73601,
210,120,13,Memory,2,,,,,,,00208940128fa.jpg,Face,<,Face,,0.955,1.0,Full,,,,,,1539182418.2205071,1539182420.870582,
211,121,13,Memory,2,,,,,,,sunabckqabszusgcykj.jpg,Place,<,Face,,0.9840000000000001,1.0,Novel,,,,,,1539182422.321894,1539182424.789295,
212,122,13,Memory,2,,,,,,,sunajbwkywmsqkldfml.jpg,Place,<,Face,,0.0,,None,,,,,,1539182426.256721,1539182428.789593,
213,123,13,Memory,2,,,,,,,sunaemcowdozyphwknd.jpg,Place,<,Face,,0.769,1.0,None,,,,,,1539182430.2739289,1539182432.5902278,
214,124,13,Memory,2,,,,,,,00741941201fa.jpg,Face,<,Face,,1.421,3.0,Category,,,,,,1539182434.024452,1539182436.3922539,
215,125,13,Memory,2,,,,,,,sunaizeyhvjzknwjudw.jpg,Place,<,Face,,1.436,3.0,None,,,,,,1539182437.876062,1539182440.226032,
216,126,13,Memory,2,,,,,,,00829940307fa.jpg,Face,<,Face,,0.653,4.0,Full,,,,,,1539182441.626744,1539182443.944326,
217,127,13,Memory,2,,,,,,,00906960530fa.jpg,Face,<,Face,,1.5030000000000001,3.0,Novel,,,,,,1539182445.345517,1539182447.895589,
218,128,13,Memory,2,,,,,,,00227940128fa.jpg,Face,<,Face,,0.985,1.0,Novel,,,,,,1539182449.32987,1539182451.729827,
219,129,13,Memory,2,,,,,,,00966960627fa.jpg,Face,<,Face,,1.002,1.0,Category,,,,,,1539182453.196966,1539182455.6990302,
220,130,13,Memory,2,,,,,,,sunaaeplwsfslcbtojr.jpg,Place,<,Face,,2.069,1.0,Novel,,,,,,1539182457.148676,1539182459.516573,
221,131,13,Memory,2,,,,,,,sunaygrtwrwfezqjizr.jpg,Place,<,Face,,1.121,1.0,None,,,,,,1539182460.949516,1539182463.4506779,
222,132,13,Memory,2,,,,,,,00483940519fa.jpg,Face,<,Face,,0.768,4.0,Full,,,,,,1539182464.901622,1539182467.45215,
223,133,13,Memory,2,,,,,,,00292940422fb.jpg,Face,<,Face,,0.937,1.0,Novel,,,,,,1539182468.986371,1539182471.387439,
224,134,13,Memory,2,,,,,,,00120931230fa.jpg,Face,<,Face,,1.3030000000000002,3.0,Novel,,,,,,1539182472.870114,1539182475.405335,
225,135,13,Memory,2,,,,,,,sunabyvpwkgsjtijdwj.jpg,Place,<,Face,,0.904,4.0,Side,,,,,,1539182476.855214,1539182479.3555892,
226,136,13,Memory,2,,,,,,,00874940307fa.jpg,Face,<,Face,,1.351,2.0,Novel,,,,,,1539182480.823067,1539182483.173579,
227,137,13,Memory,2,,,,,,,sunaijsqpvodplbwxkf.jpg,Place,<,Face,,1.069,4.0,Novel,,,,,,1539182484.6416152,1539182487.1087599,
228,138,13,Memory,2,,,,,,,sunaatpeezlljqaxlhj.jpg,Place,<,Face,,1.669,3.0,Novel,,,,,,1539182488.542107,1539182491.0101311,
229,139,13,Memory,2,,,,,,,sunagfvluwixdsozaql.jpg,Place,<,Face,,1.069,1.0,Novel,,,,,,1539182492.42718,1539182494.9610472,
230,140,13,Memory,2,,,,,,,sunaangbuylfvckqqoo.jpg,Place,<,Face,,0.884,1.0,None,,,,,,1539182496.446043,1539182498.8614302,
231,141,13,Memory,2,,,,,,,00146960620fb.jpg,Face,<,Face,,0.752,1.0,Novel,,,,,,1539182500.3302839,1539182502.896602,
