,Subject,Run,Trial,fix,state,time,timestamp,xRaw_righteye,yRaw_righteye,xRaw_lefteye,yRaw_lefteye,av_x_coord,av_y_coord,Unnamed: 0,Trial Type,Cued Composite,Uncued Composite,Cued Face,Cued Place,Uncued Face,Uncued Place,Memory Image,Category,Cued Side,Cued Category,Attention Reaction Time (s),Familiarity Reaction Time (s),Familiarity Rating,Attention Level,Cue Validity,Post Invalid Cue,Pre Invalid Cue,Attention Button,Rating History,Stimulus Onset,Stimulus End,Attention Probe,Novs,CuedCategory,Rating Differences
0,0.0,0.0,0.0,0.0,7.0,294091891.51724136,1537892383.3448277,1234.4675068965519,411.3692862068966,10584.37492413793,386.71412068965515,172.5504827577788,11.638716350574711,0,Presentation,00864940307fa_sunajawzbrlrwafowen.jpg,00797960620fa_sunagufzbeteqdjxais.jpg,00864940307fa.jpg,sunajawzbrlrwafowen.jpg,00797960620fa.jpg,sunagufzbeteqdjxais.jpg,,,>,Face,1.1016910076141355,,,,1.0,,,3.0,,1537892381.3807302,1537892384.782495,o,,Face,
1,0.0,0.0,1.0,0.0,7.0,294097630.5423729,1537892389.0847456,1143.6485898305084,437.47042203389844,160026.03256610176,-205.09211864406782,2353.0143879699094,3.3888502577683615,1,Presentation,00978960627fa_sunbddbivbptlrlauhy.jpg,00116931230fa_sunaakqepfoeqomfgxf.jpg,00978960627fa.jpg,sunbddbivbptlrlauhy.jpg,00116931230fa.jpg,sunaakqepfoeqomfgxf.jpg,,,>,Face,1.017168045043945,,,,1.0,,,1.0,,1537892387.248724,1537892390.517142,x,,Face,
2,0.0,0.0,2.0,0.0,7.0,294103039.2580645,1537892394.483871,1332.0844419354844,361.05818709677413,220496.56504516132,695.0472016129032,3238.611630695407,15.401536918682796,2,Presentation,00789960620fa_sunagpancjmxqfazssf.jpg,00479940519fa_sunabxsbfwjccqxxzxq.jpg,00789960620fa.jpg,sunagpancjmxqfazssf.jpg,00479940519fa.jpg,sunabxsbfwjccqxxzxq.jpg,,,>,Face,0.9852840900421144,,,,1.0,,,1.0,,1537892392.900344,1537892396.269242,x,,Face,
3,0.0,0.0,3.0,0.0,7.0,294108564.0555556,1537892400.0,1226.610588888889,465.1875833333332,174218.26915000004,544.0969944444444,2561.426711031629,14.71873342592592,3,Presentation,00138931230fa_sunaapfaivxqoynnwwp.jpg,00140931230fb_sunaapllqyqlykszopd.jpg,00138931230fa.jpg,sunaapfaivxqoynnwwp.jpg,00140931230fb.jpg,sunaapllqyqlykszopd.jpg,,,>,Face,1.3678970336914062,,,,1.0,,,3.0,,1537892398.587515,1537892401.8713028,o,,Face,
4,0.0,0.0,4.0,0.0,7.0,294114370.2916667,1537892405.875,1112.5797416666667,556.9026625,233757.36191875002,944.76308125,3429.0094021711225,21.899292096354163,4,Presentation,00635941031fa_sunaddsaeicthrfbkhe.jpg,00096931230fa_sunaaiqiqcggrskoqgy.jpg,00635941031fa.jpg,sunaddsaeicthrfbkhe.jpg,00096931230fa.jpg,sunaaiqiqcggrskoqgy.jpg,,,>,Face,1.0013089179992676,,,,1.0,,,1.0,,1537892404.60448,1537892407.905163,x,,Face,
5,0.0,0.0,5.0,0.0,7.0,294120191.8235294,1537892411.6176472,1156.8377323529412,555.4881882352942,215111.23288235292,1074.7256999999997,3157.429351259622,23.77395253676471,5,Presentation,00815941205fa_sunahiphsekjihkafsl.jpg,00648941031fa_sunadfndyrtqqiasoig.jpg,00815941205fa.jpg,sunahiphsekjihkafsl.jpg,00648941031fa.jpg,sunadfndyrtqqiasoig.jpg,,,>,Face,0.7667489051818848,,,,1.0,,,3.0,,1537892410.239142,1537892413.542402,x,,Face,
6,0.0,0.0,6.0,0.0,7.0,294125615.375,1537892417.125,1338.0172625,468.2035875000001,224791.05400625,-77.37820625,3301.396108855286,5.699536809895834,6,Presentation,00115931230fa_sunaakmxzhuceuiryah.jpg,00073931230fa_sunaafbmtoniaasysgu.jpg,00115931230fa.jpg,sunaakmxzhuceuiryah.jpg,00073931230fa.jpg,sunaafbmtoniaasysgu.jpg,,,>,Face,1.1172258853912354,,,,1.0,,,3.0,,1537892415.675703,1537892419.043459,o,,Face,
7,0.0,0.0,7.0,0.0,7.0,294131228.0588235,1537892422.7058823,1212.8250705882353,536.4765411764706,197123.38810588236,376.3357764705883,2895.6312372931984,13.31184629901961,7,Presentation,00144931230fb_sunaathajvxrgptwhoj.jpg,00822940307fa_sunahqrxievfeusiqlt.jpg,00144931230fb.jpg,sunaathajvxrgptwhoj.jpg,00822940307fa.jpg,sunahqrxievfeusiqlt.jpg,,,>,Face,1.4173588752746582,,,,1.0,,,3.0,,1537892421.526258,1537892424.795016,o,,Face,
8,0.0,0.0,8.0,0.0,7.0,294137344.7,1537892428.75,1230.524575,553.15799,196721.64700500006,1196.995965,2890.024380000977,25.52307851041667,8,Presentation,00308940422fb_sunabwfvcqqidycwypa.jpg,00208940128fa_sunaazzyhbvqjpmazjq.jpg,00308940422fb.jpg,sunabwfvcqqidycwypa.jpg,00208940128fa.jpg,sunaazzyhbvqjpmazjq.jpg,,,>,Face,1.2344439029693604,,,,1.0,,,3.0,,1537892427.546418,1537892430.845757,o,,Face,
9,0.0,0.0,9.0,0.0,7.0,294144009.7,1537892435.5,1242.7243,420.99444000000005,62851.046330000005,393.399,935.7440145688477,11.876571000000002,9,Presentation,00564941031fa_sunacsaovnjezqwbykf.jpg,00989960627fa_sunbondbduabvijnmch.jpg,00564941031fa.jpg,sunacsaovnjezqwbykf.jpg,00989960627fa.jpg,sunbondbduabvijnmch.jpg,,,>,Face,0.9669370651245116,,,,1.0,,,1.0,,1537892433.43156,1537892436.681567,x,,Face,
10720,0.0,0.0,,,,,,,,,,3157.429351259622,,10,Memory,,,,,,,sunadfndyrtqqiasoig.jpg,Place,>,Face,,2.204,1.0,None,,,,,,1537892445.951288,1537892448.569583,,1.6,Face,-0.6000000000000001
10721,0.0,0.0,,,,,,,,,,,,11,Memory,,,,,,,00967960627fa.jpg,Face,>,Face,,1.3359999999999999,3.0,Novel,,,,,,1537892449.9864788,1537892452.369307,,1.8,Face,1.2
10722,0.0,0.0,,,,,,,,,,,,12,Memory,,,,,,,00662941121fa.jpg,Face,>,Face,,1.287,3.0,Novel,,,,,,1537892453.8545551,1537892456.287825,,1.8,Face,1.2
10723,0.0,0.0,,,,,,,,,,,,13,Memory,,,,,,,00214940128fa.jpg,Face,>,Face,,0.986,1.0,Novel,,,,,,1537892457.721848,1537892460.005213,,1.8,Face,-0.8
10724,0.0,0.0,,,,,,,,,,3429.0094021711225,,14,Memory,,,,,,,sunaaiqiqcggrskoqgy.jpg,Place,>,Face,,0.7859999999999999,1.0,None,,,,,,1537892461.405775,1537892463.7241561,,1.6,Face,-0.6000000000000001
10725,0.0,0.0,,,,,,,,,,,,15,Memory,,,,,,,sunaatjesvdupctftmn.jpg,Place,>,Face,,0.951,1.0,Novel,,,,,,1537892465.14117,1537892467.4409,,1.6,Face,-0.6000000000000001
10726,0.0,0.0,,,,,,,,,,,,16,Memory,,,,,,,sunawotxrevnqvamsfp.jpg,Place,>,Face,,0.9540000000000001,1.0,Novel,,,,,,1537892468.860115,1537892471.276386,,1.6,Face,-0.6000000000000001
10727,0.0,0.0,,,,,,,,,,,,17,Memory,,,,,,,00760960620fa.jpg,Face,>,Face,,1.19,1.0,Novel,,,,,,1537892472.6264858,1537892475.129061,,1.8,Face,-0.8
10728,0.0,0.0,,,,,,,,,,,,18,Memory,,,,,,,sunabbafjowbzcvbucc.jpg,Place,>,Face,,0.684,1.0,Novel,,,,,,1537892476.511675,1537892479.1299949,,1.6,Face,-0.6000000000000001
10729,0.0,0.0,,,,,,,,,,2561.426711031629,,19,Memory,,,,,,,00140931230fb.jpg,Face,>,Face,,0.753,1.0,Category,,,,,,1537892480.613327,1537892483.163355,,1.8,Face,-0.8
10730,0.0,0.0,,,,,,,,,,,,20,Memory,,,,,,,00961960627fa.jpg,Face,>,Face,,1.136,1.0,Novel,,,,,,1537892484.5483491,1537892486.96435,,1.8,Face,-0.8
10731,0.0,0.0,,,,,,,,,,,,21,Memory,,,,,,,sunagvjurcwdbixvnyi.jpg,Place,>,Face,,1.119,2.0,Novel,,,,,,1537892488.365906,1537892490.7999,,1.6,Face,0.3999999999999999
10732,0.0,0.0,,,,,,,,,,2890.024380000977,,22,Memory,,,,,,,sunaazzyhbvqjpmazjq.jpg,Place,>,Face,,0.787,1.0,None,,,,,,1537892492.249505,1537892494.634624,,1.6,Face,-0.6000000000000001
10733,0.0,0.0,,,,,,,,,,,,23,Memory,,,,,,,sunacjkmnpawfzbyvae.jpg,Place,>,Face,,0.7190000000000001,1.0,Novel,,,,,,1537892496.035203,1537892498.418107,,1.6,Face,-0.6000000000000001
10734,0.0,0.0,,,,,,,,,,,,24,Memory,,,,,,,sunadkazmlajmohnwfl.jpg,Place,>,Face,,0.703,1.0,Novel,,,,,,1537892499.769261,1537892502.252346,,1.6,Face,-0.6000000000000001
10735,0.0,0.0,,,,,,,,,,,,25,Memory,,,,,,,00785941205fa.jpg,Face,>,Face,,1.703,1.0,Novel,,,,,,1537892503.638058,1537892506.138274,,1.8,Face,-0.8
10736,0.0,0.0,,,,,,,,,,3301.396108855286,,26,Memory,,,,,,,sunaakmxzhuceuiryah.jpg,Place,>,Face,,0.6509999999999999,1.0,Side,,,,,,1537892507.5216382,1537892510.005963,,1.6,Face,-0.6000000000000001
10737,0.0,0.0,,,,,,,,,,935.7440145688477,,27,Memory,,,,,,,00564941031fa.jpg,Face,>,Face,,1.17,2.0,Full,,,,,,1537892511.3729858,1537892513.706563,,1.8,Face,0.19999999999999996
10738,0.0,0.0,,,,,,,,,,3157.429351259622,,28,Memory,,,,,,,00648941031fa.jpg,Face,>,Face,,1.087,3.0,Category,,,,,,1537892515.10733,1537892517.42486,,1.8,Face,1.2
10739,0.0,0.0,,,,,,,,,,,,29,Memory,,,,,,,sunaglqunwuycxydmyu.jpg,Place,>,Face,,0.669,1.0,Novel,,,,,,1537892518.792893,1537892521.059408,,1.6,Face,-0.6000000000000001
10740,0.0,0.0,,,,,,,,,,2353.0143879699094,,30,Memory,,,,,,,00978960627fa.jpg,Face,>,Face,,0.737,1.0,Full,,,,,,1537892522.460126,1537892524.91025,,1.8,Face,-0.8
10741,0.0,0.0,,,,,,,,,,,,31,Memory,,,,,,,sunaahedjlmtqekgyvj.jpg,Place,>,Face,,0.653,1.0,Novel,,,,,,1537892526.2948651,1537892528.628947,,1.6,Face,-0.6000000000000001
10742,0.0,0.0,,,,,,,,,,2890.024380000977,,32,Memory,,,,,,,00308940422fb.jpg,Face,>,Face,,1.087,2.0,Full,,,,,,1537892529.978616,1537892532.56283,,1.8,Face,0.19999999999999996
10743,0.0,0.0,,,,,,,,,,3157.429351259622,,33,Memory,,,,,,,sunahiphsekjihkafsl.jpg,Place,>,Face,,0.787,1.0,Side,,,,,,1537892533.964235,1537892536.314218,,1.6,Face,-0.6000000000000001
10744,0.0,0.0,,,,,,,,,,2890.024380000977,,34,Memory,,,,,,,sunabwfvcqqidycwypa.jpg,Place,>,Face,,0.6679999999999999,1.0,Side,,,,,,1537892537.747979,1537892540.165843,,1.6,Face,-0.6000000000000001
10745,0.0,0.0,,,,,,,,,,,,35,Memory,,,,,,,00145931230fb.jpg,Face,>,Face,,0.0,,Novel,,,,,,1537892541.516387,1537892543.983593,,1.8,Face,
10746,0.0,0.0,,,,,,,,,,,,36,Memory,,,,,,,00559940519fa.jpg,Face,>,Face,,1.5,1.0,Novel,,,,,,1537892545.4009619,1537892547.834775,,1.8,Face,-0.8
10747,0.0,0.0,,,,,,,,,,,,37,Memory,,,,,,,sunbaejotfklekvpxcz.jpg,Place,>,Face,,0.8009999999999999,1.0,Novel,,,,,,1537892549.286041,1537892551.70243,,1.6,Face,-0.6000000000000001
10748,0.0,0.0,,,,,,,,,,,,38,Memory,,,,,,,00090931230fa.jpg,Face,>,Face,,2.037,2.0,Novel,,,,,,1537892553.087483,1537892555.58723,,1.8,Face,0.19999999999999996
10749,0.0,0.0,,,,,,,,,,,,39,Memory,,,,,,,00800941205fb.jpg,Face,>,Face,,0.853,1.0,Novel,,,,,,1537892557.020432,1537892559.4555461,,1.8,Face,-0.8
10750,0.0,0.0,,,,,,,,,,2561.426711031629,,40,Memory,,,,,,,sunaapllqyqlykszopd.jpg,Place,>,Face,,0.635,1.0,None,,,,,,1537892560.8716052,1537892563.173538,,1.6,Face,-0.6000000000000001
10751,0.0,0.0,,,,,,,,,,2353.0143879699094,,41,Memory,,,,,,,sunbddbivbptlrlauhy.jpg,Place,>,Face,,0.619,1.0,Side,,,,,,1537892564.623827,1537892567.023488,,1.6,Face,-0.6000000000000001
10752,0.0,0.0,,,,,,,,,,3301.396108855286,,42,Memory,,,,,,,00115931230fa.jpg,Face,>,Face,,0.501,1.0,Full,,,,,,1537892568.40834,1537892570.776192,,1.8,Face,-0.8
10753,0.0,0.0,,,,,,,,,,3429.0094021711225,,43,Memory,,,,,,,00096931230fa.jpg,Face,>,Face,,0.9540000000000001,1.0,Category,,,,,,1537892572.159039,1537892574.510531,,1.8,Face,-0.8
10754,0.0,0.0,,,,,,,,,,2895.6312372931984,,44,Memory,,,,,,,sunahqrxievfeusiqlt.jpg,Place,>,Face,,0.503,1.0,None,,,,,,1537892575.977151,1537892578.445483,,1.6,Face,-0.6000000000000001
10755,0.0,0.0,,,,,,,,,,2895.6312372931984,,45,Memory,,,,,,,00822940307fa.jpg,Face,>,Face,,0.7340000000000001,1.0,Category,,,,,,1537892579.7789712,1537892582.245017,,1.8,Face,-0.8
10756,0.0,0.0,,,,,,,,,,3157.429351259622,,46,Memory,,,,,,,00815941205fa.jpg,Face,>,Face,,1.0859999999999999,2.0,Full,,,,,,1537892583.6127741,1537892586.030875,,1.8,Face,0.19999999999999996
10757,0.0,0.0,,,,,,,,,,,,47,Memory,,,,,,,sunaffstbkappprzxnv.jpg,Place,>,Face,,0.5870000000000001,1.0,Novel,,,,,,1537892587.447386,1537892589.831919,,1.6,Face,-0.6000000000000001
10758,0.0,0.0,,,,,,,,,,935.7440145688477,,48,Memory,,,,,,,sunacsaovnjezqwbykf.jpg,Place,>,Face,,0.57,1.0,Side,,,,,,1537892591.215576,1537892593.549714,,1.6,Face,-0.6000000000000001
10759,0.0,0.0,,,,,,,,,,2890.024380000977,,49,Memory,,,,,,,00208940128fa.jpg,Face,>,Face,,1.071,1.0,Category,,,,,,1537892595.050272,1537892597.383676,,1.8,Face,-0.8
10,0.0,1.0,0.0,0.027777777777777776,7.0,294570038.6666667,1537892861.5,1078.7060138888887,158.74569722222222,814.3710444444445,386.993325,27.63818556844075,7.958694074074074,50,Presentation,00123931230fb_sunaalcrrdbjgdztbiz.jpg,00887960530_sunalcrtwiycqobgelp.jpg,00123931230fb.jpg,sunaalcrrdbjgdztbiz.jpg,00887960530.jpg,sunalcrtwiycqobgelp.jpg,,,<,Face,0.9022090435028076,,,,1.0,,,1.0,,1537892859.636286,1537892863.0536098,x,,Face,
11,0.0,1.0,1.0,0.02857142857142857,7.0,294575358.0,1537892866.8,1457.6832799999997,71.01416571428567,913.7923371428569,264.4914771428571,34.622617652622765,4.892790625,51,Presentation,00129931230fb_sunaamsdyakblkfoydx.jpg,00966960627fa_sunaygrtwrwfezqjizr.jpg,00129931230fb.jpg,sunaamsdyakblkfoydx.jpg,00966960627fa.jpg,sunaygrtwrwfezqjizr.jpg,,,<,Face,0.7685799598693848,,,,1.0,,,1.0,,1537892865.3557642,1537892868.7406461,x,,Face,
12,0.0,1.0,2.0,0.0,7.0,294581290.9130435,1537892872.6956522,1247.0787434782608,-85.38258260869564,816.326904347826,344.8510173913043,30.124916440429683,3.783914673913044,52,Presentation,00799941205fa_sunagutjvdvnhxejerz.jpg,00098931230fa_sunaajpqmulidejvjsr.jpg,00799941205fa.jpg,sunagutjvdvnhxejerz.jpg,00098931230fa.jpg,sunaajpqmulidejvjsr.jpg,,,<,Face,0.9345221519470216,,,,1.0,,,3.0,,1537892870.907098,1537892874.141398,o,,Face,
13,0.0,1.0,3.0,0.0,7.0,294586420.6363636,1537892877.939394,1322.5788939393938,-73.45039090909088,1226.8381878787882,802.4444151515149,37.22049352849786,10.63116285353535,53,Presentation,00910960530fa_sunaofikylqtxphvdem.jpg,00960960627fa_sunawksfbacycuhbrsc.jpg,00910960530fa.jpg,sunaofikylqtxphvdem.jpg,00960960627fa.jpg,sunawksfbacycuhbrsc.jpg,,,<,Face,1.1511540412902832,,,,1.0,,,3.0,,1537892876.375121,1537892879.7265189,o,,Face,
14,0.0,1.0,4.0,0.0,7.0,294592615.61538464,1537892884.0961537,1259.8816730769227,178.77766730769233,793.5129961538464,386.1526711538463,29.97876006347656,8.238567435897437,54,Presentation,00184940128fa_sunaavtbadenwnzeutj.jpg,00773960620fa_sunafvsxtzaizojicxx.jpg,00184940128fa.jpg,sunaavtbadenwnzeutj.jpg,00773960620fa.jpg,sunafvsxtzaizojicxx.jpg,,,<,Face,0.8674371242523193,,,,1.0,,,3.0,,1537892882.227517,1537892885.511536,o,,Face,
15,0.0,1.0,5.0,0.014084507042253521,7.0,294597903.2112676,1537892889.3802817,1207.7639943661973,288.28894788732396,720.654425352113,424.7729943661971,28.15415563944212,10.39881999119718,55,Presentation,00749941201fa_sunaeuvjbmdpknaqqaj.jpg,00999960627fa_sunbvbrvgbpanfrawft.jpg,00749941201fa.jpg,sunaeuvjbmdpknaqqaj.jpg,00999960627fa.jpg,sunbvbrvgbpanfrawft.jpg,,,<,Face,0.9838550090789796,,,,1.0,,,1.0,,1537892887.712642,1537892891.047032,x,,Face,
16,0.0,1.0,6.0,0.0,7.0,294603655.1219512,1537892895.195122,1125.847226829268,303.6142902439025,1104.4523780487807,774.3769682926827,32.56150302043636,15.72070585365854,56,Presentation,00288940422fa_sunabppokiyglaxpcha.jpg,00562941031fa_sunacjnahdmqfnjfwqx.jpg,00288940422fa.jpg,sunabppokiyglaxpcha.jpg,00562941031fa.jpg,sunacjnahdmqfnjfwqx.jpg,,,<,Face,0.8173730373382568,,,,1.0,,,3.0,,1537892893.398191,1537892896.780976,o,,Face,
17,0.0,1.0,7.0,0.0,7.0,294609319.92727274,1537892900.8181818,1402.4580345454544,62.551770909090884,1647.4908618181814,901.6619363636363,44.52806250062144,14.061449897727272,57,Presentation,00086931230fa_sunaafynehyrzpsoaml.jpg,00895960530fa_sunamczizlzavhzhpay.jpg,00086931230fa.jpg,sunaafynehyrzpsoaml.jpg,00895960530fa.jpg,sunamczizlzavhzhpay.jpg,,,<,Face,0.8858709335327148,,,,0.0,,,3.0,,1537892899.016224,1537892902.366817,o,,Face,
18,0.0,1.0,8.0,0.0,7.0,294615214.6179775,1537892906.6741574,1074.4836438202244,479.3060528089886,1658.1955651685398,913.8631404494388,39.896048998419936,20.317050735018725,58,Presentation,00839940307fa_sunaipyohrqlwngaqif.jpg,00880960530fa_sunakmnfgklupjijsgf.jpg,00839940307fa.jpg,sunaipyohrqlwngaqif.jpg,00880960530fa.jpg,sunakmnfgklupjijsgf.jpg,,,<,Face,0.8696479797363281,,,,1.0,,,3.0,,1537892904.684635,1537892908.035031,o,,Face,
19,0.0,1.0,9.0,0.0125,7.0,294620542.325,1537892912.0,1032.8798674999998,509.56886875,1665.8163087500002,933.6086037499999,39.39990999505613,21.046338140625004,59,Presentation,00112931230fa_sunaakjaacuzulqckgl.jpg,00780960530fa_sunagetqixeypsysbpn.jpg,00112931230fa.jpg,sunaakjaacuzulqckgl.jpg,00780960530fa.jpg,sunagetqixeypsysbpn.jpg,,,<,Face,0.75187087059021,,,,1.0,,,3.0,,1537892910.269921,1537892913.555066,o,,Face,
10760,0.0,1.0,,,,,,,,,,39.39990999505613,,60,Memory,,,,,,,sunaakjaacuzulqckgl.jpg,Place,<,Face,,0.0,,Side,,,,,,1537892918.722613,1537892921.289922,,1.6,Face,
10761,0.0,1.0,,,,,,,,,,,,61,Memory,,,,,,,sunabyvpwkgsjtijdwj.jpg,Place,<,Face,,0.871,1.0,Novel,,,,,,1537892922.756989,1537892925.2424,,1.6,Face,-0.6000000000000001
10762,0.0,1.0,,,,,,,,,,39.896048998419936,,62,Memory,,,,,,,00880960530fa.jpg,Face,<,Face,,1.0859999999999999,1.0,Category,,,,,,1537892926.658803,1537892929.075905,,1.8,Face,-0.8
10763,0.0,1.0,,,,,,,,,,,,63,Memory,,,,,,,sunaapxkpvrhpjplsok.jpg,Place,<,Face,,0.67,1.0,Novel,,,,,,1537892930.475706,1537892932.876521,,1.6,Face,-0.6000000000000001
10764,0.0,1.0,,,,,,,,,,39.39990999505613,,64,Memory,,,,,,,sunagetqixeypsysbpn.jpg,Place,<,Face,,0.735,1.0,None,,,,,,1537892934.327585,1537892936.728677,,1.6,Face,-0.6000000000000001
10765,0.0,1.0,,,,,,,,,,,,65,Memory,,,,,,,sunadsgmtznewzyasnk.jpg,Place,<,Face,,0.887,1.0,Novel,,,,,,1537892938.129832,1537892940.529632,,1.6,Face,-0.6000000000000001
10766,0.0,1.0,,,,,,,,,,29.97876006347656,,66,Memory,,,,,,,00773960620fa.jpg,Face,<,Face,,0.77,1.0,Category,,,,,,1537892941.929741,1537892944.314224,,1.8,Face,-0.8
10767,0.0,1.0,,,,,,,,,,,,67,Memory,,,,,,,00955960627fb.jpg,Face,<,Face,,0.772,1.0,Novel,,,,,,1537892945.730975,1537892948.198978,,1.8,Face,-0.8
10768,0.0,1.0,,,,,,,,,,39.39990999505613,,68,Memory,,,,,,,00112931230fa.jpg,Face,<,Face,,0.8,2.0,Full,,,,,,1537892949.5993118,1537892952.050388,,1.8,Face,0.19999999999999996
10769,0.0,1.0,,,,,,,,,,,,69,Memory,,,,,,,00124931230fa.jpg,Face,<,Face,,0.92,3.0,Novel,,,,,,1537892953.451418,1537892955.85079,,1.8,Face,1.2
10770,0.0,1.0,,,,,,,,,,27.63818556844075,,70,Memory,,,,,,,00887960530.jpg,Face,<,Face,,0.836,2.0,Category,,,,,,1537892957.234623,1537892959.6357949,,1.8,Face,0.19999999999999996
10771,0.0,1.0,,,,,,,,,,39.896048998419936,,71,Memory,,,,,,,00839940307fa.jpg,Face,<,Face,,0.836,1.0,Full,,,,,,1537892961.102449,1537892963.437837,,1.8,Face,-0.8
10772,0.0,1.0,,,,,,,,,,,,72,Memory,,,,,,,sunablfqiwfqomjarht.jpg,Place,<,Face,,0.836,2.0,Novel,,,,,,1537892964.8219461,1537892967.30515,,1.6,Face,0.3999999999999999
10773,0.0,1.0,,,,,,,,,,44.52806250062144,,73,Memory,,,,,,,00086931230fa.jpg,Face,<,Face,,0.517,1.0,Full,,,,,,1537892968.7724462,1537892971.121938,,1.8,Face,-0.8
10774,0.0,1.0,,,,,,,,,,,,74,Memory,,,,,,,sunauburywlkjszngcq.jpg,Place,<,Face,,0.8190000000000001,1.0,Novel,,,,,,1537892972.522795,1537892974.941433,,1.6,Face,-0.6000000000000001
10775,0.0,1.0,,,,,,,,,,,,75,Memory,,,,,,,00142931230fb.jpg,Face,<,Face,,1.237,1.0,Novel,,,,,,1537892976.374957,1537892978.892983,,1.8,Face,-0.8
10776,0.0,1.0,,,,,,,,,,,,76,Memory,,,,,,,sunaalhlvzmjmitybdn.jpg,Place,<,Face,,0.752,1.0,Novel,,,,,,1537892980.275914,1537892982.726379,,1.6,Face,-0.6000000000000001
10777,0.0,1.0,,,,,,,,,,,,77,Memory,,,,,,,sunajwqkfsykceonyig.jpg,Place,<,Face,,0.8029999999999999,2.0,Novel,,,,,,1537892984.077937,1537892986.4607642,,1.6,Face,0.3999999999999999
10778,0.0,1.0,,,,,,,,,,,,78,Memory,,,,,,,00061931230fb.jpg,Face,<,Face,,0.555,1.0,Novel,,,,,,1537892987.9112859,1537892990.279793,,1.8,Face,-0.8
10779,0.0,1.0,,,,,,,,,,34.622617652622765,,79,Memory,,,,,,,sunaamsdyakblkfoydx.jpg,Place,<,Face,,0.5529999999999999,1.0,Side,,,,,,1537892991.679655,1537892994.146873,,1.6,Face,-0.6000000000000001
10780,0.0,1.0,,,,,,,,,,,,80,Memory,,,,,,,sunbfyvfqiimvdaxlqn.jpg,Place,<,Face,,0.503,1.0,Novel,,,,,,1537892995.5653892,1537892998.081878,,1.6,Face,-0.6000000000000001
10781,0.0,1.0,,,,,,,,,,27.63818556844075,,81,Memory,,,,,,,sunaalcrrdbjgdztbiz.jpg,Place,<,Face,,0.552,1.0,Side,,,,,,1537892999.516294,1537893001.832843,,1.6,Face,-0.6000000000000001
10782,0.0,1.0,,,,,,,,,,,,82,Memory,,,,,,,00876960620fa.jpg,Face,<,Face,,1.004,2.0,Novel,,,,,,1537893003.350574,1537893005.885069,,1.8,Face,0.19999999999999996
10783,0.0,1.0,,,,,,,,,,27.63818556844075,,83,Memory,,,,,,,sunalcrtwiycqobgelp.jpg,Place,<,Face,,0.787,1.0,None,,,,,,1537893007.3018222,1537893009.7020519,,1.6,Face,-0.6000000000000001
10784,0.0,1.0,,,,,,,,,,27.63818556844075,,84,Memory,,,,,,,00123931230fb.jpg,Face,<,Face,,1.7209999999999999,1.0,Full,,,,,,1537893011.135155,1537893013.670749,,1.8,Face,-0.8
10785,0.0,1.0,,,,,,,,,,,,85,Memory,,,,,,,00483940519fa.jpg,Face,<,Face,,0.5539999999999999,2.0,Novel,,,,,,1537893015.070818,1537893017.537209,,1.8,Face,0.19999999999999996
10786,0.0,1.0,,,,,,,,,,,,86,Memory,,,,,,,sunaaekxzjzrfgtkwjf.jpg,Place,<,Face,,0.45299999999999996,2.0,Novel,,,,,,1537893018.889304,1537893021.421806,,1.6,Face,0.3999999999999999
10787,0.0,1.0,,,,,,,,,,,,87,Memory,,,,,,,00267940128fb.jpg,Face,<,Face,,0.503,1.0,Novel,,,,,,1537893022.822151,1537893025.2904608,,1.8,Face,-0.8
10788,0.0,1.0,,,,,,,,,,39.39990999505613,,88,Memory,,,,,,,00780960530fa.jpg,Face,<,Face,,0.72,3.0,Category,,,,,,1537893026.7084699,1537893029.1096,,1.8,Face,1.2
10789,0.0,1.0,,,,,,,,,,,,89,Memory,,,,,,,00848940307fa.jpg,Face,<,Face,,0.0,,Novel,,,,,,1537893030.508984,1537893032.859058,,1.8,Face,
10790,0.0,1.0,,,,,,,,,,29.97876006347656,,90,Memory,,,,,,,sunafvsxtzaizojicxx.jpg,Place,<,Face,,1.022,1.0,None,,,,,,1537893034.310833,1537893036.694431,,1.6,Face,-0.6000000000000001
10791,0.0,1.0,,,,,,,,,,34.622617652622765,,91,Memory,,,,,,,00129931230fb.jpg,Face,<,Face,,0.82,2.0,Full,,,,,,1537893038.111498,1537893040.578733,,1.8,Face,0.19999999999999996
10792,0.0,1.0,,,,,,,,,,39.896048998419936,,92,Memory,,,,,,,sunakmnfgklupjijsgf.jpg,Place,<,Face,,0.52,1.0,None,,,,,,1537893041.963216,1537893044.446862,,1.6,Face,-0.6000000000000001
10793,0.0,1.0,,,,,,,,,,,,93,Memory,,,,,,,00700941121fa.jpg,Face,<,Face,,0.585,2.0,Novel,,,,,,1537893045.846468,1537893048.181773,,1.8,Face,0.19999999999999996
10794,0.0,1.0,,,,,,,,,,34.622617652622765,,94,Memory,,,,,,,00966960627fa.jpg,Face,<,Face,,0.45399999999999996,2.0,Category,,,,,,1537893049.598965,1537893051.982184,,1.8,Face,0.19999999999999996
10795,0.0,1.0,,,,,,,,,,34.622617652622765,,95,Memory,,,,,,,sunaygrtwrwfezqjizr.jpg,Place,<,Face,,0.52,1.0,None,,,,,,1537893053.400171,1537893055.833453,,1.6,Face,-0.6000000000000001
10796,0.0,1.0,,,,,,,,,,44.52806250062144,,96,Memory,,,,,,,sunaafynehyrzpsoaml.jpg,Place,<,Face,,1.204,1.0,Side,,,,,,1537893057.251257,1537893059.6522212,,1.6,Face,-0.6000000000000001
10797,0.0,1.0,,,,,,,,,,,,97,Memory,,,,,,,sunaivdylrawbmhryfp.jpg,Place,<,Face,,0.536,1.0,Novel,,,,,,1537893061.035352,1537893063.336535,,1.6,Face,-0.6000000000000001
10798,0.0,1.0,,,,,,,,,,39.896048998419936,,98,Memory,,,,,,,sunaipyohrqlwngaqif.jpg,Place,<,Face,,0.653,1.0,Side,,,,,,1537893064.720048,1537893067.2546039,,1.6,Face,-0.6000000000000001
10799,0.0,1.0,,,,,,,,,,,,99,Memory,,,,,,,00983960627fa.jpg,Face,<,Face,,0.6509999999999999,2.0,Novel,,,,,,1537893068.621983,1537893071.038658,,1.8,Face,0.19999999999999996
20,0.0,2.0,0.0,0.0,7.0,294954057.9583333,1537893245.5277777,864.1253875000001,770.4050277777776,14488.30303194444,-105.6577875,224.1394578815375,9.694230587384256,100,Presentation,00263940128fb_sunabjuovqvyfuzvqwt.jpg,00884960530fa_sunakodkcslgqhqlgwl.jpg,00263940128fb.jpg,sunabjuovqvyfuzvqwt.jpg,00884960530fa.jpg,sunakodkcslgqhqlgwl.jpg,,,>,Face,0.6351759433746338,,,,1.0,,,3.0,,1537893243.678831,1537893247.062407,o,,Face,
21,0.0,2.0,1.0,0.0,7.0,294959475.8666667,1537893250.9333334,789.3560866666667,977.0220311111115,18272.08793555555,302.8006688888888,278.2896368478733,18.66408104166667,101,Presentation,00793941205fa_sunagtjwilqjvxohypn.jpg,00997960627fa_sunbtpilbhhbmhmeuzq.jpg,00793941205fa.jpg,sunagtjwilqjvxohypn.jpg,00997960627fa.jpg,sunbtpilbhhbmhmeuzq.jpg,,,>,Face,1.1193649768829346,,,,1.0,,,1.0,,1537893249.063717,1537893252.381317,x,,Face,
22,0.0,2.0,2.0,0.0,7.0,294965226.60784316,1537893256.7058823,1071.007650980392,1002.2455921568632,23662.337041176477,268.09215294117655,361.0971710427196,18.525758782679738,102,Presentation,00211940128fa_sunabasphceswhwwqvv.jpg,00146960620fb_sunaatpeezlljqaxlhj.jpg,00211940128fa.jpg,sunabasphceswhwwqvv.jpg,00146960620fb.jpg,sunaatpeezlljqaxlhj.jpg,,,>,Face,1.2356410026550293,,,,1.0,,,3.0,,1537893254.832326,1537893258.1494188,o,,Face,
23,0.0,2.0,3.0,0.0,7.0,294970858.82,1537893262.32,1013.2426500000001,1021.9680279999998,48110.88752799998,-1622.5107619999994,717.1931114854492,-8.757914870833334,103,Presentation,00970960627fa_sunbasypfgzjtomktmu.jpg,00947960627fa_sunasmmcxdddtmtazwx.jpg,00970960627fa.jpg,sunbasypfgzjtomktmu.jpg,00947960627fa.jpg,sunasmmcxdddtmtazwx.jpg,,,>,Face,1.033840894699097,,,,0.0,,,1.0,,1537893260.700355,1537893263.95215,x,,Face,
24,0.0,2.0,4.0,0.0,7.0,294976534.66129035,1537893267.967742,1314.3137000000004,642.8032241935482,37625.563335483865,-80.64013225806451,568.5069938285973,8.198211757392475,104,Presentation,00902960530fa_sunanaacmmosxrfwmvl.jpg,01003960627fb_sunbwdrdvsweerwsdrj.jpg,00902960530fa.jpg,sunanaacmmosxrfwmvl.jpg,01003960627fb.jpg,sunbwdrdvsweerwsdrj.jpg,,,>,Face,0.5179629325866699,,,,1.0,,,3.0,,1537893266.336153,1537893269.587371,x,,Face,
25,0.0,2.0,5.0,0.0,7.0,294981630.73333335,1537893273.0666666,1111.4661633333335,729.661895,46342.05965833333,120.48355000000001,692.8029404628091,12.39795440625,105,Presentation,00986960627fa_sunbgzjryivyczuvkvm.jpg,00598940928fa_sunacxeheuiigkcgquf.jpg,00986960627fa.jpg,sunbgzjryivyczuvkvm.jpg,00598940928fa.jpg,sunacxeheuiigkcgquf.jpg,,,>,Face,1.2679100036621094,,,,1.0,,,3.0,,1537893271.437333,1537893274.772496,o,,Face,
26,0.0,2.0,6.0,0.0,7.0,294987695.11904764,1537893279.1190476,1187.8834595238095,837.0699023809522,44231.876723809524,505.48483333333326,663.110756582845,19.57892322916667,106,Presentation,00101931230fb_sunaajqmsaavkmgbsth.jpg,00774941201fa_sunafvtpfczkzopbgue.jpg,00101931230fb.jpg,sunaajqmsaavkmgbsth.jpg,00774941201fa.jpg,sunafvtpfczkzopbgue.jpg,,,>,Face,0.9182949066162108,,,,1.0,,,1.0,,1537893277.405631,1537893280.789984,x,,Face,
27,0.0,2.0,7.0,0.0,7.0,294993898.3181818,1537893285.3636363,1639.879938636363,448.7318818181819,31043.841781818177,593.1660181818181,477.16957003983947,15.194344375000002,107,Presentation,00581940928fa_sunacvzhvcksnwqcqbw.jpg,00933960627fa_sunapwjkcxdaeqehfql.jpg,00581940928fa.jpg,sunacvzhvcksnwqcqbw.jpg,00933960627fa.jpg,sunapwjkcxdaeqehfql.jpg,,,>,Face,0.9011828899383544,,,,1.0,,,1.0,,1537893283.073783,1537893286.325974,x,,Face,
28,0.0,2.0,8.0,0.0,7.0,294998266.61904764,1537893289.7619047,1419.9514714285713,1172.6845690476196,18375.37090952381,471.4728738095238,289.0039742140997,23.977296041666666,108,Presentation,00316940422fa_sunabxmguapjekttvwm.jpg,00943960627fa_sunarpsxqkduedrrzyi.jpg,00316940422fa.jpg,sunabxmguapjekttvwm.jpg,00943960627fa.jpg,sunarpsxqkduedrrzyi.jpg,,,>,Face,0.922210931777954,,,,1.0,,,1.0,,1537893288.5769231,1537893291.931673,x,,Face,
29,0.0,2.0,9.0,0.0,7.0,295004267.61538464,1537893295.6923077,2040.3291384615384,1197.7908076923077,23892.240315384613,3534.5604461538464,378.60538411621087,69.01345578525641,109,Presentation,00894960620fa_sunalqmfgeadpqsyzpd.jpg,00996960627fa_sunbpvgllfdejxcpjqp.jpg,00894960620fa.jpg,sunalqmfgeadpqsyzpd.jpg,00996960627fa.jpg,sunbpvgllfdejxcpjqp.jpg,,,>,Face,2.1186740398406982,,,,1.0,,,3.0,,1537893294.16248,1537893297.496553,o,,Face,
10840,0.0,2.0,,,,,,,,,,,,110,Memory,,,,,,,sunaloffvbvysigxent.jpg,Place,>,Face,,1.37,1.0,Novel,,,,,,1537893304.664875,1537893307.182091,,1.6,Face,-0.6000000000000001
10841,0.0,2.0,,,,,,,,,,,,111,Memory,,,,,,,00976960627fa.jpg,Face,>,Face,,1.055,2.0,Novel,,,,,,1537893308.684068,1537893311.183577,,1.8,Face,0.19999999999999996
10842,0.0,2.0,,,,,,,,,,224.1394578815375,,112,Memory,,,,,,,00263940128fb.jpg,Face,>,Face,,0.836,1.0,Full,,,,,,1537893312.600672,1537893315.151814,,1.8,Face,-0.8
10843,0.0,2.0,,,,,,,,,,,,113,Memory,,,,,,,00898960530fa.jpg,Face,>,Face,,1.202,2.0,Novel,,,,,,1537893316.5850132,1537893319.0377529,,1.8,Face,0.19999999999999996
10844,0.0,2.0,,,,,,,,,,663.110756582845,,114,Memory,,,,,,,sunaajqmsaavkmgbsth.jpg,Place,>,Face,,0.737,1.0,Side,,,,,,1537893320.503778,1537893322.7868679,,1.6,Face,-0.6000000000000001
10845,0.0,2.0,,,,,,,,,,289.0039742140997,,115,Memory,,,,,,,00943960627fa.jpg,Face,>,Face,,0.853,2.0,Category,,,,,,1537893324.187427,1537893326.572143,,1.8,Face,0.19999999999999996
10846,0.0,2.0,,,,,,,,,,,,116,Memory,,,,,,,00266940128fb.jpg,Face,>,Face,,0.685,1.0,Novel,,,,,,1537893328.021257,1537893330.4559019,,1.8,Face,-0.8
10847,0.0,2.0,,,,,,,,,,378.60538411621087,,117,Memory,,,,,,,sunbpvgllfdejxcpjqp.jpg,Place,>,Face,,0.77,1.0,None,,,,,,1537893331.873642,1537893334.308631,,1.6,Face,-0.6000000000000001
10848,0.0,2.0,,,,,,,,,,,,118,Memory,,,,,,,00080931230fb.jpg,Face,>,Face,,0.62,3.0,Novel,,,,,,1537893335.65832,1537893337.941877,,1.8,Face,1.2
10849,0.0,2.0,,,,,,,,,,,,119,Memory,,,,,,,sunaaeplwsfslcbtojr.jpg,Place,>,Face,,0.586,1.0,Novel,,,,,,1537893339.376252,1537893341.610007,,1.6,Face,-0.6000000000000001
10850,0.0,2.0,,,,,,,,,,,,120,Memory,,,,,,,sunamkmeblgteyggink.jpg,Place,>,Face,,0.5710000000000001,2.0,Novel,,,,,,1537893342.977195,1537893345.4122,,1.6,Face,0.3999999999999999
10851,0.0,2.0,,,,,,,,,,,,121,Memory,,,,,,,sunajjxttslobudoqbv.jpg,Place,>,Face,,0.653,1.0,Novel,,,,,,1537893346.894699,1537893349.3305051,,1.6,Face,-0.6000000000000001
10852,0.0,2.0,,,,,,,,,,717.1931114854492,,122,Memory,,,,,,,sunbasypfgzjtomktmu.jpg,Place,>,Face,,0.536,1.0,Side,,,,,,1537893350.763551,1537893353.147084,,1.6,Face,-0.6000000000000001
10853,0.0,2.0,,,,,,,,,,,,123,Memory,,,,,,,sunabkngeblodihjvbk.jpg,Place,>,Face,,0.619,1.0,Novel,,,,,,1537893354.514129,1537893356.831223,,1.6,Face,-0.6000000000000001
10854,0.0,2.0,,,,,,,,,,692.8029404628091,,124,Memory,,,,,,,sunacxeheuiigkcgquf.jpg,Place,>,Face,,0.503,2.0,None,,,,,,1537893358.2322161,1537893360.534125,,1.6,Face,0.3999999999999999
10855,0.0,2.0,,,,,,,,,,717.1931114854492,,125,Memory,,,,,,,00970960627fa.jpg,Face,>,Face,,0.754,3.0,Full,,,,,,1537893361.949839,1537893364.268467,,1.8,Face,1.2
10856,0.0,2.0,,,,,,,,,,224.1394578815375,,126,Memory,,,,,,,sunabjuovqvyfuzvqwt.jpg,Place,>,Face,,0.555,2.0,Side,,,,,,1537893365.63534,1537893368.469445,,1.6,Face,0.3999999999999999
10857,0.0,2.0,,,,,,,,,,378.60538411621087,,127,Memory,,,,,,,00996960627fa.jpg,Face,>,Face,,0.687,1.0,Category,,,,,,1537893369.8359962,1537893372.1706471,,1.8,Face,-0.8
10858,0.0,2.0,,,,,,,,,,,,128,Memory,,,,,,,sunaakxgygjfqrzpyoz.jpg,Place,>,Face,,0.57,2.0,Novel,,,,,,1537893373.571128,1537893376.0224211,,1.6,Face,0.3999999999999999
10859,0.0,2.0,,,,,,,,,,,,129,Memory,,,,,,,00120931230fa.jpg,Face,>,Face,,0.6509999999999999,1.0,Novel,,,,,,1537893377.504891,1537893379.955496,,1.8,Face,-0.8
10860,0.0,2.0,,,,,,,,,,692.8029404628091,,130,Memory,,,,,,,00598940928fa.jpg,Face,>,Face,,0.818,3.0,Category,,,,,,1537893381.323164,1537893383.624778,,1.8,Face,1.2
10861,0.0,2.0,,,,,,,,,,,,131,Memory,,,,,,,sunaafjszryxyavjzln.jpg,Place,>,Face,,0.354,1.0,Novel,,,,,,1537893384.991525,1537893387.525519,,1.6,Face,-0.6000000000000001
10862,0.0,2.0,,,,,,,,,,,,132,Memory,,,,,,,sunbbhqyyzmsxhsbjmp.jpg,Place,>,Face,,0.305,2.0,Novel,,,,,,1537893388.942866,1537893391.426848,,1.6,Face,0.3999999999999999
10863,0.0,2.0,,,,,,,,,,289.0039742140997,,133,Memory,,,,,,,00316940422fa.jpg,Face,>,Face,,0.7879999999999999,1.0,Full,,,,,,1537893392.843521,1537893395.16111,,1.8,Face,-0.8
10864,0.0,2.0,,,,,,,,,,663.110756582845,,134,Memory,,,,,,,00101931230fb.jpg,Face,>,Face,,0.537,1.0,Full,,,,,,1537893396.577481,1537893398.9295712,,1.8,Face,-0.8
10865,0.0,2.0,,,,,,,,,,378.60538411621087,,135,Memory,,,,,,,00894960620fa.jpg,Face,>,Face,,0.519,1.0,Full,,,,,,1537893400.3123019,1537893402.6962972,,1.8,Face,-0.8
10866,0.0,2.0,,,,,,,,,,717.1931114854492,,136,Memory,,,,,,,sunasmmcxdddtmtazwx.jpg,Place,>,Face,,0.436,1.0,None,,,,,,1537893404.080543,1537893406.397872,,1.6,Face,-0.6000000000000001
10867,0.0,2.0,,,,,,,,,,,,137,Memory,,,,,,,00868960307fa.jpg,Face,>,Face,,0.789,2.0,Novel,,,,,,1537893407.8140051,1537893410.132766,,1.8,Face,0.19999999999999996
10868,0.0,2.0,,,,,,,,,,289.0039742140997,,138,Memory,,,,,,,sunabxmguapjekttvwm.jpg,Place,>,Face,,0.638,3.0,Side,,,,,,1537893411.5332,1537893413.9163651,,1.6,Face,1.4
10869,0.0,2.0,,,,,,,,,,,,139,Memory,,,,,,,sunajrgtewnualfcerj.jpg,Place,>,Face,,0.405,1.0,Novel,,,,,,1537893415.316741,1537893417.601693,,1.6,Face,-0.6000000000000001
10870,0.0,2.0,,,,,,,,,,717.1931114854492,,140,Memory,,,,,,,00947960627fa.jpg,Face,>,Face,,0.45299999999999996,2.0,Category,,,,,,1537893418.9858491,1537893421.4027019,,1.8,Face,0.19999999999999996
10871,0.0,2.0,,,,,,,,,,,,141,Memory,,,,,,,00070940307fa.jpg,Face,>,Face,,0.519,1.0,Novel,,,,,,1537893422.853923,1537893425.1880221,,1.8,Face,-0.8
10872,0.0,2.0,,,,,,,,,,289.0039742140997,,142,Memory,,,,,,,sunarpsxqkduedrrzyi.jpg,Place,>,Face,,0.7020000000000001,1.0,None,,,,,,1537893426.654667,1537893429.0887,,1.6,Face,-0.6000000000000001
10873,0.0,2.0,,,,,,,,,,278.2896368478733,,143,Memory,,,,,,,sunbtpilbhhbmhmeuzq.jpg,Place,>,Face,,0.505,2.0,None,,,,,,1537893430.439284,1537893432.9062948,,1.6,Face,0.3999999999999999
10874,0.0,2.0,,,,,,,,,,,,144,Memory,,,,,,,sunaajuzribjrizdshh.jpg,Place,>,Face,,1.1740000000000002,3.0,Novel,,,,,,1537893434.3241868,1537893436.791357,,1.6,Face,1.4
10875,0.0,2.0,,,,,,,,,,,,145,Memory,,,,,,,00893960530Fa.jpg,Face,>,Face,,0.768,1.0,Novel,,,,,,1537893438.141197,1537893440.558686,,1.8,Face,-0.8
10876,0.0,2.0,,,,,,,,,,,,146,Memory,,,,,,,00109931230fa.jpg,Face,>,Face,,0.5539999999999999,2.0,Novel,,,,,,1537893442.125956,1537893444.510453,,1.8,Face,0.19999999999999996
10877,0.0,2.0,,,,,,,,,,378.60538411621087,,147,Memory,,,,,,,sunalqmfgeadpqsyzpd.jpg,Place,>,Face,,0.621,1.0,Side,,,,,,1537893445.927139,1537893448.2778802,,1.6,Face,-0.6000000000000001
10878,0.0,2.0,,,,,,,,,,,,148,Memory,,,,,,,00870940307fa.jpg,Face,>,Face,,1.27,3.0,Novel,,,,,,1537893449.712091,1537893452.178447,,1.8,Face,1.2
10879,0.0,2.0,,,,,,,,,,278.2896368478733,,149,Memory,,,,,,,00997960627fa.jpg,Face,>,Face,,0.535,2.0,Category,,,,,,1537893453.63125,1537893456.081492,,1.8,Face,0.19999999999999996
30,0.0,4.0,0.0,0.10606060606060606,7.0,295626560.1363636,1537893918.030303,1157.7502969696975,626.0902015151514,653.86015,553.1096045454545,26.448804865426734,17.196663838383838,200,Presentation,00775941205fa_sunafvwfsmqkjrutjta.jpg,00841940307fa_sunaisiwfgppimtnmxl.jpg,00775941205fa.jpg,sunafvwfsmqkjrutjta.jpg,00841940307fa.jpg,sunaisiwfgppimtnmxl.jpg,,,<,Place,0.6517741680145264,,,,1.0,,,1.0,,1537893916.415205,1537893919.8987641,o,,Place,
31,0.0,4.0,1.0,0.011235955056179775,7.0,295632025.1235955,1537893923.47191,1151.573841573034,697.6084820224719,728.5231269662919,739.971691011236,27.448681327795818,20.964710856741572,201,Presentation,00913960530fa_sunaooffzffbhcpirmm.jpg,00242940128fa_sunabcuurugvxwparpk.jpg,00913960530fa.jpg,sunaooffzffbhcpirmm.jpg,00242940128fa.jpg,sunabcuurugvxwparpk.jpg,,,<,Place,0.652256965637207,,,,1.0,,,3.0,,1537893921.8989038,1537893925.285035,o,,Place,
32,0.0,4.0,2.0,0.030303030303030304,7.0,295637480.1666667,1537893928.9545455,1238.556540909091,724.5052575757574,723.7797727272729,830.5351893939396,28.649343641468395,22.677673184974743,202,Presentation,00925960627fa_sunapqwnqzxlsfvgsjm.jpg,00185940422fb_sunaawqdbpihmlbwyyn.jpg,00925960627fa.jpg,sunapqwnqzxlsfvgsjm.jpg,00185940422fb.jpg,sunaawqdbpihmlbwyyn.jpg,,,<,Place,1.3005290031433103,,,,1.0,,,1.0,,1537893927.318109,1537893930.753479,x,,Place,
33,0.0,4.0,3.0,0.24096385542168675,7.0,295644220.42168677,1537893935.6746988,1164.2222228915664,696.423473493976,834.7404072289154,817.1077771084334,29.18407355498164,22.072330737951813,203,Presentation,00631940928fa_sunadbdqzigzwipuipr.jpg,00805941205fa_sunagwzdbtlixdhgolm.jpg,00631940928fa.jpg,sunadbdqzigzwipuipr.jpg,00805941205fa.jpg,sunagwzdbtlixdhgolm.jpg,,,<,Place,0.9831650257110596,,,,0.0,,,1.0,,1537893933.687339,1537893937.053578,x,,Place,
34,0.0,4.0,4.0,0.017241379310344827,7.0,295649513.8103448,1537893941.0,1222.2935655172412,666.3992844827586,702.7577241379312,721.9423000000002,28.104996855805506,20.246648107040237,204,Presentation,00957960627fa_sunavhxgmgrqsaptynb.jpg,00857940307fa_sunaiwfobocrruqznsv.jpg,00957960627fa.jpg,sunavhxgmgrqsaptynb.jpg,00857940307fa.jpg,sunaiwfobocrruqznsv.jpg,,,<,Place,0.6859140396118164,,,,1.0,,,1.0,,1537893939.421166,1537893942.722167,x,,Place,
35,0.0,4.0,5.0,0.12643678160919541,7.0,295655079.4367816,1537893946.5172415,1150.7523379310344,673.0525896551724,704.4220540229886,717.1128241379308,27.08482144503186,20.273245617816098,205,Presentation,00260940128fa_sunabgfhvifeijihhjw.jpg,00723941201fa_sunaedtgwjvvziytspa.jpg,00260940128fa.jpg,sunabgfhvifeijihhjw.jpg,00723941201fa.jpg,sunaedtgwjvvziytspa.jpg,,,<,Place,1.8188309669494631,,,,0.0,,,3.0,,1537893944.807655,1537893948.091105,o,,Place,
36,0.0,4.0,6.0,0.08163265306122448,7.0,295661502.14285713,1537893953.0204082,1258.1555632653062,660.5071673469387,709.5831734693877,617.0782020408164,28.728216908382503,18.63145330357143,206,Presentation,00108960530fa_sunaajtnvzzpsjdzres.jpg,00705960530fa_sunaduslxfzlbxlllnz.jpg,00108960530fa.jpg,sunaajtnvzzpsjdzres.jpg,00705960530fa.jpg,sunaduslxfzlbxlllnz.jpg,,,<,Place,2.002068996429444,,,,1.0,,,1.0,,1537893951.2923222,1537893954.643742,x,,Place,
37,0.0,4.0,7.0,0.02857142857142857,7.0,295668528.75714284,1537893959.9857142,1193.082432857143,661.1467857142854,585.7845014285714,687.7595785714287,25.97076237067522,19.671551145833334,207,Presentation,00133931230fa_sunaanlwnpqndclffxt.jpg,00874940307fa_sunajtrfunvzdfticna.jpg,00133931230fa.jpg,sunaanlwnpqndclffxt.jpg,00874940307fa.jpg,sunajtrfunvzdfticna.jpg,,,<,Place,0.8489809036254883,,,,1.0,,,3.0,,1537893958.0106132,1537893961.412681,o,,Place,
38,0.0,4.0,8.0,0.0,7.0,295673568.3466667,1537893965.0266666,1204.6947599999994,690.1914346666666,607.2511213333333,691.5799013333334,26.453702076106772,20.150831983333337,208,Presentation,00794960620fa_sunagtqhhwxjeuxdebe.jpg,00801941205fa_sunagvprlbprarvgdvj.jpg,00794960620fa.jpg,sunagtqhhwxjeuxdebe.jpg,00801941205fa.jpg,sunagvprlbprarvgdvj.jpg,,,<,Place,0.7674231529235841,,,,1.0,,,1.0,,1537893963.646621,1537893966.947249,x,,Place,
39,0.0,4.0,9.0,0.03076923076923077,7.0,295679613.49230766,1537893971.1076922,1176.4025046153845,676.2416369230766,741.4691615384615,627.6937030769229,28.00017715722657,19.01572370833334,209,Presentation,01002960627fb_sunbwaafjdebjzttuvq.jpg,00979960627fa_sunbdycacjfaujxitbw.jpg,01002960627fb.jpg,sunbwaafjdebjzttuvq.jpg,00979960627fa.jpg,sunbdycacjfaujxitbw.jpg,,,<,Place,0.8183338642120361,,,,1.0,,,1.0,,1537893969.115231,1537893972.432101,x,,Place,
11000,0.0,4.0,,,,,,,,,,26.453702076106772,,210,Memory,,,,,,,sunagtqhhwxjeuxdebe.jpg,Place,<,Place,,1.087,3.0,Full,,,,,,1537893977.066711,1537893979.568035,,2.0,Place,1.0
11001,0.0,4.0,,,,,,,,,,,,211,Memory,,,,,,,00953960627fa.jpg,Face,<,Place,,0.87,1.0,Novel,,,,,,1537893980.9851289,1537893983.48673,,1.0,Place,0.0
11002,0.0,4.0,,,,,,,,,,28.104996855805506,,212,Memory,,,,,,,00857940307fa.jpg,Face,<,Place,,0.619,1.0,None,,,,,,1537893984.870057,1537893987.421036,,1.0,Place,0.0
11003,0.0,4.0,,,,,,,,,,,,213,Memory,,,,,,,00676941121fa.jpg,Face,<,Place,,0.5529999999999999,1.0,Novel,,,,,,1537893988.78863,1537893991.238261,,1.0,Place,0.0
11004,0.0,4.0,,,,,,,,,,27.448681327795818,,214,Memory,,,,,,,sunaooffzffbhcpirmm.jpg,Place,<,Place,,1.17,3.0,Full,,,,,,1537893992.638849,1537893995.039768,,2.0,Place,1.0
11005,0.0,4.0,,,,,,,,,,,,215,Memory,,,,,,,sundahdxwmcdluscvot.jpg,Place,<,Place,,0.737,1.0,Novel,,,,,,1537893996.456904,1537893998.808773,,2.0,Place,-1.0
11006,0.0,4.0,,,,,,,,,,25.97076237067522,,216,Memory,,,,,,,sunajtrfunvzdfticna.jpg,Place,<,Place,,0.638,1.0,Category,,,,,,1537894000.1751778,1537894002.6581051,,2.0,Place,-1.0
11007,0.0,4.0,,,,,,,,,,26.448804865426734,,217,Memory,,,,,,,sunafvwfsmqkjrutjta.jpg,Place,<,Place,,0.369,1.0,Full,,,,,,1537894004.060848,1537894006.560469,,2.0,Place,-1.0
11008,0.0,4.0,,,,,,,,,,,,218,Memory,,,,,,,sunadpnqovzckyikrjo.jpg,Place,<,Place,,1.02,2.0,Novel,,,,,,1537894007.960524,1537894010.427683,,2.0,Place,0.0
11009,0.0,4.0,,,,,,,,,,,,219,Memory,,,,,,,sunbbfqwjpdxniyhies.jpg,Place,<,Place,,0.736,3.0,Novel,,,,,,1537894011.778787,1537894014.112734,,2.0,Place,1.0
11010,0.0,4.0,,,,,,,,,,,,220,Memory,,,,,,,sunaecpkgfewqqreqwe.jpg,Place,<,Place,,0.619,2.0,Novel,,,,,,1537894015.513156,1537894017.963757,,2.0,Place,0.0
11011,0.0,4.0,,,,,,,,,,,,221,Memory,,,,,,,00903960620fa.jpg,Face,<,Place,,0.907,2.0,Novel,,,,,,1537894019.398809,1537894021.986317,,1.0,Place,1.0
11012,0.0,4.0,,,,,,,,,,28.104996855805506,,222,Memory,,,,,,,sunavhxgmgrqsaptynb.jpg,Place,<,Place,,0.6859999999999999,3.0,Full,,,,,,1537894023.382449,1537894025.666653,,2.0,Place,1.0
11013,0.0,4.0,,,,,,,,,,27.448681327795818,,223,Memory,,,,,,,00913960530fa.jpg,Face,<,Place,,0.551,1.0,Side,,,,,,1537894027.033472,1537894029.334502,,1.0,Place,0.0
11014,0.0,4.0,,,,,,,,,,,,224,Memory,,,,,,,00931960627fa.jpg,Face,<,Place,,0.8859999999999999,1.0,Novel,,,,,,1537894030.751782,1537894033.185713,,1.0,Place,0.0
11015,0.0,4.0,,,,,,,,,,,,225,Memory,,,,,,,00944960627fa.jpg,Face,<,Place,,0.42,1.0,Novel,,,,,,1537894034.569297,1537894036.869794,,1.0,Place,0.0
11016,0.0,4.0,,,,,,,,,,25.97076237067522,,226,Memory,,,,,,,00874940307fa.jpg,Face,<,Place,,0.754,1.0,None,,,,,,1537894038.303314,1537894040.655255,,1.0,Place,0.0
11017,0.0,4.0,,,,,,,,,,28.104996855805506,,227,Memory,,,,,,,00957960627fa.jpg,Face,<,Place,,0.319,1.0,Side,,,,,,1537894042.055191,1537894044.439613,,1.0,Place,0.0
11018,0.0,4.0,,,,,,,,,,26.453702076106772,,228,Memory,,,,,,,00794960620fa.jpg,Face,<,Place,,0.485,1.0,Side,,,,,,1537894045.856258,1537894048.256916,,1.0,Place,0.0
11019,0.0,4.0,,,,,,,,,,28.104996855805506,,229,Memory,,,,,,,sunaiwfobocrruqznsv.jpg,Place,<,Place,,1.136,2.0,Category,,,,,,1537894049.641594,1537894051.99102,,2.0,Place,0.0
11020,0.0,4.0,,,,,,,,,,,,230,Memory,,,,,,,00720960620fa.jpg,Face,<,Place,,0.604,1.0,Novel,,,,,,1537894053.409329,1537894055.842384,,1.0,Place,0.0
11021,0.0,4.0,,,,,,,,,,28.00017715722657,,231,Memory,,,,,,,sunbdycacjfaujxitbw.jpg,Place,<,Place,,0.435,1.0,Category,,,,,,1537894057.260283,1537894059.628459,,2.0,Place,-1.0
11022,0.0,4.0,,,,,,,,,,29.18407355498164,,232,Memory,,,,,,,00805941205fa.jpg,Face,<,Place,,0.5529999999999999,1.0,None,,,,,,1537894061.011107,1537894063.37769,,1.0,Place,0.0
11023,0.0,4.0,,,,,,,,,,28.728216908382503,,233,Memory,,,,,,,00108960530fa.jpg,Face,<,Place,,0.321,1.0,Side,,,,,,1537894064.796515,1537894067.146744,,1.0,Place,0.0
11024,0.0,4.0,,,,,,,,,,28.728216908382503,,234,Memory,,,,,,,sunaajtnvzzpsjdzres.jpg,Place,<,Place,,1.171,3.0,Full,,,,,,1537894068.513932,1537894070.86406,,2.0,Place,1.0
11025,0.0,4.0,,,,,,,,,,26.448804865426734,,235,Memory,,,,,,,00775941205fa.jpg,Face,<,Place,,0.485,1.0,Side,,,,,,1537894072.315139,1537894074.699368,,1.0,Place,0.0
11026,0.0,4.0,,,,,,,,,,,,236,Memory,,,,,,,sunabmbnddafmywtjjj.jpg,Place,<,Place,,0.97,2.0,Novel,,,,,,1537894076.0491471,1537894078.46718,,2.0,Place,0.0
11027,0.0,4.0,,,,,,,,,,,,237,Memory,,,,,,,00972960627fa.jpg,Face,<,Place,,0.569,1.0,Novel,,,,,,1537894079.8514721,1537894082.301665,,1.0,Place,0.0
11028,0.0,4.0,,,,,,,,,,,,238,Memory,,,,,,,01011960627fa.jpg,Face,<,Place,,0.5539999999999999,2.0,Novel,,,,,,1537894083.668898,1537894086.019372,,1.0,Place,1.0
11029,0.0,4.0,,,,,,,,,,28.649343641468395,,239,Memory,,,,,,,sunaawqdbpihmlbwyyn.jpg,Place,<,Place,,0.584,3.0,Category,,,,,,1537894087.436988,1537894089.820443,,2.0,Place,1.0
11030,0.0,4.0,,,,,,,,,,28.00017715722657,,240,Memory,,,,,,,00979960627fa.jpg,Face,<,Place,,0.637,1.0,None,,,,,,1537894091.1875288,1537894093.588018,,1.0,Place,0.0
11031,0.0,4.0,,,,,,,,,,,,241,Memory,,,,,,,sunbxzweleltykebgan.jpg,Place,<,Place,,0.97,2.0,Novel,,,,,,1537894094.939116,1537894097.373427,,2.0,Place,0.0
11032,0.0,4.0,,,,,,,,,,,,242,Memory,,,,,,,sunasbbntuiheekqyaq.jpg,Place,<,Place,,0.868,3.0,Novel,,,,,,1537894098.7571552,1537894101.107658,,2.0,Place,1.0
11033,0.0,4.0,,,,,,,,,,,,243,Memory,,,,,,,sunaptrqvaooxfvktvw.jpg,Place,<,Place,,0.519,2.0,Novel,,,,,,1537894102.558228,1537894105.025134,,2.0,Place,0.0
11034,0.0,4.0,,,,,,,,,,,,244,Memory,,,,,,,sunatstrpjxhvtbaczf.jpg,Place,<,Place,,0.436,2.0,Novel,,,,,,1537894106.4759061,1537894108.727192,,2.0,Place,0.0
11035,0.0,4.0,,,,,,,,,,,,245,Memory,,,,,,,sunanainkqdvktzoxyl.jpg,Place,<,Place,,0.503,2.0,Novel,,,,,,1537894110.077923,1537894112.528534,,2.0,Place,0.0
11036,0.0,4.0,,,,,,,,,,28.649343641468395,,246,Memory,,,,,,,00185940422fb.jpg,Face,<,Place,,0.402,2.0,None,,,,,,1537894113.879381,1537894116.312423,,1.0,Place,1.0
11037,0.0,4.0,,,,,,,,,,,,247,Memory,,,,,,,01009960627fa.jpg,Face,<,Place,,0.5710000000000001,1.0,Novel,,,,,,1537894117.679866,1537894120.1299949,,1.0,Place,0.0
11038,0.0,4.0,,,,,,,,,,,,248,Memory,,,,,,,00271940422fa.jpg,Face,<,Place,,0.701,1.0,Novel,,,,,,1537894121.4967608,1537894123.848785,,1.0,Place,0.0
11039,0.0,4.0,,,,,,,,,,29.18407355498164,,249,Memory,,,,,,,sunagwzdbtlixdhgolm.jpg,Place,<,Place,,0.47,2.0,Category,,,,,,1537894125.216686,1537894127.73284,,2.0,Place,0.0
40,0.0,5.0,0.0,0.0,7.0,295931058.375,1537894222.75,3171.4615125,245.807,498.2718625,437.4521375,53.57667378540038,9.964195755208333,250,Presentation,00675941121fa_sunadoxcchtmsxewsau.jpg,00825940307fa_sunahrltmuwbiehihpe.jpg,00675941121fa.jpg,sunadoxcchtmsxewsau.jpg,00825940307fa.jpg,sunahrltmuwbiehihpe.jpg,,,<,Place,1.0669238567352295,,,,1.0,,,3.0,,1537894221.0464401,1537894224.4659631,o,,Place,
41,0.0,5.0,2.0,0.0,7.0,295942553.625,1537894234.0,2720.60715,389.8589500000001,2607.8348125,1733.6667625,77.79317122985839,30.968083307291668,252,Presentation,00935960627fa_sunaqbmgkgqucajzrkp.jpg,00779941205fa_sunagdzlvkqtpnfxfcg.jpg,00935960627fa.jpg,sunaqbmgkgqucajzrkp.jpg,00779941205fa.jpg,sunagdzlvkqtpnfxfcg.jpg,,,<,Place,0.8009829521179199,,,,1.0,,,3.0,,1537894232.600375,1537894235.868988,o,,Place,
42,0.0,5.0,3.0,0.0,7.0,295948764.0,1537894240.0,2667.9666,220.4959,13369.2207,71883.5,234.13667005371093,1051.516606875,253,Presentation,00977960627fa_sunbbxkanhzjgbwyxqs.jpg,00790941205fa_sunagpjzsbltchlwvou.jpg,00977960627fa.jpg,sunbbxkanhzjgbwyxqs.jpg,00790941205fa.jpg,sunagpjzsbltchlwvou.jpg,,,<,Place,0.4843311309814453,,,,1.0,,,1.0,,1537894237.985112,1537894241.253572,o,,Place,
43,0.0,5.0,4.0,0.0,7.0,295953964.0,1537894245.0,1676.92195,430.4685,1076.01965,-579.51405,40.191871992187494,-2.1735809375000015,254,Presentation,00828940307fa_sunahuynahneraqftyz.jpg,00663941121fa_sunadnjjzohjhbohlwq.jpg,00828940307fa.jpg,sunahuynahneraqftyz.jpg,00663941121fa.jpg,sunadnjjzohjhbohlwq.jpg,,,<,Place,0.7521710395812988,,,,1.0,,,3.0,,1537894243.087549,1537894246.404774,o,,Place,
44,0.0,5.0,5.0,0.0,7.0,295958767.0,1537894250.0,2069.9888666666666,329.08009999999996,1106.2827333333332,2565.0239333333334,46.37232462890625,42.20568381944445,255,Presentation,00082931230fa_sunaafvitpexrpvumsa.jpg,00795941205fa_sunagtumacdlmciqamz.jpg,00082931230fa.jpg,sunaafvitpexrpvumsa.jpg,00795941205fa.jpg,sunagtumacdlmciqamz.jpg,,,<,Place,1.2848289012908936,,,,1.0,,,1.0,,1537894248.590063,1537894251.872992,x,,Place,
45,0.0,5.0,6.0,0.0,7.0,295963706.6,1537894255.2,2672.9098,308.07866,9665.28184,14611.93418,180.1327783378906,217.58352058333335,256,Presentation,00574940928fa_sunacvbrcejzwmcgnoq.jpg,00136931230fb_sunaanptmsknhirrzed.jpg,00574940928fa.jpg,sunacvbrcejzwmcgnoq.jpg,00136931230fb.jpg,sunaanptmsknhirrzed.jpg,,,<,Place,0.7689130306243896,,,,1.0,,,1.0,,1537894254.474274,1537894257.775172,x,,Place,
46,0.0,5.0,7.0,0.0,7.0,295970921.15384614,1537894262.3846154,2898.5235461538464,338.04324615384616,2099.1943538461537,1164.3089769230771,72.9647291064453,21.909303253205128,257,Presentation,00481940519fa_sunabxsuqbleluwczoy.jpg,00294940422fb_sunabrlndkruqokhury.jpg,00481940519fa.jpg,sunabxsuqbleluwczoy.jpg,00294940422fb.jpg,sunabrlndkruqokhury.jpg,,,<,Place,1.2523469924926758,,,,1.0,,,3.0,,1537894259.927766,1537894263.3098788,o,,Place,
47,0.0,5.0,8.0,0.0,7.0,295975538.8,1537894266.9,2858.47148,294.87937999999997,1894.2951,995.7294699999999,69.38853551855468,18.8213790625,258,Presentation,00752960620fa_sunafbwnojpqeyzssoe.jpg,00719941201fa_sunadvithllcgmfxsrn.jpg,00752960620fa.jpg,sunafbwnojpqeyzssoe.jpg,00719941201fa.jpg,sunadvithllcgmfxsrn.jpg,,,<,Place,1.2849719524383545,,,,1.0,,,1.0,,1537894265.9278,1537894269.2624981,x,,Place,
48,0.0,5.0,9.0,0.0,7.0,295981923.0,1537894273.3333333,3480.3362666666667,394.61550000000005,1934.5557,1907.7940999999998,79.05530752115885,33.57680666666666,259,Presentation,00860940307fa_sunaizeyhvjzknwjudw.jpg,00949960627fb_sunasnqkkyhilqkxiqm.jpg,00860940307fa.jpg,sunaizeyhvjzknwjudw.jpg,00949960627fb.jpg,sunasnqkkyhilqkxiqm.jpg,,,<,Place,0.7672519683837891,,,,1.0,,,1.0,,1537894271.8972301,1537894275.181107,x,,Place,
10719,0.0,5.0,1.0,,,,,,,,,,,251,Presentation,00892960530fa_sunalntxqqadigcletd.jpg,00262940128fa_sunabizydfotqddlnjp.jpg,00892960530fa.jpg,sunalntxqqadigcletd.jpg,00262940128fa.jpg,sunabizydfotqddlnjp.jpg,,,<,Place,0.9997320175170898,,,,1.0,,,1.0,,1537894226.89868,1537894230.266836,x,,Place,
10960,0.0,5.0,,,,,,,,,,,,260,Memory,,,,,,,sunaaheqzstzxuadglu.jpg,Place,<,Place,,1.087,2.0,Novel,,,,,,1537894279.7660038,1537894282.3001552,,2.0,Place,0.0
10961,0.0,5.0,,,,,,,,,,,,261,Memory,,,,,,,sunbmaiocftdtvnzgap.jpg,Place,<,Place,,1.32,3.0,Novel,,,,,,1537894283.6840289,1537894285.984158,,2.0,Place,1.0
10962,0.0,5.0,,,,,,,,,,,,262,Memory,,,,,,,00092931230fa.jpg,Face,<,Place,,0.586,1.0,Novel,,,,,,1537894287.3512402,1537894289.753218,,1.0,Place,0.0
10963,0.0,5.0,,,,,,,,,,46.37232462890625,,263,Memory,,,,,,,sunagtumacdlmciqamz.jpg,Place,<,Place,,0.637,2.0,Category,,,,,,1537894291.136066,1537894293.5873,,2.0,Place,0.0
10964,0.0,5.0,,,,,,,,,,,,264,Memory,,,,,,,00908960530fa.jpg,Face,<,Place,,0.519,3.0,Novel,,,,,,1537894295.004018,1537894297.4378269,,1.0,Place,2.0
10965,0.0,5.0,,,,,,,,,,77.79317122985839,,265,Memory,,,,,,,00935960627fa.jpg,Face,<,Place,,0.354,1.0,Side,,,,,,1537894298.87349,1537894301.3061,,1.0,Place,0.0
10966,0.0,5.0,,,,,,,,,,,,266,Memory,,,,,,,00507940519fa.jpg,Face,<,Place,,0.5,1.0,Novel,,,,,,1537894302.7064528,1537894305.158612,,1.0,Place,0.0
10967,0.0,5.0,,,,,,,,,,79.05530752115885,,267,Memory,,,,,,,sunasnqkkyhilqkxiqm.jpg,Place,<,Place,,0.353,1.0,Category,,,,,,1537894306.542019,1537894309.093124,,2.0,Place,-1.0
10968,0.0,5.0,,,,,,,,,,,,268,Memory,,,,,,,00130931230fa.jpg,Face,<,Place,,0.77,1.0,Novel,,,,,,1537894310.576632,1537894313.01012,,1.0,Place,0.0
10969,0.0,5.0,,,,,,,,,,,,269,Memory,,,,,,,sunbloeoiozwjjsiamp.jpg,Place,<,Place,,0.601,1.0,Novel,,,,,,1537894314.44423,1537894316.860051,,2.0,Place,-1.0
10970,0.0,5.0,,,,,,,,,,79.05530752115885,,270,Memory,,,,,,,00949960627fb.jpg,Face,<,Place,,0.537,1.0,None,,,,,,1537894318.278704,1537894320.645887,,1.0,Place,0.0
10971,0.0,5.0,,,,,,,,,,72.9647291064453,,271,Memory,,,,,,,00481940519fa.jpg,Face,<,Place,,0.5670000000000001,2.0,Side,,,,,,1537894322.029375,1537894324.396598,,1.0,Place,1.0
10972,0.0,5.0,,,,,,,,,,,,272,Memory,,,,,,,sunanwjjyqqwzqrqagd.jpg,Place,<,Place,,0.9670000000000001,1.0,Novel,,,,,,1537894325.7972538,1537894328.115218,,2.0,Place,-1.0
10973,0.0,5.0,,,,,,,,,,72.9647291064453,,273,Memory,,,,,,,sunabxsuqbleluwczoy.jpg,Place,<,Place,,0.636,3.0,Full,,,,,,1537894329.532264,1537894331.848752,,2.0,Place,1.0
10974,0.0,5.0,,,,,,,,,,69.38853551855468,,274,Memory,,,,,,,sunadvithllcgmfxsrn.jpg,Place,<,Place,,0.504,2.0,Category,,,,,,1537894333.265593,1537894335.733904,,2.0,Place,0.0
10975,0.0,5.0,,,,,,,,,,,,275,Memory,,,,,,,sunafpfpiiujzoesnqg.jpg,Place,<,Place,,1.236,3.0,Novel,,,,,,1537894337.101034,1537894339.486026,,2.0,Place,1.0
10976,0.0,5.0,,,,,,,,,,234.13667005371093,,276,Memory,,,,,,,sunbbxkanhzjgbwyxqs.jpg,Place,<,Place,,0.821,3.0,Full,,,,,,1537894340.8526711,1537894343.3024368,,2.0,Place,1.0
10977,0.0,5.0,,,,,,,,,,,,277,Memory,,,,,,,sunacacflqoyxhsqzhe.jpg,Place,<,Place,,0.6509999999999999,1.0,Novel,,,,,,1537894344.703421,1537894347.0875561,,2.0,Place,-1.0
10978,0.0,5.0,,,,,,,,,,53.57667378540038,,278,Memory,,,,,,,00675941121fa.jpg,Face,<,Place,,0.35200000000000004,2.0,Side,,,,,,1537894348.488227,1537894350.855608,,1.0,Place,1.0
10979,0.0,5.0,,,,,,,,,,,,279,Memory,,,,,,,00111931230fb.jpg,Face,<,Place,,0.386,1.0,Novel,,,,,,1537894352.189605,1537894354.690748,,1.0,Place,0.0
10980,0.0,5.0,,,,,,,,,,,,280,Memory,,,,,,,00987960627fa.jpg,Face,<,Place,,0.387,1.0,Novel,,,,,,1537894356.0570982,1537894358.425067,,1.0,Place,0.0
10981,0.0,5.0,,,,,,,,,,77.79317122985839,,281,Memory,,,,,,,sunaqbmgkgqucajzrkp.jpg,Place,<,Place,,0.368,1.0,Full,,,,,,1537894359.792152,1537894362.2089221,,2.0,Place,-1.0
10982,0.0,5.0,,,,,,,,,,53.57667378540038,,282,Memory,,,,,,,00825940307fa.jpg,Face,<,Place,,0.537,1.0,None,,,,,,1537894363.676602,1537894366.0764868,,1.0,Place,0.0
10983,0.0,5.0,,,,,,,,,,,,283,Memory,,,,,,,00620940928fa.jpg,Face,<,Place,,0.48700000000000004,1.0,Novel,,,,,,1537894367.477006,1537894369.778042,,1.0,Place,0.0
10984,0.0,5.0,,,,,,,,,,46.37232462890625,,284,Memory,,,,,,,00795941205fa.jpg,Face,<,Place,,0.435,1.0,None,,,,,,1537894371.162678,1537894373.630614,,1.0,Place,0.0
10985,0.0,5.0,,,,,,,,,,53.57667378540038,,285,Memory,,,,,,,sunahrltmuwbiehihpe.jpg,Place,<,Place,,0.385,2.0,Category,,,,,,1537894374.981003,1537894377.38095,,2.0,Place,0.0
10986,0.0,5.0,,,,,,,,,,,,286,Memory,,,,,,,00772941201fa.jpg,Face,<,Place,,0.522,1.0,Novel,,,,,,1537894378.8323278,1537894381.349295,,1.0,Place,0.0
10987,0.0,5.0,,,,,,,,,,,,287,Memory,,,,,,,00990960627fa.jpg,Face,<,Place,,0.535,1.0,Novel,,,,,,1537894382.699696,1537894385.0670052,,1.0,Place,0.0
10988,0.0,5.0,,,,,,,,,,40.191871992187494,,288,Memory,,,,,,,sunahuynahneraqftyz.jpg,Place,<,Place,,0.637,3.0,Full,,,,,,1537894386.484548,1537894388.901501,,2.0,Place,1.0
10989,0.0,5.0,,,,,,,,,,,,289,Memory,,,,,,,00988960627fa.jpg,Face,<,Place,,0.501,1.0,Novel,,,,,,1537894390.351991,1537894392.669043,,1.0,Place,0.0
10990,0.0,5.0,,,,,,,,,,180.1327783378906,,290,Memory,,,,,,,00136931230fb.jpg,Face,<,Place,,0.6709999999999999,2.0,None,,,,,,1537894394.104116,1537894396.5371199,,1.0,Place,1.0
10991,0.0,5.0,,,,,,,,,,,,291,Memory,,,,,,,sunaamvxnvouicstkjb.jpg,Place,<,Place,,1.037,3.0,Novel,,,,,,1537894397.937089,1537894400.356134,,2.0,Place,1.0
10992,0.0,5.0,,,,,,,,,,,,292,Memory,,,,,,,sunaakgekhjklxmvulj.jpg,Place,<,Place,,0.818,3.0,Novel,,,,,,1537894401.755811,1537894404.340417,,2.0,Place,1.0
10993,0.0,5.0,,,,,,,,,,180.1327783378906,,293,Memory,,,,,,,sunaanptmsknhirrzed.jpg,Place,<,Place,,0.703,3.0,Category,,,,,,1537894405.773664,1537894408.107908,,2.0,Place,1.0
10994,0.0,5.0,,,,,,,,,,53.57667378540038,,294,Memory,,,,,,,sunadoxcchtmsxewsau.jpg,Place,<,Place,,0.721,2.0,Full,,,,,,1537894409.5420039,1537894411.975749,,2.0,Place,0.0
10995,0.0,5.0,,,,,,,,,,,,295,Memory,,,,,,,sunacypmnujalygkunp.jpg,Place,<,Place,,0.887,3.0,Novel,,,,,,1537894413.4259331,1537894415.960427,,2.0,Place,1.0
10996,0.0,5.0,,,,,,,,,,40.191871992187494,,296,Memory,,,,,,,00828940307fa.jpg,Face,<,Place,,0.703,1.0,Side,,,,,,1537894417.360372,1537894419.845165,,1.0,Place,0.0
10997,0.0,5.0,,,,,,,,,,69.38853551855468,,297,Memory,,,,,,,00719941201fa.jpg,Face,<,Place,,0.57,1.0,None,,,,,,1537894421.2785358,1537894423.530016,,1.0,Place,0.0
10998,0.0,5.0,,,,,,,,,,234.13667005371093,,298,Memory,,,,,,,00977960627fa.jpg,Face,<,Place,,0.486,1.0,Side,,,,,,1537894424.9466698,1537894427.447668,,1.0,Place,0.0
10999,0.0,5.0,,,,,,,,,,,,299,Memory,,,,,,,sunbpflsdaxnddnwcqi.jpg,Place,<,Place,,0.721,3.0,Novel,,,,,,1537894428.782171,1537894431.082182,,2.0,Place,1.0
49,0.0,6.0,0.0,0.8857142857142857,7.0,296248997.62857145,1537894540.4571428,692.3270419047617,677.8678742857145,618.424417142857,600.6718409523811,19.13645928980654,18.645370847222225,300,Presentation,00834940307fa_sunaibnpvhkdpdnzcnz.jpg,00609940928fa_sunacycdoztxoluxjyk.jpg,00834940307fa.jpg,sunaibnpvhkdpdnzcnz.jpg,00609940928fa.jpg,sunacycdoztxoluxjyk.jpg,,,>,Place,0.8186690807342529,,,,1.0,,,3.0,,1537894538.651319,1537894542.118338,o,,Place,
50,0.0,6.0,1.0,0.44285714285714284,7.0,296254499.55714285,1537894545.9857142,854.6348571428573,686.0319571428571,610.4492600000002,585.1541428571428,21.389655811802452,18.538130624999997,301,Presentation,00914960620fa_sunaozisvwfbmlkfhzv.jpg,00744941201fa_sunaeomlfaabhpswasy.jpg,00914960620fa.jpg,sunaozisvwfbmlkfhzv.jpg,00744941201fa.jpg,sunaeomlfaabhpswasy.jpg,,,>,Place,0.7837491035461426,,,,1.0,,,1.0,,1537894544.236367,1537894547.536632,x,,Place,
51,0.0,6.0,2.0,0.0,7.0,296259956.38235295,1537894551.5,1114.6967529411763,578.5967205882355,587.5013117647057,597.8726382352943,24.851426823586852,17.15684481617647,302,Presentation,00919960620fa_sunapmfmzadmosuogaz.jpg,00210940128fb_sunabanoxjtqxamkucc.jpg,00919960620fa.jpg,sunapmfmzadmosuogaz.jpg,00210940128fb.jpg,sunabanoxjtqxamkucc.jpg,,,>,Place,0.7689399719238281,,,,1.0,,,1.0,,1537894549.65409,1537894552.954232,x,,Place,
52,0.0,6.0,3.0,0.05555555555555555,7.0,296265583.8888889,1537894557.1111112,955.6312574074075,550.7786481481481,608.469024074074,680.0800685185187,22.835253132957174,17.95002295138889,303,Presentation,00071940128fa_sunaaexpnawiehinlpy.jpg,00778941205fa_sunagcthdfirrcawoic.jpg,00071940128fa.jpg,sunaaexpnawiehinlpy.jpg,00778941205fa.jpg,sunagcthdfirrcawoic.jpg,,,>,Place,0.8021759986877441,,,,1.0,,,1.0,,1537894555.0889142,1537894558.455456,x,,Place,
53,0.0,6.0,4.0,0.14285714285714285,7.0,296270421.63265306,1537894561.877551,882.2124326530612,619.3362408163268,560.141330612245,642.8806897959186,21.05780152423469,18.40733023809524,304,Presentation,00958960627fa_sunavspxmxubqaeidjt.jpg,00926960627Fa_sunapqwoeotxshkukbh.jpg,00958960627fa.jpg,sunavspxmxubqaeidjt.jpg,00926960627Fa.jpg,sunapqwoeotxshkukbh.jpg,,,>,Place,0.5010471343994141,,,,1.0,,,1.0,,1537894560.591041,1537894563.892459,o,,Place,
54,0.0,6.0,5.0,0.08571428571428572,7.0,296276114.0285714,1537894567.6857142,972.9426571428572,590.8348085714287,951.4290971428571,386.35165714285716,28.0950759048549,14.250635958333335,305,Presentation,00878960530fa_sunakgbnzxmfohgehnu.jpg,00827940307fa_sunahtfxgsrmkiulnwk.jpg,00878960530fa.jpg,sunakgbnzxmfohgehnu.jpg,00827940307fa.jpg,sunahtfxgsrmkiulnwk.jpg,,,>,Place,0.6679749488830566,,,,1.0,,,1.0,,1537894565.726476,1537894569.042931,x,,Place,
55,0.0,6.0,6.0,0.05555555555555555,7.0,296281864.75,1537894573.3888888,1013.3283138888887,514.6287166666667,990.8502083333331,371.01551388888885,29.260223542209197,12.915645028935185,306,Presentation,00862940307fa_sunaizgnnplsvajzhkc.jpg,00239940128fa_sunabctlikybqabezjv.jpg,00862940307fa.jpg,sunaizgnnplsvajzhkc.jpg,00239940128fa.jpg,sunabctlikybqabezjv.jpg,,,>,Place,0.8349380493164062,,,,1.0,,,3.0,,1537894571.010903,1537894574.278745,o,,Place,
56,0.0,6.0,7.0,0.0,7.0,296287345.2307692,1537894578.6923077,1420.7515230769231,468.96279230769227,2134.957438461538,102.46009230769232,51.91196188964844,8.333250400641024,307,Presentation,00866940307fa_sunajbwkywmsqkldfml.jpg,00727941205fa_sunaeisnjeetzmkbuad.jpg,00866940307fa.jpg,sunajbwkywmsqkldfml.jpg,00727941205fa.jpg,sunaeisnjeetzmkbuad.jpg,,,>,Place,0.9513139724731444,,,,1.0,,,1.0,,1537894576.4629278,1537894579.781188,x,,Place,
57,0.0,6.0,8.0,0.21212121212121213,7.0,296292356.1515151,1537894583.7878788,920.0618999999998,541.5648545454549,717.7905121212121,481.29430909090894,23.912005430871208,14.916696136363637,308,Presentation,00725941201fa_sunaefgzwiramypjvtd.jpg,00818940307fa_sunahpblecxtmuzkmxb.jpg,00725941201fa.jpg,sunaefgzwiramypjvtd.jpg,00818940307fa.jpg,sunahpblecxtmuzkmxb.jpg,,,>,Place,0.7689800262451172,,,,1.0,,,1.0,,1537894582.11431,1537894585.366934,o,,Place,
58,0.0,6.0,9.0,0.0,7.0,296297842.5,1537894589.0,1630.50365,486.7246,1430.63155,443.45225,44.6913781640625,13.565079062499999,309,Presentation,00787960620fa_sunagoufulkpsxrmklt.jpg,00505960627fa_sunabzuqsrgcsonqlkz.jpg,00787960620fa.jpg,sunagoufulkpsxrmklt.jpg,00505960627fa.jpg,sunabzuqsrgcsonqlkz.jpg,,,>,Place,0.9328410625457764,,,,1.0,,,3.0,,1537894587.482489,1537894590.8004131,o,,Place,
10880,0.0,6.0,,,,,,,,,,,,310,Memory,,,,,,,00221940128fa.jpg,Face,>,Place,,0.621,1.0,Novel,,,,,,1537894595.11838,1537894597.619268,,1.0,Place,0.0
10881,0.0,6.0,,,,,,,,,,,,311,Memory,,,,,,,00636941031fa.jpg,Face,>,Place,,0.40299999999999997,1.0,Novel,,,,,,1537894598.954181,1537894601.438201,,1.0,Place,0.0
10882,0.0,6.0,,,,,,,,,,,,312,Memory,,,,,,,sunaddtdkycxbqlpfqa.jpg,Place,>,Place,,0.754,3.0,Novel,,,,,,1537894602.837524,1537894605.204821,,2.0,Place,1.0
10883,0.0,6.0,,,,,,,,,,19.13645928980654,,313,Memory,,,,,,,sunaibnpvhkdpdnzcnz.jpg,Place,>,Place,,0.903,3.0,Full,,,,,,1537894606.571728,1537894608.8735151,,2.0,Place,1.0
10884,0.0,6.0,,,,,,,,,,21.389655811802452,,314,Memory,,,,,,,00914960620fa.jpg,Face,>,Place,,0.504,2.0,Side,,,,,,1537894610.274817,1537894612.874373,,1.0,Place,1.0
10885,0.0,6.0,,,,,,,,,,,,315,Memory,,,,,,,00071941031fa.jpg,Face,>,Place,,0.602,1.0,Novel,,,,,,1537894614.291717,1537894616.6924481,,1.0,Place,0.0
10886,0.0,6.0,,,,,,,,,,,,316,Memory,,,,,,,sunaeutbrtswvsozxyk.jpg,Place,>,Place,,0.62,1.0,Novel,,,,,,1537894618.0926561,1537894620.4437099,,2.0,Place,-1.0
10887,0.0,6.0,,,,,,,,,,19.13645928980654,,317,Memory,,,,,,,00609940928fa.jpg,Face,>,Place,,0.619,2.0,None,,,,,,1537894621.826996,1537894624.1609302,,1.0,Place,1.0
10888,0.0,6.0,,,,,,,,,,24.851426823586852,,318,Memory,,,,,,,sunabanoxjtqxamkucc.jpg,Place,>,Place,,0.586,3.0,Category,,,,,,1537894625.595063,1537894627.8949401,,2.0,Place,1.0
10889,0.0,6.0,,,,,,,,,,21.05780152423469,,319,Memory,,,,,,,00926960627Fa.jpg,Face,>,Place,,0.369,2.0,None,,,,,,1537894629.296185,1537894631.697542,,1.0,Place,1.0
10890,0.0,6.0,,,,,,,,,,,,320,Memory,,,,,,,sunaafgqutfaishsxyu.jpg,Place,>,Place,,0.736,3.0,Novel,,,,,,1537894633.131186,1537894635.715672,,2.0,Place,1.0
10891,0.0,6.0,,,,,,,,,,,,321,Memory,,,,,,,00077931230fb.jpg,Face,>,Place,,0.784,1.0,Novel,,,,,,1537894637.131644,1537894639.616805,,1.0,Place,0.0
10892,0.0,6.0,,,,,,,,,,21.389655811802452,,322,Memory,,,,,,,sunaozisvwfbmlkfhzv.jpg,Place,>,Place,,0.504,2.0,Full,,,,,,1537894641.018483,1537894643.483991,,2.0,Place,0.0
10893,0.0,6.0,,,,,,,,,,22.835253132957174,,323,Memory,,,,,,,00071940128fa.jpg,Face,>,Place,,0.82,1.0,Side,,,,,,1537894644.850872,1537894647.218226,,1.0,Place,0.0
10894,0.0,6.0,,,,,,,,,,,,324,Memory,,,,,,,sunabcfpwlpolnutyju.jpg,Place,>,Place,,0.5710000000000001,2.0,Novel,,,,,,1537894648.651792,1537894650.919458,,2.0,Place,0.0
10895,0.0,6.0,,,,,,,,,,19.13645928980654,,325,Memory,,,,,,,sunacycdoztxoluxjyk.jpg,Place,>,Place,,0.603,3.0,Category,,,,,,1537894652.452871,1537894654.838629,,2.0,Place,1.0
10896,0.0,6.0,,,,,,,,,,,,326,Memory,,,,,,,00305940422fa.jpg,Face,>,Place,,0.369,1.0,Novel,,,,,,1537894656.238602,1537894658.639659,,1.0,Place,0.0
10897,0.0,6.0,,,,,,,,,,21.05780152423469,,327,Memory,,,,,,,sunapqwoeotxshkukbh.jpg,Place,>,Place,,0.903,2.0,Category,,,,,,1537894659.989857,1537894662.373882,,2.0,Place,0.0
10898,0.0,6.0,,,,,,,,,,,,328,Memory,,,,,,,01005960627fa.jpg,Face,>,Place,,0.653,1.0,Novel,,,,,,1537894663.7911391,1537894666.19123,,1.0,Place,0.0
10899,0.0,6.0,,,,,,,,,,24.851426823586852,,329,Memory,,,,,,,00210940128fb.jpg,Face,>,Place,,0.52,1.0,None,,,,,,1537894667.6083179,1537894669.959801,,1.0,Place,0.0
10900,0.0,6.0,,,,,,,,,,,,330,Memory,,,,,,,00296940422fa.jpg,Face,>,Place,,0.473,1.0,Novel,,,,,,1537894671.327372,1537894673.910893,,1.0,Place,0.0
10901,0.0,6.0,,,,,,,,,,,,331,Memory,,,,,,,sunbwyuesflwdpqtgoy.jpg,Place,>,Place,,0.40299999999999997,1.0,Novel,,,,,,1537894675.279526,1537894677.829027,,2.0,Place,-1.0
10902,0.0,6.0,,,,,,,,,,,,332,Memory,,,,,,,sunabrwnslxalcohfre.jpg,Place,>,Place,,0.43700000000000006,2.0,Novel,,,,,,1537894679.2631528,1537894681.4457982,,2.0,Place,0.0
10903,0.0,6.0,,,,,,,,,,44.6913781640625,,333,Memory,,,,,,,sunagoufulkpsxrmklt.jpg,Place,>,Place,,0.6859999999999999,3.0,Full,,,,,,1537894682.830738,1537894685.299088,,2.0,Place,1.0
10904,0.0,6.0,,,,,,,,,,,,334,Memory,,,,,,,00264940128fb.jpg,Face,>,Place,,0.8029999999999999,1.0,Novel,,,,,,1537894686.66519,1537894689.115794,,1.0,Place,0.0
10905,0.0,6.0,,,,,,,,,,51.91196188964844,,335,Memory,,,,,,,sunaeisnjeetzmkbuad.jpg,Place,>,Place,,0.6,1.0,Category,,,,,,1537894690.4498632,1537894692.9174461,,2.0,Place,-1.0
10906,0.0,6.0,,,,,,,,,,,,336,Memory,,,,,,,sunagvxkjokqimstxpe.jpg,Place,>,Place,,0.687,2.0,Novel,,,,,,1537894694.351141,1537894696.834832,,2.0,Place,0.0
10907,0.0,6.0,,,,,,,,,,,,337,Memory,,,,,,,00803941205fa.jpg,Face,>,Place,,0.654,1.0,Novel,,,,,,1537894698.2687302,1537894700.720368,,1.0,Place,0.0
10908,0.0,6.0,,,,,,,,,,21.389655811802452,,338,Memory,,,,,,,sunaeomlfaabhpswasy.jpg,Place,>,Place,,0.721,2.0,Category,,,,,,1537894702.086583,1537894704.654465,,2.0,Place,0.0
10909,0.0,6.0,,,,,,,,,,,,339,Memory,,,,,,,sunabtrnbvpppgczjim.jpg,Place,>,Place,,0.772,3.0,Novel,,,,,,1537894706.0380971,1537894708.48915,,2.0,Place,1.0
10910,0.0,6.0,,,,,,,,,,21.389655811802452,,340,Memory,,,,,,,00744941201fa.jpg,Face,>,Place,,0.653,1.0,None,,,,,,1537894709.85632,1537894712.2735538,,1.0,Place,0.0
10911,0.0,6.0,,,,,,,,,,,,341,Memory,,,,,,,00747941201fa.jpg,Face,>,Place,,0.621,1.0,Novel,,,,,,1537894713.673636,1537894716.008108,,1.0,Place,0.0
10912,0.0,6.0,,,,,,,,,,19.13645928980654,,342,Memory,,,,,,,00834940307fa.jpg,Face,>,Place,,0.536,1.0,Side,,,,,,1537894717.4082491,1537894719.7433221,,1.0,Place,0.0
10913,0.0,6.0,,,,,,,,,,23.912005430871208,,343,Memory,,,,,,,00725941201fa.jpg,Face,>,Place,,0.47,1.0,Side,,,,,,1537894721.109424,1537894723.543469,,1.0,Place,0.0
10914,0.0,6.0,,,,,,,,,,44.6913781640625,,344,Memory,,,,,,,00787960620fa.jpg,Face,>,Place,,0.52,1.0,Side,,,,,,1537894724.911182,1537894727.312241,,1.0,Place,0.0
10915,0.0,6.0,,,,,,,,,,,,345,Memory,,,,,,,sunabjzyxcjnmztdonj.jpg,Place,>,Place,,0.33799999999999997,1.0,Novel,,,,,,1537894728.678742,1537894731.16314,,2.0,Place,-1.0
10916,0.0,6.0,,,,,,,,,,22.835253132957174,,346,Memory,,,,,,,sunaaexpnawiehinlpy.jpg,Place,>,Place,,0.621,3.0,Full,,,,,,1537894732.547137,1537894734.964926,,2.0,Place,1.0
10917,0.0,6.0,,,,,,,,,,,,347,Memory,,,,,,,sunaaexqbtdswxrqjvz.jpg,Place,>,Place,,0.584,2.0,Novel,,,,,,1537894736.365323,1537894738.933068,,2.0,Place,0.0
10918,0.0,6.0,,,,,,,,,,51.91196188964844,,348,Memory,,,,,,,00727941205fa.jpg,Face,>,Place,,0.467,1.0,None,,,,,,1537894740.3160381,1537894742.799469,,1.0,Place,0.0
10919,0.0,6.0,,,,,,,,,,23.912005430871208,,349,Memory,,,,,,,sunaefgzwiramypjvtd.jpg,Place,>,Place,,0.46799999999999997,1.0,Full,,,,,,1537894744.2014349,1537894746.5503259,,2.0,Place,-1.0
59,0.0,7.0,0.0,0.0,7.0,296576751.95454544,1537894868.090909,968.1761999999999,295.33625,1143882.8002045455,501.05014545454543,16714.377048093706,11.613968267045454,350,Presentation,00811960530fa_sunahedfrhtcwpneund.jpg,00909960530_sunaobtizabegtwfwul.jpg,00811960530fa.jpg,sunahedfrhtcwpneund.jpg,00909960530.jpg,sunaobtizabegtwfwul.jpg,,,<,Face,1.0185258388519287,,,,0.0,,,3.0,,1537894866.35712,1537894869.84147,o,,Face,
60,0.0,7.0,1.0,0.0,7.0,296582546.2307692,1537894874.0769231,1022.5585743589745,281.16277948717953,1476863.8509615385,64.43698974358973,21576.564279845374,5.039996634615385,351,Presentation,00971960627fa_sunbbegcweqnetpdlrh.jpg,00194940128fb_sunaayehfdqcyxggsej.jpg,00971960627fa.jpg,sunbbegcweqnetpdlrh.jpg,00194940128fb.jpg,sunaayehfdqcyxggsej.jpg,,,<,Face,1.0349659919738772,,,,1.0,,,3.0,,1537894872.1925519,1537894875.543842,o,,Face,
61,0.0,7.0,2.0,0.0,7.0,296588194.483871,1537894879.6774194,785.336970967742,452.4141,1019125.1801774194,387.9534516129032,14890.29514782069,12.25536012768817,352,Presentation,00768941205fa_sunafkmnlytenlsywia.jpg,00197940128fa_sunaaylzyqlqrsmfwif.jpg,00768941205fa.jpg,sunafkmnlytenlsywia.jpg,00197940128fa.jpg,sunaaylzyqlqrsmfwif.jpg,,,<,Face,1.1019699573516846,,,,0.0,,,1.0,,1537894878.01089,1537894881.412284,x,,Face,
62,0.0,7.0,3.0,0.0,7.0,296594474.0851064,1537894885.8723404,800.9710893617023,337.5780063829788,1388495.9461212766,610.0613382978725,20283.192297167036,13.819740443262411,353,Presentation,00782941205fa_sunagfvluwixdsozaql.jpg,00598941031fa_sunacxtcahkymosigud.jpg,00782941205fa.jpg,sunagfvluwixdsozaql.jpg,00598941031fa.jpg,sunacxtcahkymosigud.jpg,,,<,Face,0.9334628582000732,,,,1.0,,,3.0,,1537894883.863388,1537894887.1965811,o,,Face,
63,0.0,7.0,4.0,0.0,7.0,296599751.0,1537894891.255319,869.0839276595743,346.0507638297873,1430060.3382851062,584.6484106382977,20891.010607500833,13.572696294326244,354,Presentation,00543940519fa_sunacepzfrmtkiqonpy.jpg,00963960627fa_sunayaepykrqvenaqqy.jpg,00543940519fa.jpg,sunacepzfrmtkiqonpy.jpg,00963960627fa.jpg,sunayaepykrqvenaqqy.jpg,,,<,Face,1.0188109874725342,,,,0.0,,,1.0,,1537894889.481504,1537894892.86521,x,,Face,
64,0.0,7.0,5.0,0.0,7.0,296605848.2619048,1537894897.2619047,870.2321000000002,322.02722857142845,1279872.0238071429,665.9181571428571,18698.336646300566,14.407536875,355,Presentation,00762941201fa_sunafgzgbisbopcyslr.jpg,00650941031fa_sunadikxpvqeabxrvvc.jpg,00762941201fa.jpg,sunafgzgbisbopcyslr.jpg,00650941031fa.jpg,sunadikxpvqeabxrvvc.jpg,,,<,Face,1.0178170204162598,,,,1.0,,,3.0,,1537894895.2166321,1537894898.617455,o,,Face,
65,0.0,7.0,6.0,0.0,7.0,296610911.6122449,1537894902.367347,784.8673540816327,325.70402142857137,1447640.7809306122,678.8546112244896,21146.448673687668,14.64981339285714,356,Presentation,00742941201fa_sunaenwuebvlpdmntju.jpg,00783941205fa_sunagjeesomrwjsfqie.jpg,00742941201fa.jpg,sunaenwuebvlpdmntju.jpg,00783941205fa.jpg,sunagjeesomrwjsfqie.jpg,,,<,Face,0.5526211261749268,,,,1.0,,,1.0,,1537894900.968993,1537894904.353606,x,,Face,
66,0.0,7.0,7.0,0.0,7.0,296616547.3670886,1537894908.0,711.6116075949367,312.5555202531645,1324546.8002379746,733.9176620253162,19348.255133878185,15.261067241561184,357,Presentation,00766960620fa_sunafijbgncijwykrnl.jpg,00647941031fa_sunadflbrkckmepztql.jpg,00766960620fa.jpg,sunafijbgncijwykrnl.jpg,00647941031fa.jpg,sunadflbrkckmepztql.jpg,,,<,Face,0.667456865310669,,,,1.0,,,1.0,,1537894906.254235,1537894909.670834,x,,Face,
67,0.0,7.0,8.0,0.0,7.0,296621778.53424656,1537894913.2191782,791.672465753425,302.1506424657533,1519633.9659671232,673.6359342465756,22197.620404854977,14.230220910388129,358,Presentation,00482940519fa_sunabyfxcxhdebvdyfd.jpg,00858940307fa_sunaixpqndlwhwjtjek.jpg,00482940519fa.jpg,sunabyfxcxhdebvdyfd.jpg,00858940307fa.jpg,sunaixpqndlwhwjtjek.jpg,,,<,Face,0.7160720825195312,,,,1.0,,,1.0,,1537894911.67065,1537894915.0395381,x,,Face,
68,0.0,7.0,9.0,0.0,7.0,296627220.1730769,1537894918.7115386,890.709167307692,313.0614557692308,1499164.9909865386,705.5198230769232,21900.227262988286,14.85431031650641,359,Presentation,00835940307fa_sunaijsqpvodplbwxkf.jpg,00063931230fa_sunaaelyvurpntclgau.jpg,00835940307fa.jpg,sunaijsqpvodplbwxkf.jpg,00063931230fa.jpg,sunaaelyvurpntclgau.jpg,,,<,Face,0.5846929550170898,,,,1.0,,,1.0,,1537894917.105717,1537894920.37445,x,,Face,
10920,0.0,7.0,,,,,,,,,,21900.227262988286,,360,Memory,,,,,,,00063931230fa.jpg,Face,<,Face,,0.72,1.0,Category,,,,,,1537894924.276093,1537894926.87678,,1.8,Face,-0.8
10921,0.0,7.0,,,,,,,,,,21146.448673687668,,361,Memory,,,,,,,sunagjeesomrwjsfqie.jpg,Place,<,Face,,1.002,1.0,None,,,,,,1537894928.260107,1537894930.6447551,,1.6,Face,-0.6000000000000001
10922,0.0,7.0,,,,,,,,,,,,362,Memory,,,,,,,sunahbvlpavurqoxdeq.jpg,Place,<,Face,,0.754,2.0,Novel,,,,,,1537894932.0118382,1537894934.496152,,1.6,Face,0.3999999999999999
10923,0.0,7.0,,,,,,,,,,,,363,Memory,,,,,,,sunahwgbqkqcrwprgvh.jpg,Place,<,Face,,0.638,1.0,Novel,,,,,,1537894936.146211,1537894938.664097,,1.6,Face,-0.6000000000000001
10924,0.0,7.0,,,,,,,,,,20891.010607500833,,364,Memory,,,,,,,00543940519fa.jpg,Face,<,Face,,0.769,2.0,Full,,,,,,1537894939.997741,1537894942.481812,,1.8,Face,0.19999999999999996
10925,0.0,7.0,,,,,,,,,,,,365,Memory,,,,,,,00829940307fa.jpg,Face,<,Face,,0.7020000000000001,1.0,Novel,,,,,,1537894943.932413,1537894946.399849,,1.8,Face,-0.8
10926,0.0,7.0,,,,,,,,,,19348.255133878185,,366,Memory,,,,,,,00647941031fa.jpg,Face,<,Face,,0.503,2.0,Category,,,,,,1537894947.766736,1537894950.168454,,1.8,Face,0.19999999999999996
10927,0.0,7.0,,,,,,,,,,16714.377048093706,,367,Memory,,,,,,,sunahedfrhtcwpneund.jpg,Place,<,Face,,0.45299999999999996,2.0,Side,,,,,,1537894951.551967,1537894953.935439,,1.6,Face,0.3999999999999999
10928,0.0,7.0,,,,,,,,,,,,368,Memory,,,,,,,sunaaftlyfudyzuhqzf.jpg,Place,<,Face,,0.503,3.0,Novel,,,,,,1537894955.402917,1537894957.702349,,1.6,Face,1.4
10929,0.0,7.0,,,,,,,,,,20891.010607500833,,369,Memory,,,,,,,sunayaepykrqvenaqqy.jpg,Place,<,Face,,0.304,2.0,None,,,,,,1537894959.103758,1537894961.370316,,1.6,Face,0.3999999999999999
10930,0.0,7.0,,,,,,,,,,,,370,Memory,,,,,,,00193940928fa.jpg,Face,<,Face,,0.736,1.0,Novel,,,,,,1537894962.755389,1537894965.071942,,1.8,Face,-0.8
10931,0.0,7.0,,,,,,,,,,,,371,Memory,,,,,,,00153931230fa.jpg,Face,<,Face,,0.7709999999999999,2.0,Novel,,,,,,1537894966.489172,1537894968.907253,,1.8,Face,0.19999999999999996
10932,0.0,7.0,,,,,,,,,,21146.448673687668,,372,Memory,,,,,,,00742941201fa.jpg,Face,<,Face,,0.48700000000000004,2.0,Full,,,,,,1537894970.3252358,1537894972.757543,,1.8,Face,0.19999999999999996
10933,0.0,7.0,,,,,,,,,,20891.010607500833,,373,Memory,,,,,,,00963960627fa.jpg,Face,<,Face,,0.436,2.0,Category,,,,,,1537894974.159379,1537894976.475799,,1.8,Face,0.19999999999999996
10934,0.0,7.0,,,,,,,,,,18698.336646300566,,374,Memory,,,,,,,00762941201fa.jpg,Face,<,Face,,0.455,2.0,Full,,,,,,1537894977.810366,1537894980.2446449,,1.8,Face,0.19999999999999996
10935,0.0,7.0,,,,,,,,,,,,375,Memory,,,,,,,00670941121fa.jpg,Face,<,Face,,0.353,2.0,Novel,,,,,,1537894981.628623,1537894984.0453,,1.8,Face,0.19999999999999996
10936,0.0,7.0,,,,,,,,,,21146.448673687668,,376,Memory,,,,,,,00783941205fa.jpg,Face,<,Face,,0.836,1.0,Category,,,,,,1537894985.396277,1537894987.7798939,,1.8,Face,-0.8
10937,0.0,7.0,,,,,,,,,,,,377,Memory,,,,,,,00777941205fa.jpg,Face,<,Face,,0.386,2.0,Novel,,,,,,1537894989.130458,1537894991.4144099,,1.8,Face,0.19999999999999996
10938,0.0,7.0,,,,,,,,,,20283.192297167036,,378,Memory,,,,,,,sunacxtcahkymosigud.jpg,Place,<,Face,,0.505,1.0,None,,,,,,1537894992.848531,1537894995.316375,,1.6,Face,-0.6000000000000001
10939,0.0,7.0,,,,,,,,,,,,379,Memory,,,,,,,00809960620fa.jpg,Face,<,Face,,0.536,2.0,Novel,,,,,,1537894996.7665641,1537894999.317026,,1.8,Face,0.19999999999999996
10940,0.0,7.0,,,,,,,,,,20891.010607500833,,380,Memory,,,,,,,sunacepzfrmtkiqonpy.jpg,Place,<,Face,,0.503,1.0,Side,,,,,,1537895000.718035,1537895003.235157,,1.6,Face,-0.6000000000000001
10941,0.0,7.0,,,,,,,,,,14890.29514782069,,381,Memory,,,,,,,00768941205fa.jpg,Face,<,Face,,0.62,2.0,Full,,,,,,1537895004.6189,1537895007.002166,,1.8,Face,0.19999999999999996
10942,0.0,7.0,,,,,,,,,,,,382,Memory,,,,,,,00081941031fa.jpg,Face,<,Face,,0.655,2.0,Novel,,,,,,1537895008.535988,1537895010.9366062,,1.8,Face,0.19999999999999996
10943,0.0,7.0,,,,,,,,,,,,383,Memory,,,,,,,sunabeyhmxodahoieyk.jpg,Place,<,Face,,0.57,1.0,Novel,,,,,,1537895012.3377788,1537895014.572207,,1.6,Face,-0.6000000000000001
10944,0.0,7.0,,,,,,,,,,,,384,Memory,,,,,,,sunaaxjpzcnxligjtjq.jpg,Place,<,Face,,0.552,2.0,Novel,,,,,,1537895015.95581,1537895018.305521,,1.6,Face,0.3999999999999999
10945,0.0,7.0,,,,,,,,,,,,385,Memory,,,,,,,sunaakvmbftkrgqhjun.jpg,Place,<,Face,,0.519,1.0,Novel,,,,,,1537895019.740445,1537895022.175094,,1.6,Face,-0.6000000000000001
10946,0.0,7.0,,,,,,,,,,16714.377048093706,,386,Memory,,,,,,,00811960530fa.jpg,Face,<,Face,,0.569,1.0,Full,,,,,,1537895023.540434,1537895025.8760939,,1.8,Face,-0.8
10947,0.0,7.0,,,,,,,,,,21900.227262988286,,387,Memory,,,,,,,sunaaelyvurpntclgau.jpg,Place,<,Face,,0.42100000000000004,2.0,None,,,,,,1537895027.22635,1537895029.5612109,,1.6,Face,0.3999999999999999
10948,0.0,7.0,,,,,,,,,,14890.29514782069,,388,Memory,,,,,,,sunafkmnlytenlsywia.jpg,Place,<,Face,,0.40299999999999997,2.0,Side,,,,,,1537895031.010985,1537895033.410891,,1.6,Face,0.3999999999999999
10949,0.0,7.0,,,,,,,,,,19348.255133878185,,389,Memory,,,,,,,sunadflbrkckmepztql.jpg,Place,<,Face,,0.503,2.0,None,,,,,,1537895034.77965,1537895037.279736,,1.6,Face,0.3999999999999999
10950,0.0,7.0,,,,,,,,,,20283.192297167036,,390,Memory,,,,,,,00598941031fa.jpg,Face,<,Face,,0.32,1.0,Category,,,,,,1537895038.6967778,1537895041.1647289,,1.8,Face,-0.8
10951,0.0,7.0,,,,,,,,,,,,391,Memory,,,,,,,sunaqgjuuwvdcyiccjt.jpg,Place,<,Face,,1.17,1.0,Novel,,,,,,1537895042.6304538,1537895044.982151,,1.6,Face,-0.6000000000000001
10952,0.0,7.0,,,,,,,,,,,,392,Memory,,,,,,,00245940128fa.jpg,Face,<,Face,,0.368,2.0,Novel,,,,,,1537895046.365307,1537895048.6992161,,1.8,Face,0.19999999999999996
10953,0.0,7.0,,,,,,,,,,18698.336646300566,,393,Memory,,,,,,,sunafgzgbisbopcyslr.jpg,Place,<,Face,,0.35200000000000004,1.0,Side,,,,,,1537895050.117344,1537895052.501773,,1.6,Face,-0.6000000000000001
10954,0.0,7.0,,,,,,,,,,21146.448673687668,,394,Memory,,,,,,,sunaenwuebvlpdmntju.jpg,Place,<,Face,,0.401,2.0,Side,,,,,,1537895053.9031289,1537895056.302539,,1.6,Face,0.3999999999999999
10955,0.0,7.0,,,,,,,,,,,,395,Memory,,,,,,,sunadochqcucscehsgk.jpg,Place,<,Face,,0.37200000000000005,1.0,Novel,,,,,,1537895057.736703,1537895060.203845,,1.6,Face,-0.6000000000000001
10956,0.0,7.0,,,,,,,,,,,,396,Memory,,,,,,,sunaauhozyxzeeqstxi.jpg,Place,<,Face,,0.46799999999999997,2.0,Novel,,,,,,1537895061.654333,1537895064.00525,,1.6,Face,0.3999999999999999
10957,0.0,7.0,,,,,,,,,,,,397,Memory,,,,,,,sunagcinxkccdtrjmlv.jpg,Place,<,Face,,0.45399999999999996,2.0,Novel,,,,,,1537895065.4554029,1537895067.855666,,1.6,Face,0.3999999999999999
10958,0.0,7.0,,,,,,,,,,,,398,Memory,,,,,,,00936960627fa.jpg,Face,<,Face,,0.7859999999999999,2.0,Novel,,,,,,1537895069.3067,1537895071.7070038,,1.8,Face,0.19999999999999996
10959,0.0,7.0,,,,,,,,,,,,399,Memory,,,,,,,00119931230fb.jpg,Face,<,Face,,0.405,2.0,Novel,,,,,,1537895073.1408231,1537895075.458842,,1.8,Face,0.19999999999999996
10709,0.0,3.0,0.0,,,,,,,,,,,150,Presentation,00290940422fa_sunabqowuarvqqcnipn.jpg,00498960627fa_sunabzjxlmkwnwzimua.jpg,00290940422fa.jpg,sunabqowuarvqqcnipn.jpg,00498960627fa.jpg,sunabzjxlmkwnwzimua.jpg,,,>,Place,0.935371160507202,,,,1.0,,,3.0,,1537893598.6444118,1537893601.97848,o,,Place,
10710,0.0,3.0,1.0,,,,,,,,,,,151,Presentation,00838940307fa_sunaiozxhxgtfrmoagh.jpg,00235940128fb_sunabclssnoeuigtawp.jpg,00838940307fa.jpg,sunaiozxhxgtfrmoagh.jpg,00235940128fb.jpg,sunabclssnoeuigtawp.jpg,,,>,Place,0.8019280433654785,,,,0.0,,,3.0,,1537893604.262743,1537893607.56301,o,,Place,
10711,0.0,3.0,2.0,,,,,,,,,,,152,Presentation,00792941205fa_sunagsiwrmuixqgdimb.jpg,00929960627fa_sunaprnrbmgkomdbchr.jpg,00792941205fa.jpg,sunagsiwrmuixqgdimb.jpg,00929960627fa.jpg,sunaprnrbmgkomdbchr.jpg,,,>,Place,0.869394063949585,,,,1.0,,,1.0,,1537893609.68132,1537893613.0480552,x,,Place,
10712,0.0,3.0,3.0,,,,,,,,,,,153,Presentation,00787941205fa_sunagmwxxwymwojbvgi.jpg,00589940928fa_sunacwggadqsfpovdjv.jpg,00787941205fa.jpg,sunagmwxxwymwojbvgi.jpg,00589940928fa.jpg,sunacwggadqsfpovdjv.jpg,,,>,Place,1.3015198707580566,,,,1.0,,,3.0,,1537893615.299579,1537893618.634112,o,,Place,
10713,0.0,3.0,4.0,,,,,,,,,,,154,Presentation,00922960627fa_sunapqkyghktgtosuuk.jpg,00786941205fa_sunagmhildamktmqjss.jpg,00922960627fa.jpg,sunapqkyghktgtosuuk.jpg,00786941205fa.jpg,sunagmhildamktmqjss.jpg,,,>,Place,0.9183139801025392,,,,1.0,,,1.0,,1537893621.33603,1537893624.703244,x,,Place,
10714,0.0,3.0,5.0,,,,,,,,,,,155,Presentation,00915960620fa_sunapileznnbbmrwoei.jpg,00791941205fa_sunagrmyoovzukhxmlo.jpg,00915960620fa.jpg,sunapileznnbbmrwoei.jpg,00791941205fa.jpg,sunagrmyoovzukhxmlo.jpg,,,>,Place,1.084672927856445,,,,1.0,,,3.0,,1537893626.986952,1537893630.3711698,o,,Place,
10715,0.0,3.0,6.0,,,,,,,,,,,156,Presentation,00761960627fa_sunafgdqbclkwfocdhg.jpg,00770941201fa_sunaflojskatpeqyzqp.jpg,00761960627fa.jpg,sunafgdqbclkwfocdhg.jpg,00770941201fa.jpg,sunaflojskatpeqyzqp.jpg,,,>,Place,0.8842129707336426,,,,1.0,,,3.0,,1537893632.788416,1537893636.122148,o,,Place,
10716,0.0,3.0,7.0,,,,,,,,,,,157,Presentation,00280940422fb_sunabohxbskznglnrhv.jpg,00630940928fa_sunaczwgyukesaajxnx.jpg,00280940422fb.jpg,sunabohxbskznglnrhv.jpg,00630940928fa.jpg,sunaczwgyukesaajxnx.jpg,,,>,Place,0.917712926864624,,,,1.0,,,1.0,,1537893638.341505,1537893641.674201,x,,Place,
10717,0.0,3.0,8.0,,,,,,,,,,,158,Presentation,00292940422fb_sunabrjdpmoedcdjbpo.jpg,00985960627fa_sunbgklxeqjhdbyfhhy.jpg,00292940422fb.jpg,sunabrjdpmoedcdjbpo.jpg,00985960627fa.jpg,sunbgklxeqjhdbyfhhy.jpg,,,>,Place,0.934788942337036,,,,1.0,,,1.0,,1537893643.975506,1537893647.3930411,o,,Place,
10718,0.0,3.0,9.0,,,,,,,,,,,159,Presentation,00773941201fa_sunafvcflzhlqloapyo.jpg,00069931230fb_sunaaeowapdkwzqpgqr.jpg,00773941201fa.jpg,sunafvcflzhlqloapyo.jpg,00069931230fb.jpg,sunaaeowapdkwzqpgqr.jpg,,,>,Place,1.884550094604492,,,,1.0,,,1.0,,1537893649.694215,1537893653.060956,x,,Place,
10800,0.0,3.0,,,,,,,,,,,,160,Memory,,,,,,,00922960627fa.jpg,Face,>,Place,,1.137,1.0,Side,,,,,,1537893658.781157,1537893661.4471571,,1.0,Place,0.0
10801,0.0,3.0,,,,,,,,,,,,161,Memory,,,,,,,00076931230fa.jpg,Face,>,Place,,0.52,1.0,Novel,,,,,,1537893662.882626,1537893665.2821689,,1.0,Place,0.0
10802,0.0,3.0,,,,,,,,,,,,162,Memory,,,,,,,00209940128fb.jpg,Face,>,Place,,0.6859999999999999,2.0,Novel,,,,,,1537893666.666542,1537893669.133735,,1.0,Place,1.0
10803,0.0,3.0,,,,,,,,,,,,163,Memory,,,,,,,00838940307fa.jpg,Face,>,Place,,0.38299999999999995,1.0,Side,,,,,,1537893670.6177,1537893673.101487,,1.0,Place,0.0
10804,0.0,3.0,,,,,,,,,,,,164,Memory,,,,,,,00787941205fa.jpg,Face,>,Place,,0.585,1.0,Side,,,,,,1537893674.55402,1537893676.885756,,1.0,Place,0.0
10805,0.0,3.0,,,,,,,,,,,,165,Memory,,,,,,,sunabaergayifsgacxt.jpg,Place,>,Place,,1.47,3.0,Novel,,,,,,1537893678.319579,1537893680.771044,,2.0,Place,1.0
10806,0.0,3.0,,,,,,,,,,,,166,Memory,,,,,,,00915960620fa.jpg,Face,>,Place,,0.667,1.0,Side,,,,,,1537893682.121341,1537893684.656306,,1.0,Place,0.0
10807,0.0,3.0,,,,,,,,,,,,167,Memory,,,,,,,sunapileznnbbmrwoei.jpg,Place,>,Place,,1.4680000000000002,2.0,Full,,,,,,1537893686.0562198,1537893688.4906552,,2.0,Place,0.0
10808,0.0,3.0,,,,,,,,,,,,168,Memory,,,,,,,sunaalltyvjhbzhkmvg.jpg,Place,>,Place,,0.753,3.0,Novel,,,,,,1537893689.874536,1537893692.374249,,2.0,Place,1.0
10809,0.0,3.0,,,,,,,,,,,,169,Memory,,,,,,,sunagmwxxwymwojbvgi.jpg,Place,>,Place,,0.636,1.0,Full,,,,,,1537893693.79271,1537893696.175915,,2.0,Place,-1.0
10810,0.0,3.0,,,,,,,,,,,,170,Memory,,,,,,,00576941031fa.jpg,Face,>,Place,,0.48700000000000004,2.0,Novel,,,,,,1537893697.5589108,1537893699.910518,,1.0,Place,1.0
10811,0.0,3.0,,,,,,,,,,,,171,Memory,,,,,,,00270940422fb.jpg,Face,>,Place,,0.41600000000000004,1.0,Novel,,,,,,1537893701.260497,1537893703.645457,,1.0,Place,0.0
10812,0.0,3.0,,,,,,,,,,,,172,Memory,,,,,,,sunacwggadqsfpovdjv.jpg,Place,>,Place,,0.767,2.0,Category,,,,,,1537893705.028639,1537893707.512831,,2.0,Place,0.0
10813,0.0,3.0,,,,,,,,,,,,173,Memory,,,,,,,sunaffgsyyvoqdlkmnk.jpg,Place,>,Place,,0.586,3.0,Novel,,,,,,1537893708.980731,1537893711.363615,,2.0,Place,1.0
10814,0.0,3.0,,,,,,,,,,,,174,Memory,,,,,,,sunagrmyoovzukhxmlo.jpg,Place,>,Place,,0.27,2.0,Category,,,,,,1537893712.730508,1537893715.2489269,,2.0,Place,0.0
10815,0.0,3.0,,,,,,,,,,,,175,Memory,,,,,,,00125931230fa.jpg,Face,>,Place,,0.40299999999999997,2.0,Novel,,,,,,1537893716.582326,1537893719.0338368,,1.0,Place,1.0
10816,0.0,3.0,,,,,,,,,,,,176,Memory,,,,,,,sunadfktsqjthoglcsm.jpg,Place,>,Place,,0.419,3.0,Novel,,,,,,1537893720.432787,1537893722.799933,,2.0,Place,1.0
10817,0.0,3.0,,,,,,,,,,,,177,Memory,,,,,,,00791941205fa.jpg,Face,>,Place,,0.77,1.0,None,,,,,,1537893724.2680929,1537893726.635322,,1.0,Place,0.0
10818,0.0,3.0,,,,,,,,,,,,178,Memory,,,,,,,00630940928fa.jpg,Face,>,Place,,0.48700000000000004,2.0,None,,,,,,1537893727.985583,1537893730.42012,,1.0,Place,1.0
10819,0.0,3.0,,,,,,,,,,,,179,Memory,,,,,,,sunabllobxadqcyttej.jpg,Place,>,Place,,0.72,3.0,Novel,,,,,,1537893731.8208768,1537893734.1712868,,2.0,Place,1.0
10820,0.0,3.0,,,,,,,,,,,,180,Memory,,,,,,,00571940928fa.jpg,Face,>,Place,,0.619,1.0,Novel,,,,,,1537893735.538976,1537893738.072474,,1.0,Place,0.0
10821,0.0,3.0,,,,,,,,,,,,181,Memory,,,,,,,sunapqkyghktgtosuuk.jpg,Place,>,Place,,1.234,1.0,Full,,,,,,1537893739.456102,1537893741.9066858,,2.0,Place,-1.0
10822,0.0,3.0,,,,,,,,,,,,182,Memory,,,,,,,00198940128fb.jpg,Face,>,Place,,0.469,1.0,Novel,,,,,,1537893743.325057,1537893745.7914028,,1.0,Place,0.0
10823,0.0,3.0,,,,,,,,,,,,183,Memory,,,,,,,sunacvjlsylseoghjup.jpg,Place,>,Place,,0.3,1.0,Novel,,,,,,1537893747.158092,1537893749.626495,,2.0,Place,-1.0
10824,0.0,3.0,,,,,,,,,,,,184,Memory,,,,,,,00929960627fa.jpg,Face,>,Place,,0.552,1.0,None,,,,,,1537893751.060261,1537893753.326821,,1.0,Place,0.0
10825,0.0,3.0,,,,,,,,,,,,185,Memory,,,,,,,00638941031fa.jpg,Face,>,Place,,0.552,1.0,Novel,,,,,,1537893754.745293,1537893757.078573,,1.0,Place,0.0
10826,0.0,3.0,,,,,,,,,,,,186,Memory,,,,,,,sunacuatpqpqhyjhjqk.jpg,Place,>,Place,,0.45299999999999996,1.0,Novel,,,,,,1537893758.496429,1537893760.796693,,2.0,Place,-1.0
10827,0.0,3.0,,,,,,,,,,,,187,Memory,,,,,,,sunabzjxlmkwnwzimua.jpg,Place,>,Place,,0.934,3.0,Category,,,,,,1537893762.1806571,1537893764.515532,,2.0,Place,1.0
10828,0.0,3.0,,,,,,,,,,,,188,Memory,,,,,,,00568940928fa.jpg,Face,>,Place,,0.435,1.0,Novel,,,,,,1537893765.931669,1537893768.231193,,1.0,Place,0.0
10829,0.0,3.0,,,,,,,,,,,,189,Memory,,,,,,,00589940928fa.jpg,Face,>,Place,,0.502,2.0,None,,,,,,1537893769.683846,1537893772.017256,,1.0,Place,1.0
10830,0.0,3.0,,,,,,,,,,,,190,Memory,,,,,,,sunaazezcsunmhttzxz.jpg,Place,>,Place,,0.451,1.0,Novel,,,,,,1537893773.417708,1537893775.969261,,2.0,Place,-1.0
10831,0.0,3.0,,,,,,,,,,,,191,Memory,,,,,,,00754941201fa.jpg,Face,>,Place,,0.584,3.0,Novel,,,,,,1537893777.402411,1537893779.8247669,,1.0,Place,2.0
10832,0.0,3.0,,,,,,,,,,,,192,Memory,,,,,,,sunacsdhbbsybcyxnel.jpg,Place,>,Place,,0.655,2.0,Novel,,,,,,1537893781.257657,1537893783.688609,,2.0,Place,0.0
10833,0.0,3.0,,,,,,,,,,,,193,Memory,,,,,,,sunabqowuarvqqcnipn.jpg,Place,>,Place,,0.768,1.0,Full,,,,,,1537893785.021697,1537893787.438159,,2.0,Place,-1.0
10834,0.0,3.0,,,,,,,,,,,,194,Memory,,,,,,,sunaiozxhxgtfrmoagh.jpg,Place,>,Place,,0.653,2.0,Full,,,,,,1537893788.824426,1537893791.2064881,,2.0,Place,0.0
10835,0.0,3.0,,,,,,,,,,,,195,Memory,,,,,,,00498960627fa.jpg,Face,>,Place,,0.40299999999999997,3.0,None,,,,,,1537893792.623388,1537893794.908593,,1.0,Place,2.0
10836,0.0,3.0,,,,,,,,,,,,196,Memory,,,,,,,sunaczwgyukesaajxnx.jpg,Place,>,Place,,0.285,2.0,Category,,,,,,1537893796.308592,1537893798.775893,,2.0,Place,0.0
10837,0.0,3.0,,,,,,,,,,,,197,Memory,,,,,,,sunaprnrbmgkomdbchr.jpg,Place,>,Place,,0.36700000000000005,3.0,Category,,,,,,1537893800.160573,1537893802.693269,,2.0,Place,1.0
10838,0.0,3.0,,,,,,,,,,,,198,Memory,,,,,,,sunaafewhewbxmjiurz.jpg,Place,>,Place,,0.47100000000000003,2.0,Novel,,,,,,1537893804.094883,1537893806.6453881,,2.0,Place,0.0
10839,0.0,3.0,,,,,,,,,,,,199,Memory,,,,,,,00290940422fa.jpg,Face,>,Place,,0.42100000000000004,3.0,Side,,,,,,1537893808.011116,1537893810.379631,,1.0,Place,2.0
69,2.0,0.0,0.0,0.8148148148148148,7.0,387746045.7222222,1537986037.5185184,1113.103897222222,668.3750935185186,998.2682879629633,661.931088888889,30.825209148943873,19.400298493441355,0,Presentation,00589940928fa_sunacwggadqsfpovdjv.jpg,00949960627fb_sunasnqkkyhilqkxiqm.jpg,00589940928fa.jpg,sunacwggadqsfpovdjv.jpg,00949960627fb.jpg,sunasnqkkyhilqkxiqm.jpg,,,>,Face,0.7673301696777344,,,,0.0,,,1.0,,1537986035.909416,1537986039.044726,x,,Face,
70,2.0,0.0,1.0,0.7037037037037037,7.0,387751541.6666667,1537986043.0,1074.6176728395064,672.6758197530868,1004.0463012345676,646.4715851851852,30.347682043366603,19.237566322016466,1,Presentation,00154931230fa_sunaauueuhhvklldjik.jpg,00936960627fa_sunaqgjuuwvdcyiccjt.jpg,00154931230fa.jpg,sunaauueuhhvklldjik.jpg,00936960627fa.jpg,sunaqgjuuwvdcyiccjt.jpg,,,>,Face,0.6851651668548584,,,,1.0,,,3.0,,1537986041.0779018,1537986044.045825,o,,Face,
71,2.0,0.0,2.0,0.7530864197530864,7.0,387755538.8148148,1537986047.0,1086.125820987654,662.5044024691355,1045.0439543209877,647.5672382716052,31.114246231312684,19.105211427469147,2,Presentation,00898960530fa_sunamkmeblgteyggink.jpg,00970960627fa_sunbasypfgzjtomktmu.jpg,00898960530fa.jpg,sunamkmeblgteyggink.jpg,00970960627fa.jpg,sunbasypfgzjtomktmu.jpg,,,>,Face,0.602553129196167,,,,1.0,,,1.0,,1537986045.979426,1537986048.9631698,x,,Face,
72,2.0,0.0,3.0,0.7283950617283951,7.0,387760535.4691358,1537986052.0,1109.4110209876546,667.0733518518518,1010.441956790123,655.9278839506175,30.949025407986102,19.293768022119345,3,Presentation,00071940128fa_sunaaexpnawiehinlpy.jpg,00069931230fb_sunaaeowapdkwzqpgqr.jpg,00071940128fa.jpg,sunaaexpnawiehinlpy.jpg,00069931230fb.jpg,sunaaeowapdkwzqpgqr.jpg,,,>,Face,0.6031129360198975,,,,1.0,,,3.0,,1537986050.779779,1537986053.748385,o,,Face,
73,2.0,0.0,4.0,0.9382716049382716,7.0,387765532.09876543,1537986057.0,1077.0235333333333,665.4046629629629,995.6104691358023,662.6382320987656,30.259646813392177,19.367292219650206,4,Presentation,00895960530fa_sunamczizlzavhzhpay.jpg,00125931230fa_sunaalltyvjhbzhkmvg.jpg,00895960530fa.jpg,sunamczizlzavhzhpay.jpg,00125931230fa.jpg,sunaalltyvjhbzhkmvg.jpg,,,>,Face,0.36790108680725103,,,,1.0,,,3.0,,1537986055.597821,1537986058.566797,o,,Face,
74,2.0,0.0,5.0,1.0,7.0,387770527.6419753,1537986062.0,1048.0511580246916,662.6188148148149,1000.8903370370372,663.3645518518517,29.91374546012973,19.337257430555553,5,Presentation,00799941205fa_sunagutjvdvnhxejerz.jpg,00800941205fb_sunagvjurcwdbixvnyi.jpg,00799941205fa.jpg,sunagutjvdvnhxejerz.jpg,00800941205fb.jpg,sunagvjurcwdbixvnyi.jpg,,,>,Face,0.5159490108489989,,,,1.0,,,3.0,,1537986060.166893,1537986063.1389449,o,,Face,
75,2.0,0.0,6.0,0.8765432098765432,7.0,387774524.91358024,1537986066.0,1042.97912345679,668.2353716049382,1029.9202308641975,654.8112098765433,30.26352084677614,19.294429313271614,6,Presentation,00146960620fb_sunaatpeezlljqaxlhj.jpg,00892960530fa_sunalntxqqadigcletd.jpg,00146960620fb.jpg,sunaatpeezlljqaxlhj.jpg,00892960530fa.jpg,sunalntxqqadigcletd.jpg,,,>,Face,0.5879929065704346,,,,1.0,,,3.0,,1537986064.9012651,1537986067.871855,o,,Face,
76,2.0,0.0,7.0,0.7530864197530864,7.0,387779521.6419753,1537986071.0,1079.9056913580253,679.7394728395064,1031.9665271604938,643.423624691358,30.832509440285033,19.296128505658437,7,Presentation,00209940128fb_sunabaergayifsgacxt.jpg,00131931230fb_sunaangbuylfvckqqoo.jpg,00209940128fb.jpg,sunabaergayifsgacxt.jpg,00131931230fb.jpg,sunaangbuylfvckqqoo.jpg,,,>,Face,0.4520092010498047,,,,1.0,,,3.0,,1537986069.703401,1537986072.670493,o,,Face,
77,2.0,0.0,8.0,0.8765432098765432,7.0,387784517.5308642,1537986076.0,1067.2420024691362,659.705348148148,1039.1713938271607,650.4859246913579,30.752812768192992,19.1069560622428,8,Presentation,00871940307_sunajrujcsdxmfbssmc.jpg,00242940128fa_sunabcuurugvxwparpk.jpg,00871940307.jpg,sunajrujcsdxmfbssmc.jpg,00242940128fa.jpg,sunabcuurugvxwparpk.jpg,,,>,Face,0.5030460357666016,,,,1.0,,,3.0,,1537986074.358728,1537986077.321158,o,,Face,
78,2.0,0.0,9.0,0.8170731707317073,7.0,387789532.9878049,1537986081.012195,1093.4588817073172,665.5892000000002,1011.7748817073175,656.8672524390244,30.735590588914814,19.285823264735782,9,Presentation,00785941205fa_sunaglqunwuycxydmyu.jpg,00149931230fa_sunaauglwmctnkxyird.jpg,00785941205fa.jpg,sunaglqunwuycxydmyu.jpg,00149931230fa.jpg,sunaauglwmctnkxyird.jpg,,,>,Face,0.593055009841919,,,,1.0,,,1.0,,1537986079.06043,1537986082.0281038,x,,Face,
9429,2.0,0.0,,,,,,,,,,30.259646813392177,,10,Memory,,,,,,,00895960530fa.jpg,Face,>,Face,,1.008,4.0,Full,,,,,,1537986091.6652222,1537986093.711685,,1.9,Face,2.1
9430,2.0,0.0,,,,,,,,,,,,11,Memory,,,,,,,sunaddsaeicthrfbkhe.jpg,Place,>,Face,,0.0,,Novel,,,,,,1537986094.982023,1537986096.981435,,2.1,Face,
9431,2.0,0.0,,,,,,,,,,,,12,Memory,,,,,,,sunadqmjrhfjyuzyvdd.jpg,Place,>,Face,,0.0,,Novel,,,,,,1537986098.284864,1537986100.433729,,2.1,Face,
9432,2.0,0.0,,,,,,,,,,30.832509440285033,,13,Memory,,,,,,,sunaangbuylfvckqqoo.jpg,Place,>,Face,,1.5330000000000001,2.0,None,,,,,,1537986101.7180471,1537986103.800239,,2.1,Face,-0.10000000000000009
9433,2.0,0.0,,,,,,,,,,,,14,Memory,,,,,,,sunaenwuebvlpdmntju.jpg,Place,>,Face,,2.142,2.0,Novel,,,,,,1537986105.068721,1537986107.186325,,2.1,Face,-0.10000000000000009
9434,2.0,0.0,,,,,,,,,,,,15,Memory,,,,,,,sunaajayojuslbbnneg.jpg,Place,>,Face,,1.642,2.0,Novel,,,,,,1537986108.487436,1537986110.605944,,2.1,Face,-0.10000000000000009
9435,2.0,0.0,,,,,,,,,,,,16,Memory,,,,,,,00742941201fa.jpg,Face,>,Face,,1.604,2.0,Novel,,,,,,1537986111.904897,1537986113.888248,,1.9,Face,0.10000000000000009
9436,2.0,0.0,,,,,,,,,,30.26352084677614,,17,Memory,,,,,,,sunalntxqqadigcletd.jpg,Place,>,Face,,0.0,,None,,,,,,1537986115.18966,1537986117.1919868,,2.1,Face,
9437,2.0,0.0,,,,,,,,,,,,18,Memory,,,,,,,00681941121fa.jpg,Face,>,Face,,1.675,4.0,Novel,,,,,,1537986118.491183,1537986120.6074212,,1.9,Face,2.1
9438,2.0,0.0,,,,,,,,,,31.114246231312684,,19,Memory,,,,,,,00970960627fa.jpg,Face,>,Face,,2.134,2.0,Category,,,,,,1537986121.874049,1537986123.970884,,1.9,Face,0.10000000000000009
9439,2.0,0.0,,,,,,,,,,,,20,Memory,,,,,,,sunbagfpovqwbuexqdn.jpg,Place,>,Face,,1.835,2.0,Novel,,,,,,1537986125.243231,1537986127.288465,,2.1,Face,-0.10000000000000009
9440,2.0,0.0,,,,,,,,,,,,21,Memory,,,,,,,sunakodkcslgqhqlgwl.jpg,Place,>,Face,,1.5659999999999998,3.0,Novel,,,,,,1537986128.577642,1537986130.572892,,2.1,Face,0.8999999999999999
9441,2.0,0.0,,,,,,,,,,31.114246231312684,,22,Memory,,,,,,,sunamkmeblgteyggink.jpg,Place,>,Face,,1.4169999999999998,2.0,Side,,,,,,1537986131.8607118,1537986133.843488,,2.1,Face,-0.10000000000000009
9442,2.0,0.0,,,,,,,,,,,,23,Memory,,,,,,,sunalcrtwiycqobgelp.jpg,Place,>,Face,,1.435,3.0,Novel,,,,,,1537986135.129664,1537986137.260408,,2.1,Face,0.8999999999999999
9443,2.0,0.0,,,,,,,,,,,,24,Memory,,,,,,,00635941031fa.jpg,Face,>,Face,,1.675,2.0,Novel,,,,,,1537986138.564039,1537986140.547084,,1.9,Face,0.10000000000000009
9444,2.0,0.0,,,,,,,,,,,,25,Memory,,,,,,,00874940307fa.jpg,Face,>,Face,,0.982,2.0,Novel,,,,,,1537986141.831149,1537986143.847574,,1.9,Face,0.10000000000000009
9445,2.0,0.0,,,,,,,,,,30.259646813392177,,26,Memory,,,,,,,sunamczizlzavhzhpay.jpg,Place,>,Face,,1.7,2.0,Side,,,,,,1537986145.1484,1537986147.144644,,2.1,Face,-0.10000000000000009
9446,2.0,0.0,,,,,,,,,,30.259646813392177,,27,Memory,,,,,,,00125931230fa.jpg,Face,>,Face,,0.0,,Category,,,,,,1537986148.4125302,1537986150.382664,,1.9,Face,
9447,2.0,0.0,,,,,,,,,,29.91374546012973,,28,Memory,,,,,,,sunagutjvdvnhxejerz.jpg,Place,>,Face,,0.0,,Side,,,,,,1537986151.700569,1537986153.884611,,2.1,Face,
9448,2.0,0.0,,,,,,,,,,30.832509440285033,,29,Memory,,,,,,,00131931230fb.jpg,Face,>,Face,,1.0490000000000002,2.0,Category,,,,,,1537986155.168828,1537986157.230526,,1.9,Face,0.10000000000000009
9449,2.0,0.0,,,,,,,,,,30.752812768192992,,30,Memory,,,,,,,00242940128fa.jpg,Face,>,Face,,1.985,2.0,Category,,,,,,1537986158.4867651,1537986160.452401,,1.9,Face,0.10000000000000009
9450,2.0,0.0,,,,,,,,,,30.735590588914814,,31,Memory,,,,,,,sunaglqunwuycxydmyu.jpg,Place,>,Face,,1.972,2.0,Side,,,,,,1537986161.754569,1537986163.884286,,2.1,Face,-0.10000000000000009
9451,2.0,0.0,,,,,,,,,,31.114246231312684,,32,Memory,,,,,,,00898960530fa.jpg,Face,>,Face,,1.189,3.0,Full,,,,,,1537986165.150354,1537986167.136684,,1.9,Face,1.1
9452,2.0,0.0,,,,,,,,,,,,33,Memory,,,,,,,00097931230fa.jpg,Face,>,Face,,1.9180000000000001,1.0,Novel,,,,,,1537986168.439877,1537986170.4703028,,1.9,Face,-0.8999999999999999
9453,2.0,0.0,,,,,,,,,,,,34,Memory,,,,,,,00997960627fa.jpg,Face,>,Face,,1.692,2.0,Novel,,,,,,1537986171.73564,1537986173.858749,,1.9,Face,0.10000000000000009
9454,2.0,0.0,,,,,,,,,,31.114246231312684,,35,Memory,,,,,,,sunbasypfgzjtomktmu.jpg,Place,>,Face,,2.0069999999999997,3.0,None,,,,,,1537986175.142097,1537986177.187532,,2.1,Face,0.8999999999999999
9455,2.0,0.0,,,,,,,,,,,,36,Memory,,,,,,,00887960530.jpg,Face,>,Face,,1.501,1.0,Novel,,,,,,1537986178.460201,1537986180.478452,,1.9,Face,-0.8999999999999999
9456,2.0,0.0,,,,,,,,,,,,37,Memory,,,,,,,00947960627fa.jpg,Face,>,Face,,2.003,1.0,Novel,,,,,,1537986181.761368,1537986183.912675,,1.9,Face,-0.8999999999999999
9457,2.0,0.0,,,,,,,,,,30.825209148943873,,38,Memory,,,,,,,sunacwggadqsfpovdjv.jpg,Place,>,Face,,2.056,1.0,Side,,,,,,1537986185.278871,1537986187.424677,,2.1,Face,-1.1
9458,2.0,0.0,,,,,,,,,,30.752812768192992,,39,Memory,,,,,,,sunabcuurugvxwparpk.jpg,Place,>,Face,,0.0,,None,,,,,,1537986188.71314,1537986190.765301,,2.1,Face,
9459,2.0,0.0,,,,,,,,,,30.26352084677614,,40,Memory,,,,,,,00892960530fa.jpg,Face,>,Face,,1.419,1.0,Category,,,,,,1537986192.046932,1537986194.17714,,1.9,Face,-0.8999999999999999
9460,2.0,0.0,,,,,,,,,,,,41,Memory,,,,,,,sunasmmcxdddtmtazwx.jpg,Place,>,Face,,2.157,2.0,Novel,,,,,,1537986195.465236,1537986197.615631,,2.1,Face,-0.10000000000000009
9461,2.0,0.0,,,,,,,,,,30.825209148943873,,42,Memory,,,,,,,00589940928fa.jpg,Face,>,Face,,1.57,2.0,Full,,,,,,1537986198.916357,1537986201.002873,,1.9,Face,0.10000000000000009
9462,2.0,0.0,,,,,,,,,,,,43,Memory,,,,,,,sunbtpilbhhbmhmeuzq.jpg,Place,>,Face,,1.2409999999999999,1.0,Novel,,,,,,1537986202.283714,1537986204.45264,,2.1,Face,-1.1
9463,2.0,0.0,,,,,,,,,,30.735590588914814,,44,Memory,,,,,,,00785941205fa.jpg,Face,>,Face,,1.099,3.0,Full,,,,,,1537986205.713439,1537986207.680284,,1.9,Face,1.1
9464,2.0,0.0,,,,,,,,,,29.91374546012973,,45,Memory,,,,,,,00799941205fa.jpg,Face,>,Face,,2.024,4.0,Full,,,,,,1537986208.970263,1537986210.9871962,,1.9,Face,2.1
9465,2.0,0.0,,,,,,,,,,,,46,Memory,,,,,,,00884960530fa.jpg,Face,>,Face,,1.492,2.0,Novel,,,,,,1537986212.25365,1537986214.300908,,1.9,Face,0.10000000000000009
9466,2.0,0.0,,,,,,,,,,30.259646813392177,,47,Memory,,,,,,,sunaalltyvjhbzhkmvg.jpg,Place,>,Face,,1.7819999999999998,2.0,None,,,,,,1537986215.58842,1537986217.589184,,2.1,Face,-0.10000000000000009
9467,2.0,0.0,,,,,,,,,,,,48,Memory,,,,,,,sunajtrfunvzdfticna.jpg,Place,>,Face,,1.4909999999999999,1.0,Novel,,,,,,1537986218.889707,1537986220.868221,,2.1,Face,-1.1
9468,2.0,0.0,,,,,,,,,,,,49,Memory,,,,,,,00968960627fa.jpg,Face,>,Face,,1.525,1.0,Novel,,,,,,1537986222.135334,1537986224.177958,,1.9,Face,-0.8999999999999999
79,2.0,1.0,0.0,0.35526315789473684,7.0,388105479.82894737,1537986396.9473684,1283.5869171052632,652.8115368421053,935.3316763157893,699.9363131578947,32.3953446988718,19.7275728125,50,Presentation,00969960627fa_sunbaoizrfijvhpnnjn.jpg,00115931230fa_sunaakmxzhuceuiryah.jpg,00969960627fa.jpg,sunbaoizrfijvhpnnjn.jpg,00115931230fa.jpg,sunaakmxzhuceuiryah.jpg,,,>,Face,0.7353599071502686,,,,1.0,,,3.0,,1537986395.0423481,1537986398.059098,o,,Face,
80,2.0,1.0,1.0,0.02127659574468085,7.0,388110086.34042555,1537986401.5531914,1439.103010638298,621.151970212766,925.3534489361704,693.9025063829789,34.520140693982704,19.177877783687947,51,Presentation,00290940422fa_sunabqowuarvqqcnipn.jpg,01002960627fb_sunbwaafjdebjzttuvq.jpg,00290940422fa.jpg,sunabqowuarvqqcnipn.jpg,01002960627fb.jpg,sunbwaafjdebjzttuvq.jpg,,,>,Face,0.5048108100891113,,,,1.0,,,3.0,,1537986400.011177,1537986402.9948,o,,Face,
81,2.0,1.0,2.0,0.4430379746835443,7.0,388114566.1392405,1537986406.0253165,1203.6519341772155,624.8415177215189,991.8961291139241,662.0164113924055,32.05414408808841,18.766678132911387,52,Presentation,00828940307fa_sunahuynahneraqftyz.jpg,00878960530fa_sunakgbnzxmfohgehnu.jpg,00828940307fa.jpg,sunahuynahneraqftyz.jpg,00878960530fa.jpg,sunakgbnzxmfohgehnu.jpg,,,>,Face,0.5192570686340332,,,,0.0,,,1.0,,1537986404.745775,1537986407.7134821,x,,Face,
82,2.0,1.0,3.0,0.379746835443038,7.0,388119556.96202534,1537986411.0253165,1211.9094025316456,657.255148101266,949.13478607595,690.1150430379745,31.55040099578471,19.64914862078059,53,Presentation,00208940128fa_sunaazzyhbvqjpmazjq.jpg,00862940307fa_sunaizgnnplsvajzhkc.jpg,00208940128fa.jpg,sunaazzyhbvqjpmazjq.jpg,00862940307fa.jpg,sunaizgnnplsvajzhkc.jpg,,,>,Face,0.5851380825042725,,,,0.0,,,3.0,,1537986409.51445,1537986412.4811919,o,,Face,
83,2.0,1.0,4.0,0.6455696202531646,7.0,388124521.3291139,1537986416.0,1175.1996088607598,679.8043329113926,970.5527658227846,689.337430379747,31.32714648585839,19.96665071466245,54,Presentation,00266940128fb_sunabkngeblodihjvbk.jpg,00193940928fa_sunaaxjpzcnxligjtjq.jpg,00266940128fb.jpg,sunabkngeblodihjvbk.jpg,00193940928fa.jpg,sunaaxjpzcnxligjtjq.jpg,,,>,Face,0.5859620571136475,,,,1.0,,,1.0,,1537986414.2822778,1537986417.249961,x,,Face,
84,2.0,1.0,5.0,0.22077922077922077,7.0,388129472.012987,1537986420.961039,1292.4188441558442,653.0443545454548,956.8281727272729,684.6424948051949,32.83812783437755,19.50793321969698,55,Presentation,00807941205fa_sunahawfngukizslzsd.jpg,00264940128fb_sunabjzyxcjnmztdonj.jpg,00807941205fa.jpg,sunahawfngukizslzsd.jpg,00264940128fb.jpg,sunabjzyxcjnmztdonj.jpg,,,>,Face,0.5197160243988037,,,,1.0,,,3.0,,1537986419.088463,1537986422.053693,o,,Face,
