,Subject,Trial Type,Run,Cued Composite,Uncued Composite,Cued Face,Cued Place,Uncued Face,Uncued Place,Memory Image,Category,Cued Side,Cued Category,Attention Response Time (s),Familiarity Reaction Time (s),Familiarity Rating,Attention Level,Cue Validity,Post Invalid Cue,Pre Invalid Cue,Attention Button,Rating History,Stimulus Onset,Stimulus End,Attention Probe
0,0,Presentation,0,00834940307fa_sunaibnpvhkdpdnzcnz.jpg,00073931230fa_sunaafbmtoniaasysgu.jpg,00834940307fa.jpg,sunaibnpvhkdpdnzcnz.jpg,00073931230fa.jpg,sunaafbmtoniaasysgu.jpg,,,<,Place,,,,,1,,,,,,,x
1,0,Presentation,0,00871940307_sunajrujcsdxmfbssmc.jpg,00999960627fa_sunbvbrvgbpanfrawft.jpg,00871940307.jpg,sunajrujcsdxmfbssmc.jpg,00999960627fa.jpg,sunbvbrvgbpanfrawft.jpg,,,<,Place,,,,,1,,,,,,,x
2,0,Presentation,0,00960960627fa_sunawksfbacycuhbrsc.jpg,00815941205fa_sunahiphsekjihkafsl.jpg,00960960627fa.jpg,sunawksfbacycuhbrsc.jpg,00815941205fa.jpg,sunahiphsekjihkafsl.jpg,,,<,Place,,,,,0,,,,,,,o
3,0,Presentation,0,00901960530fa_sunammbnoambmhdxdwd.jpg,00914960620fa_sunaozisvwfbmlkfhzv.jpg,00901960530fa.jpg,sunammbnoambmhdxdwd.jpg,00914960620fa.jpg,sunaozisvwfbmlkfhzv.jpg,,,<,Place,,,,,1,,,,,,,x
4,0,Presentation,0,01011960627fa_sundahdxwmcdluscvot.jpg,00123931230fb_sunaalcrrdbjgdztbiz.jpg,01011960627fa.jpg,sundahdxwmcdluscvot.jpg,00123931230fb.jpg,sunaalcrrdbjgdztbiz.jpg,,,<,Place,,,,,1,,,,,,,o
5,0,Presentation,0,00116931230fa_sunaakqepfoeqomfgxf.jpg,00966960627fa_sunaygrtwrwfezqjizr.jpg,00116931230fa.jpg,sunaakqepfoeqomfgxf.jpg,00966960627fa.jpg,sunaygrtwrwfezqjizr.jpg,,,<,Place,,,,,1,,,,,,,o
6,0,Presentation,0,00631940928fa_sunadbdqzigzwipuipr.jpg,00811960530fa_sunahedfrhtcwpneund.jpg,00631940928fa.jpg,sunadbdqzigzwipuipr.jpg,00811960530fa.jpg,sunahedfrhtcwpneund.jpg,,,<,Place,,,,,1,,,,,,,o
7,0,Presentation,0,00803941205fa_sunagvxkjokqimstxpe.jpg,00761960627fa_sunafgdqbclkwfocdhg.jpg,00803941205fa.jpg,sunagvxkjokqimstxpe.jpg,00761960627fa.jpg,sunafgdqbclkwfocdhg.jpg,,,<,Place,,,,,1,,,,,,,o
8,0,Presentation,0,00774941201fa_sunafvtpfczkzopbgue.jpg,00822940307fa_sunahqrxievfeusiqlt.jpg,00774941201fa.jpg,sunafvtpfczkzopbgue.jpg,00822940307fa.jpg,sunahqrxievfeusiqlt.jpg,,,<,Place,,,,,1,,,,,,,o
9,0,Presentation,0,00751960620fa_sunaezuszgtxnmsxdbk.jpg,00302940422fa_sunabtlfmiwtljmoues.jpg,00751960620fa.jpg,sunaezuszgtxnmsxdbk.jpg,00302940422fa.jpg,sunabtlfmiwtljmoues.jpg,,,<,Place,,,,,1,,,,,,,x
10,0,Memory,0,,,,,,,sunaijsqpvodplbwxkf.jpg,,,,,,,,,,,,,,,
11,0,Memory,0,,,,,,,sunagvxkjokqimstxpe.jpg,,,,,,,,,,,,,,,
12,0,Memory,0,,,,,,,sunaqgjuuwvdcyiccjt.jpg,,,,,,,,,,,,,,,
13,0,Memory,0,,,,,,,00999960627fa.jpg,,,,,,,,,,,,,,,
14,0,Memory,0,,,,,,,sunajoveqhiprwqgoco.jpg,,,,,,,,,,,,,,,
15,0,Memory,0,,,,,,,sunagtumacdlmciqamz.jpg,,,,,,,,,,,,,,,
16,0,Memory,0,,,,,,,00869940307fa.jpg,,,,,,,,,,,,,,,
17,0,Memory,0,,,,,,,sunaygrtwrwfezqjizr.jpg,,,,,,,,,,,,,,,
18,0,Memory,0,,,,,,,00146960620fb.jpg,,,,,,,,,,,,,,,
19,0,Memory,0,,,,,,,00507940519fa.jpg,,,,,,,,,,,,,,,
20,0,Memory,0,,,,,,,00271940422fa.jpg,,,,,,,,,,,,,,,
21,0,Memory,0,,,,,,,00631940928fa.jpg,,,,,,,,,,,,,,,
22,0,Memory,0,,,,,,,sunabmbnddafmywtjjj.jpg,,,,,,,,,,,,,,,
23,0,Memory,0,,,,,,,sunacacflqoyxhsqzhe.jpg,,,,,,,,,,,,,,,
24,0,Memory,0,,,,,,,sunaezuszgtxnmsxdbk.jpg,,,,,,,,,,,,,,,
25,0,Memory,0,,,,,,,00936960627fa.jpg,,,,,,,,,,,,,,,
26,0,Memory,0,,,,,,,00123931230fb.jpg,,,,,,,,,,,,,,,
27,0,Memory,0,,,,,,,00795941205fa.jpg,,,,,,,,,,,,,,,
28,0,Memory,0,,,,,,,00811960530fa.jpg,,,,,,,,,,,,,,,
29,0,Memory,0,,,,,,,00815941205fa.jpg,,,,,,,,,,,,,,,
30,0,Memory,0,,,,,,,00818940307fa.jpg,,,,,,,,,,,,,,,
31,0,Memory,0,,,,,,,sunahiphsekjihkafsl.jpg,,,,,,,,,,,,,,,
32,0,Memory,0,,,,,,,00835940307fa.jpg,,,,,,,,,,,,,,,
33,0,Memory,0,,,,,,,sunaalcrrdbjgdztbiz.jpg,,,,,,,,,,,,,,,
34,0,Memory,0,,,,,,,00803941205fa.jpg,,,,,,,,,,,,,,,
35,0,Memory,0,,,,,,,00751960620fa.jpg,,,,,,,,,,,,,,,
36,0,Memory,0,,,,,,,sunaatpeezlljqaxlhj.jpg,,,,,,,,,,,,,,,
37,0,Memory,0,,,,,,,sunawksfbacycuhbrsc.jpg,,,,,,,,,,,,,,,
38,0,Memory,0,,,,,,,00116931230fa.jpg,,,,,,,,,,,,,,,
39,0,Memory,0,,,,,,,00854940307fa.jpg,,,,,,,,,,,,,,,
40,0,Memory,0,,,,,,,00960960627fa.jpg,,,,,,,,,,,,,,,
41,0,Memory,0,,,,,,,sunbvbrvgbpanfrawft.jpg,,,,,,,,,,,,,,,
42,0,Memory,0,,,,,,,sunahpblecxtmuzkmxb.jpg,,,,,,,,,,,,,,,
43,0,Memory,0,,,,,,,sunahedfrhtcwpneund.jpg,,,,,,,,,,,,,,,
44,0,Memory,0,,,,,,,sunaakqepfoeqomfgxf.jpg,,,,,,,,,,,,,,,
45,0,Memory,0,,,,,,,sunaeomlfaabhpswasy.jpg,,,,,,,,,,,,,,,
46,0,Memory,0,,,,,,,00744941201fa.jpg,,,,,,,,,,,,,,,
47,0,Memory,0,,,,,,,00966960627fa.jpg,,,,,,,,,,,,,,,
48,0,Memory,0,,,,,,,sunadbdqzigzwipuipr.jpg,,,,,,,,,,,,,,,
49,0,Memory,0,,,,,,,sunaiwduelojtwaqeyh.jpg,,,,,,,,,,,,,,,
50,0,Presentation,1,00921960627fa_sunapqkpqdfvxlbqwyo.jpg,00086931230fa_sunaafynehyrzpsoaml.jpg,00921960627fa.jpg,sunapqkpqdfvxlbqwyo.jpg,00086931230fa.jpg,sunaafynehyrzpsoaml.jpg,,,>,Face,,,,,1,,,,,,,x
51,0,Presentation,1,00663941121fa_sunadnjjzohjhbohlwq.jpg,00971960627fa_sunbbegcweqnetpdlrh.jpg,00663941121fa.jpg,sunadnjjzohjhbohlwq.jpg,00971960627fa.jpg,sunbbegcweqnetpdlrh.jpg,,,>,Face,,,,,1,,,,,,,o
52,0,Presentation,1,00885960530fa_sunakwlvxjpddialozd.jpg,00851940307fa_sunaivflshbyfrfzhqb.jpg,00885960530fa.jpg,sunakwlvxjpddialozd.jpg,00851940307fa.jpg,sunaivflshbyfrfzhqb.jpg,,,>,Face,,,,,1,,,,,,,o
53,0,Presentation,1,00245940128fa_sunabeyhmxodahoieyk.jpg,00775941205fa_sunafvwfsmqkjrutjta.jpg,00245940128fa.jpg,sunabeyhmxodahoieyk.jpg,00775941205fa.jpg,sunafvwfsmqkjrutjta.jpg,,,>,Face,,,,,1,,,,,,,o
54,0,Presentation,1,00564940928fa_sunacmpqqfbsvlzinzl.jpg,00868960307fa_sunajjxttslobudoqbv.jpg,00564940928fa.jpg,sunacmpqqfbsvlzinzl.jpg,00868960307fa.jpg,sunajjxttslobudoqbv.jpg,,,>,Face,,,,,1,,,,,,,o
55,0,Presentation,1,00316940422fa_sunabxmguapjekttvwm.jpg,00089931230fa_sunaagcpoejbuzyvddd.jpg,00316940422fa.jpg,sunabxmguapjekttvwm.jpg,00089931230fa.jpg,sunaagcpoejbuzyvddd.jpg,,,>,Face,,,,,0,,,,,,,x
56,0,Presentation,1,01003960627fb_sunbwdrdvsweerwsdrj.jpg,00746941201fa_sunaetydippjxikifsb.jpg,01003960627fb.jpg,sunbwdrdvsweerwsdrj.jpg,00746941201fa.jpg,sunaetydippjxikifsb.jpg,,,>,Face,,,,,1,,,,,,,x
57,0,Presentation,1,00568940928fa_sunacsdhbbsybcyxnel.jpg,00162931230fb_sunaavjinpnkappuonm.jpg,00568940928fa.jpg,sunacsdhbbsybcyxnel.jpg,00162931230fb.jpg,sunaavjinpnkappuonm.jpg,,,>,Face,,,,,0,,,,,,,x
58,0,Presentation,1,00898960530fa_sunamkmeblgteyggink.jpg,00857940307fa_sunaiwfobocrruqznsv.jpg,00898960530fa.jpg,sunamkmeblgteyggink.jpg,00857940307fa.jpg,sunaiwfobocrruqznsv.jpg,,,>,Face,,,,,1,,,,,,,x
59,0,Presentation,1,00763941205fa_sunafhmnhsdurlvddpw.jpg,00812941205fa_sunahgtbwgsmtqeodwh.jpg,00763941205fa.jpg,sunafhmnhsdurlvddpw.jpg,00812941205fa.jpg,sunahgtbwgsmtqeodwh.jpg,,,>,Face,,,,,1,,,,,,,o
60,0,Memory,1,,,,,,,00245940128fa.jpg,,,,,,,,,,,,,,,
61,0,Memory,1,,,,,,,sunaetydippjxikifsb.jpg,,,,,,,,,,,,,,,
62,0,Memory,1,,,,,,,sunaiycurtqsfkvcaso.jpg,,,,,,,,,,,,,,,
63,0,Memory,1,,,,,,,00859940307fa.jpg,,,,,,,,,,,,,,,
64,0,Memory,1,,,,,,,sunaeuvjbmdpknaqqaj.jpg,,,,,,,,,,,,,,,
65,0,Memory,1,,,,,,,00749941201fa.jpg,,,,,,,,,,,,,,,
66,0,Memory,1,,,,,,,00681941121fa.jpg,,,,,,,,,,,,,,,
67,0,Memory,1,,,,,,,sunabxmguapjekttvwm.jpg,,,,,,,,,,,,,,,
68,0,Memory,1,,,,,,,00898960530fa.jpg,,,,,,,,,,,,,,,
69,0,Memory,1,,,,,,,sunaczwgyukesaajxnx.jpg,,,,,,,,,,,,,,,
70,0,Memory,1,,,,,,,00316940422fa.jpg,,,,,,,,,,,,,,,
71,0,Memory,1,,,,,,,00921960627fa.jpg,,,,,,,,,,,,,,,
72,0,Memory,1,,,,,,,sunaagcpoejbuzyvddd.jpg,,,,,,,,,,,,,,,
73,0,Memory,1,,,,,,,00963960627fa.jpg,,,,,,,,,,,,,,,
74,0,Memory,1,,,,,,,sunaivdylrawbmhryfp.jpg,,,,,,,,,,,,,,,
75,0,Memory,1,,,,,,,sunabeyhmxodahoieyk.jpg,,,,,,,,,,,,,,,
76,0,Memory,1,,,,,,,sunayaepykrqvenaqqy.jpg,,,,,,,,,,,,,,,
77,0,Memory,1,,,,,,,00576941031fa.jpg,,,,,,,,,,,,,,,
78,0,Memory,1,,,,,,,sunakgbnzxmfohgehnu.jpg,,,,,,,,,,,,,,,
79,0,Memory,1,,,,,,,00089931230fa.jpg,,,,,,,,,,,,,,,
80,0,Memory,1,,,,,,,sunaafynehyrzpsoaml.jpg,,,,,,,,,,,,,,,
81,0,Memory,1,,,,,,,00870940307fa.jpg,,,,,,,,,,,,,,,
82,0,Memory,1,,,,,,,00568940928fa.jpg,,,,,,,,,,,,,,,
83,0,Memory,1,,,,,,,sunacsdhbbsybcyxnel.jpg,,,,,,,,,,,,,,,
84,0,Memory,1,,,,,,,sunapqkpqdfvxlbqwyo.jpg,,,,,,,,,,,,,,,
85,0,Memory,1,,,,,,,sunacvjlsylseoghjup.jpg,,,,,,,,,,,,,,,
86,0,Memory,1,,,,,,,00746941201fa.jpg,,,,,,,,,,,,,,,
87,0,Memory,1,,,,,,,00857940307fa.jpg,,,,,,,,,,,,,,,
88,0,Memory,1,,,,,,,sunadqmjrhfjyuzyvdd.jpg,,,,,,,,,,,,,,,
89,0,Memory,1,,,,,,,sunamkmeblgteyggink.jpg,,,,,,,,,,,,,,,
90,0,Memory,1,,,,,,,00086931230fa.jpg,,,,,,,,,,,,,,,
91,0,Memory,1,,,,,,,00989960627fa.jpg,,,,,,,,,,,,,,,
92,0,Memory,1,,,,,,,sunbondbduabvijnmch.jpg,,,,,,,,,,,,,,,
93,0,Memory,1,,,,,,,00848940307fa.jpg,,,,,,,,,,,,,,,
94,0,Memory,1,,,,,,,sunaiwfobocrruqznsv.jpg,,,,,,,,,,,,,,,
95,0,Memory,1,,,,,,,00775941205fa.jpg,,,,,,,,,,,,,,,
96,0,Memory,1,,,,,,,sunajrgtewnualfcerj.jpg,,,,,,,,,,,,,,,
97,0,Memory,1,,,,,,,00630940928fa.jpg,,,,,,,,,,,,,,,
98,0,Memory,1,,,,,,,sunafvwfsmqkjrutjta.jpg,,,,,,,,,,,,,,,
99,0,Memory,1,,,,,,,00878960530fa.jpg,,,,,,,,,,,,,,,
100,0,Presentation,2,00648941031fa_sunadfndyrtqqiasoig.jpg,00314940422fa_sunabwmcbaxwioksdgw.jpg,00648941031fa.jpg,sunadfndyrtqqiasoig.jpg,00314940422fa.jpg,sunabwmcbaxwioksdgw.jpg,,,<,Face,,,,,1,,,,,,,o
101,0,Presentation,2,00880960530fa_sunakmnfgklupjijsgf.jpg,00264940128fb_sunabjzyxcjnmztdonj.jpg,00880960530fa.jpg,sunakmnfgklupjijsgf.jpg,00264940128fb.jpg,sunabjzyxcjnmztdonj.jpg,,,<,Face,,,,,1,,,,,,,o
102,0,Presentation,2,00753941201fa_sunafcofuuzebuadceo.jpg,00938960627fa_sunaqyylsngywqzwfmx.jpg,00753941201fa.jpg,sunafcofuuzebuadceo.jpg,00938960627fa.jpg,sunaqyylsngywqzwfmx.jpg,,,<,Face,,,,,1,,,,,,,o
103,0,Presentation,2,01010960627fa_suncnkvbhypnivcohyx.jpg,00796941205fa_sunaguchqqnrtodtezq.jpg,01010960627fa.jpg,suncnkvbhypnivcohyx.jpg,00796941205fa.jpg,sunaguchqqnrtodtezq.jpg,,,<,Face,,,,,1,,,,,,,x
104,0,Presentation,2,00969960627fa_sunbaoizrfijvhpnnjn.jpg,00101931230fb_sunaajqmsaavkmgbsth.jpg,00969960627fa.jpg,sunbaoizrfijvhpnnjn.jpg,00101931230fb.jpg,sunaajqmsaavkmgbsth.jpg,,,<,Face,,,,,1,,,,,,,o
105,0,Presentation,2,00877960530fa_sunajxpkuhbizeveguy.jpg,00911960530fa_sunaooaqzputrowwbsw.jpg,00877960530fa.jpg,sunajxpkuhbizeveguy.jpg,00911960530fa.jpg,sunaooaqzputrowwbsw.jpg,,,<,Face,,,,,1,,,,,,,o
106,0,Presentation,2,00144931230fb_sunaathajvxrgptwhoj.jpg,00979960627fa_sunbdycacjfaujxitbw.jpg,00144931230fb.jpg,sunaathajvxrgptwhoj.jpg,00979960627fa.jpg,sunbdycacjfaujxitbw.jpg,,,<,Face,,,,,1,,,,,,,o
107,0,Presentation,2,00308940422fb_sunabwfvcqqidycwypa.jpg,00574940928fa_sunacvbrcejzwmcgnoq.jpg,00308940422fb.jpg,sunabwfvcqqidycwypa.jpg,00574940928fa.jpg,sunacvbrcejzwmcgnoq.jpg,,,<,Face,,,,,1,,,,,,,x
108,0,Presentation,2,00705960530fa_sunaduslxfzlbxlllnz.jpg,00858940307fa_sunaixpqndlwhwjtjek.jpg,00705960530fa.jpg,sunaduslxfzlbxlllnz.jpg,00858940307fa.jpg,sunaixpqndlwhwjtjek.jpg,,,<,Face,,,,,0,,,,,,,x
109,0,Presentation,2,00760960620fa_sunaffstbkappprzxnv.jpg,00984960627fa_sunbfzchmomnvzhbxdg.jpg,00760960620fa.jpg,sunaffstbkappprzxnv.jpg,00984960627fa.jpg,sunbfzchmomnvzhbxdg.jpg,,,<,Face,,,,,1,,,,,,,x
110,0,Memory,2,,,,,,,sunbloeoiozwjjsiamp.jpg,,,,,,,,,,,,,,,
111,0,Memory,2,,,,,,,sunaathajvxrgptwhoj.jpg,,,,,,,,,,,,,,,
112,0,Memory,2,,,,,,,sunaooaqzputrowwbsw.jpg,,,,,,,,,,,,,,,
113,0,Memory,2,,,,,,,sunajxpkuhbizeveguy.jpg,,,,,,,,,,,,,,,
114,0,Memory,2,,,,,,,sunbaoizrfijvhpnnjn.jpg,,,,,,,,,,,,,,,
115,0,Memory,2,,,,,,,00979960627fa.jpg,,,,,,,,,,,,,,,
116,0,Memory,2,,,,,,,00911960530fa.jpg,,,,,,,,,,,,,,,
117,0,Memory,2,,,,,,,sunakmnfgklupjijsgf.jpg,,,,,,,,,,,,,,,
118,0,Memory,2,,,,,,,00987960627fa.jpg,,,,,,,,,,,,,,,
119,0,Memory,2,,,,,,,00858940307fa.jpg,,,,,,,,,,,,,,,
120,0,Memory,2,,,,,,,00893960530Fa.jpg,,,,,,,,,,,,,,,
121,0,Memory,2,,,,,,,sunaloffvbvysigxent.jpg,,,,,,,,,,,,,,,
122,0,Memory,2,,,,,,,00969960627fa.jpg,,,,,,,,,,,,,,,
123,0,Memory,2,,,,,,,00785941205fa.jpg,,,,,,,,,,,,,,,
124,0,Memory,2,,,,,,,sunbfzchmomnvzhbxdg.jpg,,,,,,,,,,,,,,,
125,0,Memory,2,,,,,,,sunaflojskatpeqyzqp.jpg,,,,,,,,,,,,,,,
126,0,Memory,2,,,,,,,00125931230fa.jpg,,,,,,,,,,,,,,,
127,0,Memory,2,,,,,,,sunaalltyvjhbzhkmvg.jpg,,,,,,,,,,,,,,,
128,0,Memory,2,,,,,,,sunaqyylsngywqzwfmx.jpg,,,,,,,,,,,,,,,
129,0,Memory,2,,,,,,,sunaofikylqtxphvdem.jpg,,,,,,,,,,,,,,,
130,0,Memory,2,,,,,,,sunaavtbadenwnzeutj.jpg,,,,,,,,,,,,,,,
131,0,Memory,2,,,,,,,00910960530fa.jpg,,,,,,,,,,,,,,,
132,0,Memory,2,,,,,,,00144931230fb.jpg,,,,,,,,,,,,,,,
133,0,Memory,2,,,,,,,sunadrmfzmstgdjdcod.jpg,,,,,,,,,,,,,,,
134,0,Memory,2,,,,,,,sunabrwnslxalcohfre.jpg,,,,,,,,,,,,,,,
135,0,Memory,2,,,,,,,sunaffstbkappprzxnv.jpg,,,,,,,,,,,,,,,
136,0,Memory,2,,,,,,,00296940422fa.jpg,,,,,,,,,,,,,,,
137,0,Memory,2,,,,,,,00792941205fa.jpg,,,,,,,,,,,,,,,
138,0,Memory,2,,,,,,,00880960530fa.jpg,,,,,,,,,,,,,,,
139,0,Memory,2,,,,,,,00694941121fa.jpg,,,,,,,,,,,,,,,
140,0,Memory,2,,,,,,,00984960627fa.jpg,,,,,,,,,,,,,,,
141,0,Memory,2,,,,,,,00877960530fa.jpg,,,,,,,,,,,,,,,
142,0,Memory,2,,,,,,,00938960627fa.jpg,,,,,,,,,,,,,,,
143,0,Memory,2,,,,,,,00760960620fa.jpg,,,,,,,,,,,,,,,
144,0,Memory,2,,,,,,,00184940128fa.jpg,,,,,,,,,,,,,,,
145,0,Memory,2,,,,,,,00770941201fa.jpg,,,,,,,,,,,,,,,
146,0,Memory,2,,,,,,,sunbdycacjfaujxitbw.jpg,,,,,,,,,,,,,,,
147,0,Memory,2,,,,,,,sunagsiwrmuixqgdimb.jpg,,,,,,,,,,,,,,,
148,0,Memory,2,,,,,,,sunaglqunwuycxydmyu.jpg,,,,,,,,,,,,,,,
149,0,Memory,2,,,,,,,sunaixpqndlwhwjtjek.jpg,,,,,,,,,,,,,,,
150,0,Presentation,3,00895960530fa_sunamczizlzavhzhpay.jpg,00913960530fa_sunaooffzffbhcpirmm.jpg,00895960530fa.jpg,sunamczizlzavhzhpay.jpg,00913960530fa.jpg,sunaooffzffbhcpirmm.jpg,,,>,Place,,,,,1,,,,,,,o
151,0,Presentation,3,00959960627fa_sunavxokzybtomhbmvm.jpg,00780960530fa_sunagetqixeypsysbpn.jpg,00959960627fa.jpg,sunavxokzybtomhbmvm.jpg,00780960530fa.jpg,sunagetqixeypsysbpn.jpg,,,>,Place,,,,,1,,,,,,,x
152,0,Presentation,3,00797960620fa_sunagufzbeteqdjxais.jpg,00062931230fb_sunaaelotvjgibjtjhs.jpg,00797960620fa.jpg,sunagufzbeteqdjxais.jpg,00062931230fb.jpg,sunaaelotvjgibjtjhs.jpg,,,>,Place,,,,,1,,,,,,,x
153,0,Presentation,3,00906960530fa_sunantryfbloeaomfta.jpg,00505960627fa_sunabzuqsrgcsonqlkz.jpg,00906960530fa.jpg,sunantryfbloeaomfta.jpg,00505960627fa.jpg,sunabzuqsrgcsonqlkz.jpg,,,>,Place,,,,,1,,,,,,,o
154,0,Presentation,3,00794960620fa_sunagtqhhwxjeuxdebe.jpg,00102931230fa_sunaajspcoepticvplv.jpg,00794960620fa.jpg,sunagtqhhwxjeuxdebe.jpg,00102931230fa.jpg,sunaajspcoepticvplv.jpg,,,>,Place,,,,,1,,,,,,,o
155,0,Presentation,3,00968960627fa_sunbagfpovqwbuexqdn.jpg,00071941031fa_sunaaexqbtdswxrqjvz.jpg,00968960627fa.jpg,sunbagfpovqwbuexqdn.jpg,00071941031fa.jpg,sunaaexqbtdswxrqjvz.jpg,,,>,Place,,,,,0,,,,,,,x
156,0,Presentation,3,00130931230fa_sunaamvxnvouicstkjb.jpg,00725941201fa_sunaefgzwiramypjvtd.jpg,00130931230fa.jpg,sunaamvxnvouicstkjb.jpg,00725941201fa.jpg,sunaefgzwiramypjvtd.jpg,,,>,Place,,,,,1,,,,,,,o
157,0,Presentation,3,00154931230fa_sunaauueuhhvklldjik.jpg,00093931230fa_sunaahwnmtqsrhocysw.jpg,00154931230fa.jpg,sunaauueuhhvklldjik.jpg,00093931230fa.jpg,sunaahwnmtqsrhocysw.jpg,,,>,Place,,,,,0,,,,,,,x
158,0,Presentation,3,00670941121fa_sunadochqcucscehsgk.jpg,00095931230fa_sunaahzooisqkwlxwoz.jpg,00670941121fa.jpg,sunadochqcucscehsgk.jpg,00095931230fa.jpg,sunaahzooisqkwlxwoz.jpg,,,>,Place,,,,,1,,,,,,,x
159,0,Presentation,3,00129931230fb_sunaamsdyakblkfoydx.jpg,00874940307fa_sunajtrfunvzdfticna.jpg,00129931230fb.jpg,sunaamsdyakblkfoydx.jpg,00874940307fa.jpg,sunajtrfunvzdfticna.jpg,,,>,Place,,,,,1,,,,,,,x
160,0,Memory,3,,,,,,,00780960530fa.jpg,,,,,,,,,,,,,,,
161,0,Memory,3,,,,,,,00793941205fa.jpg,,,,,,,,,,,,,,,
162,0,Memory,3,,,,,,,sunafkmnlytenlsywia.jpg,,,,,,,,,,,,,,,
163,0,Memory,3,,,,,,,sunagetqixeypsysbpn.jpg,,,,,,,,,,,,,,,
164,0,Memory,3,,,,,,,00095931230fa.jpg,,,,,,,,,,,,,,,
165,0,Memory,3,,,,,,,00959960627fa.jpg,,,,,,,,,,,,,,,
166,0,Memory,3,,,,,,,sunagtjwilqjvxohypn.jpg,,,,,,,,,,,,,,,
167,0,Memory,3,,,,,,,sunagdzlvkqtpnfxfcg.jpg,,,,,,,,,,,,,,,
168,0,Memory,3,,,,,,,00797960620fa.jpg,,,,,,,,,,,,,,,
169,0,Memory,3,,,,,,,00894960620fa.jpg,,,,,,,,,,,,,,,
170,0,Memory,3,,,,,,,00581940928fa.jpg,,,,,,,,,,,,,,,
171,0,Memory,3,,,,,,,sunamczizlzavhzhpay.jpg,,,,,,,,,,,,,,,
172,0,Memory,3,,,,,,,sunaaexqbtdswxrqjvz.jpg,,,,,,,,,,,,,,,
173,0,Memory,3,,,,,,,00908960530fa.jpg,,,,,,,,,,,,,,,
174,0,Memory,3,,,,,,,sunalqmfgeadpqsyzpd.jpg,,,,,,,,,,,,,,,
175,0,Memory,3,,,,,,,00906960530fa.jpg,,,,,,,,,,,,,,,
176,0,Memory,3,,,,,,,00768941205fa.jpg,,,,,,,,,,,,,,,
177,0,Memory,3,,,,,,,00794960620fa.jpg,,,,,,,,,,,,,,,
178,0,Memory,3,,,,,,,00895960530fa.jpg,,,,,,,,,,,,,,,
179,0,Memory,3,,,,,,,sunadpnqovzckyikrjo.jpg,,,,,,,,,,,,,,,
180,0,Memory,3,,,,,,,sunaobtizabegtwfwul.jpg,,,,,,,,,,,,,,,
181,0,Memory,3,,,,,,,00093931230fa.jpg,,,,,,,,,,,,,,,
182,0,Memory,3,,,,,,,00779941205fa.jpg,,,,,,,,,,,,,,,
183,0,Memory,3,,,,,,,sunantryfbloeaomfta.jpg,,,,,,,,,,,,,,,
184,0,Memory,3,,,,,,,sunaanptmsknhirrzed.jpg,,,,,,,,,,,,,,,
185,0,Memory,3,,,,,,,00136931230fb.jpg,,,,,,,,,,,,,,,
186,0,Memory,3,,,,,,,sunacvzhvcksnwqcqbw.jpg,,,,,,,,,,,,,,,
187,0,Memory,3,,,,,,,00909960530.jpg,,,,,,,,,,,,,,,
188,0,Memory,3,,,,,,,sunaahzooisqkwlxwoz.jpg,,,,,,,,,,,,,,,
189,0,Memory,3,,,,,,,sunagtqhhwxjeuxdebe.jpg,,,,,,,,,,,,,,,
190,0,Memory,3,,,,,,,sunavxokzybtomhbmvm.jpg,,,,,,,,,,,,,,,
191,0,Memory,3,,,,,,,sunacypmnujalygkunp.jpg,,,,,,,,,,,,,,,
192,0,Memory,3,,,,,,,00676941121fa.jpg,,,,,,,,,,,,,,,
193,0,Memory,3,,,,,,,sunaahwnmtqsrhocysw.jpg,,,,,,,,,,,,,,,
194,0,Memory,3,,,,,,,00505960627fa.jpg,,,,,,,,,,,,,,,
195,0,Memory,3,,,,,,,sunanwjjyqqwzqrqagd.jpg,,,,,,,,,,,,,,,
196,0,Memory,3,,,,,,,sunagufzbeteqdjxais.jpg,,,,,,,,,,,,,,,
197,0,Memory,3,,,,,,,00071941031fa.jpg,,,,,,,,,,,,,,,
198,0,Memory,3,,,,,,,00620940928fa.jpg,,,,,,,,,,,,,,,
199,0,Memory,3,,,,,,,sunabzuqsrgcsonqlkz.jpg,,,,,,,,,,,,,,,
200,0,Presentation,4,00483940519fa_sunabyvpwkgsjtijdwj.jpg,00958960627fa_sunavspxmxubqaeidjt.jpg,00483940519fa.jpg,sunabyvpwkgsjtijdwj.jpg,00958960627fa.jpg,sunavspxmxubqaeidjt.jpg,,,<,Place,,,,,1,,,,,,,x
201,0,Presentation,4,00529940519fa_sunacbeefkxpymwevpk.jpg,00221940128fa_sunabcfpwlpolnutyju.jpg,00529940519fa.jpg,sunacbeefkxpymwevpk.jpg,00221940128fa.jpg,sunabcfpwlpolnutyju.jpg,,,<,Place,,,,,1,,,,,,,o
202,0,Presentation,4,00982960627fa_sunbesrwkdsffeogeqq.jpg,01000960627fa_sunbvzmgrdvaakxusbu.jpg,00982960627fa.jpg,sunbesrwkdsffeogeqq.jpg,01000960627fa.jpg,sunbvzmgrdvaakxusbu.jpg,,,<,Place,,,,,1,,,,,,,o
203,0,Presentation,4,00747941201fa_sunaeutbrtswvsozxyk.jpg,00548940519fa_sunacerqowiaeoqkmsq.jpg,00747941201fa.jpg,sunaeutbrtswvsozxyk.jpg,00548940519fa.jpg,sunacerqowiaeoqkmsq.jpg,,,<,Place,,,,,1,,,,,,,o
204,0,Presentation,4,00944960627fa_sunasbbntuiheekqyaq.jpg,00786941205fa_sunagmhildamktmqjss.jpg,00944960627fa.jpg,sunasbbntuiheekqyaq.jpg,00786941205fa.jpg,sunagmhildamktmqjss.jpg,,,<,Place,,,,,1,,,,,,,o
205,0,Presentation,4,00772941201fa_sunafpfpiiujzoesnqg.jpg,00288940422fa_sunabppokiyglaxpcha.jpg,00772941201fa.jpg,sunafpfpiiujzoesnqg.jpg,00288940422fa.jpg,sunabppokiyglaxpcha.jpg,,,<,Place,,,,,1,,,,,,,o
206,0,Presentation,4,00242940128fa_sunabcuurugvxwparpk.jpg,00997960627fa_sunbtpilbhhbmhmeuzq.jpg,00242940128fa.jpg,sunabcuurugvxwparpk.jpg,00997960627fa.jpg,sunbtpilbhhbmhmeuzq.jpg,,,<,Place,,,,,1,,,,,,,x
207,0,Presentation,4,00126931230fb_sunaamdjwemxpmmtypi.jpg,00961960627fa_sunawotxrevnqvamsfp.jpg,00126931230fb.jpg,sunaamdjwemxpmmtypi.jpg,00961960627fa.jpg,sunawotxrevnqvamsfp.jpg,,,<,Place,,,,,1,,,,,,,x
208,0,Presentation,4,00783941205fa_sunagjeesomrwjsfqie.jpg,00647941031fa_sunadflbrkckmepztql.jpg,00783941205fa.jpg,sunagjeesomrwjsfqie.jpg,00647941031fa.jpg,sunadflbrkckmepztql.jpg,,,<,Place,,,,,1,,,,,,,x
209,0,Presentation,4,00479940519fa_sunabxsbfwjccqxxzxq.jpg,00147931230fb_sunaatpkocdkocwxpkb.jpg,00479940519fa.jpg,sunabxsbfwjccqxxzxq.jpg,00147931230fb.jpg,sunaatpkocdkocwxpkb.jpg,,,<,Place,,,,,1,,,,,,,o
210,0,Memory,4,,,,,,,sunaqsolmfydodnakub.jpg,,,,,,,,,,,,,,,
211,0,Memory,4,,,,,,,00126931230fb.jpg,,,,,,,,,,,,,,,
212,0,Memory,4,,,,,,,sunabqowuarvqqcnipn.jpg,,,,,,,,,,,,,,,
213,0,Memory,4,,,,,,,00647941031fa.jpg,,,,,,,,,,,,,,,
214,0,Memory,4,,,,,,,sunavspxmxubqaeidjt.jpg,,,,,,,,,,,,,,,
215,0,Memory,4,,,,,,,sunadflbrkckmepztql.jpg,,,,,,,,,,,,,,,
216,0,Memory,4,,,,,,,sunafvsxtzaizojicxx.jpg,,,,,,,,,,,,,,,
217,0,Memory,4,,,,,,,00939960627fa.jpg,,,,,,,,,,,,,,,
218,0,Memory,4,,,,,,,sunaangbuylfvckqqoo.jpg,,,,,,,,,,,,,,,
219,0,Memory,4,,,,,,,sunbvzmgrdvaakxusbu.jpg,,,,,,,,,,,,,,,
220,0,Memory,4,,,,,,,sunabizydfotqddlnjp.jpg,,,,,,,,,,,,,,,
221,0,Memory,4,,,,,,,00483940519fa.jpg,,,,,,,,,,,,,,,
222,0,Memory,4,,,,,,,sunafpfpiiujzoesnqg.jpg,,,,,,,,,,,,,,,
223,0,Memory,4,,,,,,,00529940519fa.jpg,,,,,,,,,,,,,,,
224,0,Memory,4,,,,,,,00218940128fa.jpg,,,,,,,,,,,,,,,
225,0,Memory,4,,,,,,,sunacycdoztxoluxjyk.jpg,,,,,,,,,,,,,,,
226,0,Memory,4,,,,,,,00609940928fa.jpg,,,,,,,,,,,,,,,
227,0,Memory,4,,,,,,,00747941201fa.jpg,,,,,,,,,,,,,,,
228,0,Memory,4,,,,,,,01000960627fa.jpg,,,,,,,,,,,,,,,
229,0,Memory,4,,,,,,,sunabyvpwkgsjtijdwj.jpg,,,,,,,,,,,,,,,
230,0,Memory,4,,,,,,,00773960620fa.jpg,,,,,,,,,,,,,,,
231,0,Memory,4,,,,,,,00786941205fa.jpg,,,,,,,,,,,,,,,
232,0,Memory,4,,,,,,,sunacbeefkxpymwevpk.jpg,,,,,,,,,,,,,,,
233,0,Memory,4,,,,,,,sunbwtlihsuptkrckid.jpg,,,,,,,,,,,,,,,
234,0,Memory,4,,,,,,,sunaamdjwemxpmmtypi.jpg,,,,,,,,,,,,,,,
235,0,Memory,4,,,,,,,00958960627fa.jpg,,,,,,,,,,,,,,,
236,0,Memory,4,,,,,,,00937960627fa.jpg,,,,,,,,,,,,,,,
237,0,Memory,4,,,,,,,00636941031fa.jpg,,,,,,,,,,,,,,,
238,0,Memory,4,,,,,,,sunbtpilbhhbmhmeuzq.jpg,,,,,,,,,,,,,,,
239,0,Memory,4,,,,,,,sunagmhildamktmqjss.jpg,,,,,,,,,,,,,,,
240,0,Memory,4,,,,,,,00290940422fa.jpg,,,,,,,,,,,,,,,
241,0,Memory,4,,,,,,,sunabbwggenhfbftyvi.jpg,,,,,,,,,,,,,,,
242,0,Memory,4,,,,,,,00772941201fa.jpg,,,,,,,,,,,,,,,
243,0,Memory,4,,,,,,,00131931230fb.jpg,,,,,,,,,,,,,,,
244,0,Memory,4,,,,,,,01004960627fa.jpg,,,,,,,,,,,,,,,
245,0,Memory,4,,,,,,,00997960627fa.jpg,,,,,,,,,,,,,,,
246,0,Memory,4,,,,,,,sunarceibpcyacbmfga.jpg,,,,,,,,,,,,,,,
247,0,Memory,4,,,,,,,sunaddtdkycxbqlpfqa.jpg,,,,,,,,,,,,,,,
248,0,Memory,4,,,,,,,sunaeutbrtswvsozxyk.jpg,,,,,,,,,,,,,,,
249,0,Memory,4,,,,,,,00262940128fa.jpg,,,,,,,,,,,,,,,
250,0,Presentation,5,00829940307fa_sunahwgbqkqcrwprgvh.jpg,00882960530fa_sunaknlirqjqiwbbeeg.jpg,00829940307fa.jpg,sunahwgbqkqcrwprgvh.jpg,00882960530fa.jpg,sunaknlirqjqiwbbeeg.jpg,,,>,Face,,,,,1,,,,,,,x
251,0,Presentation,5,00313940422fa_sunabwjvmoaddlyxfjr.jpg,00634940928fa_sunadcphrizvfpljiqt.jpg,00313940422fa.jpg,sunabwjvmoaddlyxfjr.jpg,00634940928fa.jpg,sunadcphrizvfpljiqt.jpg,,,>,Face,,,,,1,,,,,,,x
252,0,Presentation,5,00801941205fa_sunagvprlbprarvgdvj.jpg,00787960620fa_sunagoufulkpsxrmklt.jpg,00801941205fa.jpg,sunagvprlbprarvgdvj.jpg,00787960620fa.jpg,sunagoufulkpsxrmklt.jpg,,,>,Face,,,,,1,,,,,,,o
253,0,Presentation,5,00728941205fa_sunaejnvnpltdmhbcsi.jpg,00887960530_sunalcrtwiycqobgelp.jpg,00728941205fa.jpg,sunaejnvnpltdmhbcsi.jpg,00887960530.jpg,sunalcrtwiycqobgelp.jpg,,,>,Face,,,,,1,,,,,,,o
254,0,Presentation,5,00076931230fa_sunaafewhewbxmjiurz.jpg,00115931230fa_sunaakmxzhuceuiryah.jpg,00076931230fa.jpg,sunaafewhewbxmjiurz.jpg,00115931230fa.jpg,sunaakmxzhuceuiryah.jpg,,,>,Face,,,,,1,,,,,,,x
255,0,Presentation,5,00839940307fa_sunaipyohrqlwngaqif.jpg,00957960627fa_sunavhxgmgrqsaptynb.jpg,00839940307fa.jpg,sunaipyohrqlwngaqif.jpg,00957960627fa.jpg,sunavhxgmgrqsaptynb.jpg,,,>,Face,,,,,1,,,,,,,o
256,0,Presentation,5,00109931230fa_sunaajuzribjrizdshh.jpg,00777941205fa_sunagcinxkccdtrjmlv.jpg,00109931230fa.jpg,sunaajuzribjrizdshh.jpg,00777941205fa.jpg,sunagcinxkccdtrjmlv.jpg,,,>,Face,,,,,1,,,,,,,x
257,0,Presentation,5,00892960530fa_sunalntxqqadigcletd.jpg,00790941205fa_sunagpjzsbltchlwvou.jpg,00892960530fa.jpg,sunalntxqqadigcletd.jpg,00790941205fa.jpg,sunagpjzsbltchlwvou.jpg,,,>,Face,,,,,1,,,,,,,o
258,0,Presentation,5,00214940128fa_sunabbafjowbzcvbucc.jpg,01007960627fa_sunbxarcshsnqsefemx.jpg,00214940128fa.jpg,sunabbafjowbzcvbucc.jpg,01007960627fa.jpg,sunbxarcshsnqsefemx.jpg,,,>,Face,,,,,1,,,,,,,x
259,0,Presentation,5,00209940128fb_sunabaergayifsgacxt.jpg,00098931230fa_sunaajpqmulidejvjsr.jpg,00209940128fb.jpg,sunabaergayifsgacxt.jpg,00098931230fa.jpg,sunaajpqmulidejvjsr.jpg,,,>,Face,,,,,1,,,,,,,x
260,0,Memory,5,,,,,,,sunadzuvtmtmgupotmf.jpg,,,,,,,,,,,,,,,
261,0,Memory,5,,,,,,,00985960627fa.jpg,,,,,,,,,,,,,,,
262,0,Memory,5,,,,,,,sunaatjesvdupctftmn.jpg,,,,,,,,,,,,,,,
263,0,Memory,5,,,,,,,sunabaergayifsgacxt.jpg,,,,,,,,,,,,,,,
264,0,Memory,5,,,,,,,00836940307fa.jpg,,,,,,,,,,,,,,,
265,0,Memory,5,,,,,,,00076931230fa.jpg,,,,,,,,,,,,,,,
266,0,Memory,5,,,,,,,sunadsgmtznewzyasnk.jpg,,,,,,,,,,,,,,,
267,0,Memory,5,,,,,,,sunabwjvmoaddlyxfjr.jpg,,,,,,,,,,,,,,,
268,0,Memory,5,,,,,,,sunaaftlyfudyzuhqzf.jpg,,,,,,,,,,,,,,,
269,0,Memory,5,,,,,,,00209940128fb.jpg,,,,,,,,,,,,,,,
270,0,Memory,5,,,,,,,sunanaacmmosxrfwmvl.jpg,,,,,,,,,,,,,,,
271,0,Memory,5,,,,,,,00719960620fa.jpg,,,,,,,,,,,,,,,
272,0,Memory,5,,,,,,,sunadcphrizvfpljiqt.jpg,,,,,,,,,,,,,,,
273,0,Memory,5,,,,,,,sunaafewhewbxmjiurz.jpg,,,,,,,,,,,,,,,
274,0,Memory,5,,,,,,,00208940128fa.jpg,,,,,,,,,,,,,,,
275,0,Memory,5,,,,,,,sunabasphceswhwwqvv.jpg,,,,,,,,,,,,,,,
276,0,Memory,5,,,,,,,00829940307fa.jpg,,,,,,,,,,,,,,,
277,0,Memory,5,,,,,,,sunagoufulkpsxrmklt.jpg,,,,,,,,,,,,,,,
278,0,Memory,5,,,,,,,sunahwgbqkqcrwprgvh.jpg,,,,,,,,,,,,,,,
279,0,Memory,5,,,,,,,00790941205fa.jpg,,,,,,,,,,,,,,,
280,0,Memory,5,,,,,,,00787960620fa.jpg,,,,,,,,,,,,,,,
281,0,Memory,5,,,,,,,00145931230fb.jpg,,,,,,,,,,,,,,,
282,0,Memory,5,,,,,,,00902960530fa.jpg,,,,,,,,,,,,,,,
283,0,Memory,5,,,,,,,sunavhxgmgrqsaptynb.jpg,,,,,,,,,,,,,,,
284,0,Memory,5,,,,,,,sunbgklxeqjhdbyfhhy.jpg,,,,,,,,,,,,,,,
285,0,Memory,5,,,,,,,sunaazzyhbvqjpmazjq.jpg,,,,,,,,,,,,,,,
286,0,Memory,5,,,,,,,00700941121fa.jpg,,,,,,,,,,,,,,,
287,0,Memory,5,,,,,,,00098931230fa.jpg,,,,,,,,,,,,,,,
288,0,Memory,5,,,,,,,sunaajpqmulidejvjsr.jpg,,,,,,,,,,,,,,,
289,0,Memory,5,,,,,,,00543940519fa.jpg,,,,,,,,,,,,,,,
290,0,Memory,5,,,,,,,sunagpjzsbltchlwvou.jpg,,,,,,,,,,,,,,,
291,0,Memory,5,,,,,,,00957960627fa.jpg,,,,,,,,,,,,,,,
292,0,Memory,5,,,,,,,sunalntxqqadigcletd.jpg,,,,,,,,,,,,,,,
293,0,Memory,5,,,,,,,00081941031fa.jpg,,,,,,,,,,,,,,,
294,0,Memory,5,,,,,,,sunainqelldeebvxtcz.jpg,,,,,,,,,,,,,,,
295,0,Memory,5,,,,,,,00634940928fa.jpg,,,,,,,,,,,,,,,
296,0,Memory,5,,,,,,,00313940422fa.jpg,,,,,,,,,,,,,,,
297,0,Memory,5,,,,,,,00211940128fa.jpg,,,,,,,,,,,,,,,
298,0,Memory,5,,,,,,,sunacepzfrmtkiqonpy.jpg,,,,,,,,,,,,,,,
299,0,Memory,5,,,,,,,00892960530fa.jpg,,,,,,,,,,,,,,,
300,0,Presentation,6,00860940307fa_sunaizeyhvjzknwjudw.jpg,00730960620fa_sunaekgzpfilgjxpeyq.jpg,00860940307fa.jpg,sunaizeyhvjzknwjudw.jpg,00730960620fa.jpg,sunaekgzpfilgjxpeyq.jpg,,,>,Place,,,,,1,,,,,,,x
301,0,Presentation,6,00140931230fb_sunaapllqyqlykszopd.jpg,00778941205fa_sunagcthdfirrcawoic.jpg,00140931230fb.jpg,sunaapllqyqlykszopd.jpg,00778941205fa.jpg,sunagcthdfirrcawoic.jpg,,,>,Place,,,,,1,,,,,,,o
302,0,Presentation,6,00265940128fb_sunabkmdplkdbvxriff.jpg,00953960627fa_sunatstrpjxhvtbaczf.jpg,00265940128fb.jpg,sunabkmdplkdbvxriff.jpg,00953960627fa.jpg,sunatstrpjxhvtbaczf.jpg,,,>,Place,,,,,1,,,,,,,x
303,0,Presentation,6,00926960627Fa_sunapqwoeotxshkukbh.jpg,00153931230fa_sunaauhozyxzeeqstxi.jpg,00926960627Fa.jpg,sunapqwoeotxshkukbh.jpg,00153931230fa.jpg,sunaauhozyxzeeqstxi.jpg,,,>,Place,,,,,0,,,,,,,x
304,0,Presentation,6,01009960627fa_sunbxzweleltykebgan.jpg,00891960530fa_sunalkiibhqpxfamlll.jpg,01009960627fa.jpg,sunbxzweleltykebgan.jpg,00891960530fa.jpg,sunalkiibhqpxfamlll.jpg,,,>,Place,,,,,1,,,,,,,o
305,0,Presentation,6,00996960627fa_sunbpvgllfdejxcpjqp.jpg,00750941201fa_sunaeuzwggvibufclwf.jpg,00996960627fa.jpg,sunbpvgllfdejxcpjqp.jpg,00750941201fa.jpg,sunaeuzwggvibufclwf.jpg,,,>,Place,,,,,1,,,,,,,o
306,0,Presentation,6,00967960627fa_sunbaejotfklekvpxcz.jpg,00903960620fa_sunanainkqdvktzoxyl.jpg,00967960627fa.jpg,sunbaejotfklekvpxcz.jpg,00903960620fa.jpg,sunanainkqdvktzoxyl.jpg,,,>,Place,,,,,1,,,,,,,x
307,0,Presentation,6,00983960627fa_sunbfyvfqiimvdaxlqn.jpg,00727941205fa_sunaeisnjeetzmkbuad.jpg,00983960627fa.jpg,sunbfyvfqiimvdaxlqn.jpg,00727941205fa.jpg,sunaeisnjeetzmkbuad.jpg,,,>,Place,,,,,1,,,,,,,x
308,0,Presentation,6,00305940422fa_sunabtrnbvpppgczjim.jpg,00805941205fa_sunagwzdbtlixdhgolm.jpg,00305940422fa.jpg,sunabtrnbvpppgczjim.jpg,00805941205fa.jpg,sunagwzdbtlixdhgolm.jpg,,,>,Place,,,,,1,,,,,,,x
309,0,Presentation,6,00990960627fa_sunbpflsdaxnddnwcqi.jpg,00675941121fa_sunadoxcchtmsxewsau.jpg,00990960627fa.jpg,sunbpflsdaxnddnwcqi.jpg,00675941121fa.jpg,sunadoxcchtmsxewsau.jpg,,,>,Place,,,,,0,,,,,,,x
310,0,Memory,6,,,,,,,00810941205fa.jpg,,,,,,,,,,,,,,,
311,0,Memory,6,,,,,,,sunbaejotfklekvpxcz.jpg,,,,,,,,,,,,,,,
312,0,Memory,6,,,,,,,sunaekgzpfilgjxpeyq.jpg,,,,,,,,,,,,,,,
313,0,Memory,6,,,,,,,00260940128fa.jpg,,,,,,,,,,,,,,,
314,0,Memory,6,,,,,,,00926960627Fa.jpg,,,,,,,,,,,,,,,
315,0,Memory,6,,,,,,,sunaeisnjeetzmkbuad.jpg,,,,,,,,,,,,,,,
316,0,Memory,6,,,,,,,00650941031fa.jpg,,,,,,,,,,,,,,,
317,0,Memory,6,,,,,,,00723941201fa.jpg,,,,,,,,,,,,,,,
318,0,Memory,6,,,,,,,sunabgfhvifeijihhjw.jpg,,,,,,,,,,,,,,,
319,0,Memory,6,,,,,,,00140931230fb.jpg,,,,,,,,,,,,,,,
320,0,Memory,6,,,,,,,sunaizeyhvjzknwjudw.jpg,,,,,,,,,,,,,,,
321,0,Memory,6,,,,,,,sunapqwoeotxshkukbh.jpg,,,,,,,,,,,,,,,
322,0,Memory,6,,,,,,,sunbpflsdaxnddnwcqi.jpg,,,,,,,,,,,,,,,
323,0,Memory,6,,,,,,,sunatstrpjxhvtbaczf.jpg,,,,,,,,,,,,,,,
324,0,Memory,6,,,,,,,sunagwzdbtlixdhgolm.jpg,,,,,,,,,,,,,,,
325,0,Memory,6,,,,,,,sunaakvmbftkrgqhjun.jpg,,,,,,,,,,,,,,,
326,0,Memory,6,,,,,,,sunahctntqrunhdxhtb.jpg,,,,,,,,,,,,,,,
327,0,Memory,6,,,,,,,00730960620fa.jpg,,,,,,,,,,,,,,,
328,0,Memory,6,,,,,,,sunaedtgwjvvziytspa.jpg,,,,,,,,,,,,,,,
329,0,Memory,6,,,,,,,sunaavchcbptaerhcfy.jpg,,,,,,,,,,,,,,,
330,0,Memory,6,,,,,,,00967960627fa.jpg,,,,,,,,,,,,,,,
331,0,Memory,6,,,,,,,sunaqbmgkgqucajzrkp.jpg,,,,,,,,,,,,,,,
332,0,Memory,6,,,,,,,00743941201fa.jpg,,,,,,,,,,,,,,,
333,0,Memory,6,,,,,,,00119931230fb.jpg,,,,,,,,,,,,,,,
334,0,Memory,6,,,,,,,00727941205fa.jpg,,,,,,,,,,,,,,,
335,0,Memory,6,,,,,,,sunadoxcchtmsxewsau.jpg,,,,,,,,,,,,,,,
336,0,Memory,6,,,,,,,00719941201fa.jpg,,,,,,,,,,,,,,,
337,0,Memory,6,,,,,,,00675941121fa.jpg,,,,,,,,,,,,,,,
338,0,Memory,6,,,,,,,00158931230fb.jpg,,,,,,,,,,,,,,,
339,0,Memory,6,,,,,,,sunadikxpvqeabxrvvc.jpg,,,,,,,,,,,,,,,
340,0,Memory,6,,,,,,,00953960627fa.jpg,,,,,,,,,,,,,,,
341,0,Memory,6,,,,,,,00773941201fa.jpg,,,,,,,,,,,,,,,
342,0,Memory,6,,,,,,,00860940307fa.jpg,,,,,,,,,,,,,,,
343,0,Memory,6,,,,,,,00805941205fa.jpg,,,,,,,,,,,,,,,
344,0,Memory,6,,,,,,,00990960627fa.jpg,,,,,,,,,,,,,,,
345,0,Memory,6,,,,,,,sunadvithllcgmfxsrn.jpg,,,,,,,,,,,,,,,
346,0,Memory,6,,,,,,,sunaeoghzrjarigmwua.jpg,,,,,,,,,,,,,,,
347,0,Memory,6,,,,,,,00935960627fa.jpg,,,,,,,,,,,,,,,
348,0,Memory,6,,,,,,,sunafvcflzhlqloapyo.jpg,,,,,,,,,,,,,,,
349,0,Memory,6,,,,,,,sunaapllqyqlykszopd.jpg,,,,,,,,,,,,,,,
350,0,Presentation,7,00931960627fa_sunaptrqvaooxfvktvw.jpg,00292940422fb_sunabrjdpmoedcdjbpo.jpg,00931960627fa.jpg,sunaptrqvaooxfvktvw.jpg,00292940422fb.jpg,sunabrjdpmoedcdjbpo.jpg,,,<,Face,,,,,1,,,,,,,x
351,0,Presentation,7,00965960627fa_sunaydywdmvlfddbxbk.jpg,00970960627fa_sunbasypfgzjtomktmu.jpg,00965960627fa.jpg,sunaydywdmvlfddbxbk.jpg,00970960627fa.jpg,sunbasypfgzjtomktmu.jpg,,,<,Face,,,,,1,,,,,,,o
352,0,Presentation,7,00804960530fa_sunagwswhkvnsmuszlz.jpg,00889960530fa_sunaletopenvvozhpxc.jpg,00804960530fa.jpg,sunagwswhkvnsmuszlz.jpg,00889960530fa.jpg,sunaletopenvvozhpxc.jpg,,,<,Face,,,,,1,,,,,,,o
353,0,Presentation,7,00197940128fa_sunaaylzyqlqrsmfwif.jpg,00235940128fb_sunabclssnoeuigtawp.jpg,00197940128fa.jpg,sunaaylzyqlqrsmfwif.jpg,00235940128fb.jpg,sunabclssnoeuigtawp.jpg,,,<,Face,,,,,1,,,,,,,o
354,0,Presentation,7,00554940519fa_sunacfdkbsrughwqwtt.jpg,00122931230fa_sunaakxjfbrrequcjmx.jpg,00554940519fa.jpg,sunacfdkbsrughwqwtt.jpg,00122931230fa.jpg,sunaakxjfbrrequcjmx.jpg,,,<,Face,,,,,1,,,,,,,x
355,0,Presentation,7,00791941205fa_sunagrmyoovzukhxmlo.jpg,00949960627fb_sunasnqkkyhilqkxiqm.jpg,00791941205fa.jpg,sunagrmyoovzukhxmlo.jpg,00949960627fb.jpg,sunasnqkkyhilqkxiqm.jpg,,,<,Face,,,,,1,,,,,,,o
356,0,Presentation,7,00630941031fa_sunadakkdovnuzlycvp.jpg,00838940307fa_sunaiozxhxgtfrmoagh.jpg,00630941031fa.jpg,sunadakkdovnuzlycvp.jpg,00838940307fa.jpg,sunaiozxhxgtfrmoagh.jpg,,,<,Face,,,,,1,,,,,,,x
357,0,Presentation,7,00124931230fa_sunaalhlvzmjmitybdn.jpg,00766960620fa_sunafijbgncijwykrnl.jpg,00124931230fa.jpg,sunaalhlvzmjmitybdn.jpg,00766960620fa.jpg,sunafijbgncijwykrnl.jpg,,,<,Face,,,,,1,,,,,,,o
358,0,Presentation,7,00065931230fb_sunaaemixhfquhnxxlm.jpg,00559940519fa_sunacjkmnpawfzbyvae.jpg,00065931230fb.jpg,sunaaemixhfquhnxxlm.jpg,00559940519fa.jpg,sunacjkmnpawfzbyvae.jpg,,,<,Face,,,,,1,,,,,,,x
359,0,Presentation,7,00163931230fb_sunaavodbcpygkggnfp.jpg,00977960627fa_sunbbxkanhzjgbwyxqs.jpg,00163931230fb.jpg,sunaavodbcpygkggnfp.jpg,00977960627fa.jpg,sunbbxkanhzjgbwyxqs.jpg,,,<,Face,,,,,1,,,,,,,o
360,0,Memory,7,,,,,,,00970960627fa.jpg,,,,,,,,,,,,,,,
361,0,Memory,7,,,,,,,sunabclssnoeuigtawp.jpg,,,,,,,,,,,,,,,
362,0,Memory,7,,,,,,,00776941205fa.jpg,,,,,,,,,,,,,,,
363,0,Memory,7,,,,,,,sunagutjvdvnhxejerz.jpg,,,,,,,,,,,,,,,
364,0,Memory,7,,,,,,,sunbbxkanhzjgbwyxqs.jpg,,,,,,,,,,,,,,,
365,0,Memory,7,,,,,,,00294940422fb.jpg,,,,,,,,,,,,,,,
366,0,Memory,7,,,,,,,00306940422fa.jpg,,,,,,,,,,,,,,,
367,0,Memory,7,,,,,,,00554940519fa.jpg,,,,,,,,,,,,,,,
368,0,Memory,7,,,,,,,sunaydywdmvlfddbxbk.jpg,,,,,,,,,,,,,,,
369,0,Memory,7,,,,,,,sunafxokyavhgptyfye.jpg,,,,,,,,,,,,,,,
370,0,Memory,7,,,,,,,00191940128fb.jpg,,,,,,,,,,,,,,,
371,0,Memory,7,,,,,,,sunbgzjryivyczuvkvm.jpg,,,,,,,,,,,,,,,
372,0,Memory,7,,,,,,,00986960627fa.jpg,,,,,,,,,,,,,,,
373,0,Memory,7,,,,,,,sunaletopenvvozhpxc.jpg,,,,,,,,,,,,,,,
374,0,Memory,7,,,,,,,00799941205fa.jpg,,,,,,,,,,,,,,,
375,0,Memory,7,,,,,,,sunasnqkkyhilqkxiqm.jpg,,,,,,,,,,,,,,,
376,0,Memory,7,,,,,,,00889960530fa.jpg,,,,,,,,,,,,,,,
377,0,Memory,7,,,,,,,00807941205fa.jpg,,,,,,,,,,,,,,,
378,0,Memory,7,,,,,,,00949960627fb.jpg,,,,,,,,,,,,,,,
379,0,Memory,7,,,,,,,00080931230fb.jpg,,,,,,,,,,,,,,,
380,0,Memory,7,,,,,,,00065931230fb.jpg,,,,,,,,,,,,,,,
381,0,Memory,7,,,,,,,sunabzjxlmkwnwzimua.jpg,,,,,,,,,,,,,,,
382,0,Memory,7,,,,,,,00124931230fa.jpg,,,,,,,,,,,,,,,
383,0,Memory,7,,,,,,,sunacdnquypmsshhsbk.jpg,,,,,,,,,,,,,,,
384,0,Memory,7,,,,,,,00498960627fa.jpg,,,,,,,,,,,,,,,
385,0,Memory,7,,,,,,,00235940128fb.jpg,,,,,,,,,,,,,,,
386,0,Memory,7,,,,,,,sunaafjszryxyavjzln.jpg,,,,,,,,,,,,,,,
387,0,Memory,7,,,,,,,sunacfdkbsrughwqwtt.jpg,,,,,,,,,,,,,,,
388,0,Memory,7,,,,,,,sunabrlndkruqokhury.jpg,,,,,,,,,,,,,,,
389,0,Memory,7,,,,,,,sunahawfngukizslzsd.jpg,,,,,,,,,,,,,,,
390,0,Memory,7,,,,,,,sunbasypfgzjtomktmu.jpg,,,,,,,,,,,,,,,
391,0,Memory,7,,,,,,,sunaalhlvzmjmitybdn.jpg,,,,,,,,,,,,,,,
392,0,Memory,7,,,,,,,00965960627fa.jpg,,,,,,,,,,,,,,,
393,0,Memory,7,,,,,,,sunaaemixhfquhnxxlm.jpg,,,,,,,,,,,,,,,
394,0,Memory,7,,,,,,,00977960627fa.jpg,,,,,,,,,,,,,,,
395,0,Memory,7,,,,,,,00197940128fa.jpg,,,,,,,,,,,,,,,
396,0,Memory,7,,,,,,,sunaaylzyqlqrsmfwif.jpg,,,,,,,,,,,,,,,
397,0,Memory,7,,,,,,,sunaawsdjisukbbginm.jpg,,,,,,,,,,,,,,,
398,0,Memory,7,,,,,,,00540940519fa.jpg,,,,,,,,,,,,,,,
399,0,Memory,7,,,,,,,sunabueyoajufbkraki.jpg,,,,,,,,,,,,,,,
