,Subject,Trial Type,Run,Cued Composite,Uncued Composite,Cued Face,Cued Place,Uncued Face,Uncued Place,Memory Image,Category,Cued Side,Cued Category,Attention Reaction Time (s),Familiarity Reaction Time (s),Familiarity Rating,Attention Level,Cue Validity,Post Invalid Cue,Pre Invalid Cue,Attention Button,Rating History,Stimulus Onset,Stimulus End,Attention Probe
0,12,Presentation,0,00871940307_sunajrujcsdxmfbssmc.jpg,00306940422fa_sunabueyoajufbkraki.jpg,00871940307.jpg,sunajrujcsdxmfbssmc.jpg,00306940422fa.jpg,sunabueyoajufbkraki.jpg,,,>,Place,,,,,0,,,,,,,o
1,12,Presentation,0,00908960530fa_sunanwjjyqqwzqrqagd.jpg,00543940519fa_sunacepzfrmtkiqonpy.jpg,00908960530fa.jpg,sunanwjjyqqwzqrqagd.jpg,00543940519fa.jpg,sunacepzfrmtkiqonpy.jpg,,,>,Place,,,,,1,,,,,,,o
2,12,Presentation,0,00744941201fa_sunaeomlfaabhpswasy.jpg,00663941121fa_sunadnjjzohjhbohlwq.jpg,00744941201fa.jpg,sunaeomlfaabhpswasy.jpg,00663941121fa.jpg,sunadnjjzohjhbohlwq.jpg,,,>,Place,,,,,0,,,,,,,o
3,12,Presentation,0,00581940928fa_sunacvzhvcksnwqcqbw.jpg,00727941205fa_sunaeisnjeetzmkbuad.jpg,00581940928fa.jpg,sunacvzhvcksnwqcqbw.jpg,00727941205fa.jpg,sunaeisnjeetzmkbuad.jpg,,,>,Place,,,,,1,,,,,,,o
4,12,Presentation,0,00313940422fa_sunabwjvmoaddlyxfjr.jpg,00101931230fb_sunaajqmsaavkmgbsth.jpg,00313940422fa.jpg,sunabwjvmoaddlyxfjr.jpg,00101931230fb.jpg,sunaajqmsaavkmgbsth.jpg,,,>,Place,,,,,1,,,,,,,o
5,12,Presentation,0,00950960627fa_sunasrjlmglmjzbmqxb.jpg,00743941201fa_sunaeoghzrjarigmwua.jpg,00950960627fa.jpg,sunasrjlmglmjzbmqxb.jpg,00743941201fa.jpg,sunaeoghzrjarigmwua.jpg,,,>,Place,,,,,1,,,,,,,x
6,12,Presentation,0,00276940422fa_sunabmytpyhsgigllxu.jpg,00483940519fa_sunabyvpwkgsjtijdwj.jpg,00276940422fa.jpg,sunabmytpyhsgigllxu.jpg,00483940519fa.jpg,sunabyvpwkgsjtijdwj.jpg,,,>,Place,,,,,1,,,,,,,x
7,12,Presentation,0,00062931230fb_sunaaelotvjgibjtjhs.jpg,00910960530fa_sunaofikylqtxphvdem.jpg,00062931230fb.jpg,sunaaelotvjgibjtjhs.jpg,00910960530fa.jpg,sunaofikylqtxphvdem.jpg,,,>,Place,,,,,1,,,,,,,x
8,12,Presentation,0,00793941205fa_sunagtjwilqjvxohypn.jpg,00753941201fa_sunafcofuuzebuadceo.jpg,00793941205fa.jpg,sunagtjwilqjvxohypn.jpg,00753941201fa.jpg,sunafcofuuzebuadceo.jpg,,,>,Place,,,,,1,,,,,,,o
9,12,Presentation,0,00211940128fa_sunabasphceswhwwqvv.jpg,00851940307fa_sunaivflshbyfrfzhqb.jpg,00211940128fa.jpg,sunabasphceswhwwqvv.jpg,00851940307fa.jpg,sunaivflshbyfrfzhqb.jpg,,,>,Place,,,,,1,,,,,,,o
10,12,Memory,0,,,,,,,sunabasphceswhwwqvv.jpg,,,,,,,,,,,,,,,
11,12,Memory,0,,,,,,,sunacepzfrmtkiqonpy.jpg,,,,,,,,,,,,,,,
12,12,Memory,0,,,,,,,sunahuynahneraqftyz.jpg,,,,,,,,,,,,,,,
13,12,Memory,0,,,,,,,00744941201fa.jpg,,,,,,,,,,,,,,,
14,12,Memory,0,,,,,,,sunaivflshbyfrfzhqb.jpg,,,,,,,,,,,,,,,
15,12,Memory,0,,,,,,,sunaajqmsaavkmgbsth.jpg,,,,,,,,,,,,,,,
16,12,Memory,0,,,,,,,00543940519fa.jpg,,,,,,,,,,,,,,,
17,12,Memory,0,,,,,,,00564941031fa.jpg,,,,,,,,,,,,,,,
18,12,Memory,0,,,,,,,01207940128fa.jpg,,,,,,,,,,,,,,,
19,12,Memory,0,,,,,,,sunahqrxievfeusiqlt.jpg,,,,,,,,,,,,,,,
20,12,Memory,0,,,,,,,sunacvzhvcksnwqcqbw.jpg,,,,,,,,,,,,,,,
21,12,Memory,0,,,,,,,00086931230fa.jpg,,,,,,,,,,,,,,,
22,12,Memory,0,,,,,,,sunaeomlfaabhpswasy.jpg,,,,,,,,,,,,,,,
23,12,Memory,0,,,,,,,00082931230fa.jpg,,,,,,,,,,,,,,,
24,12,Memory,0,,,,,,,00211940128fa.jpg,,,,,,,,,,,,,,,
25,12,Memory,0,,,,,,,00822940307fa.jpg,,,,,,,,,,,,,,,
26,12,Memory,0,,,,,,,sunaofikylqtxphvdem.jpg,,,,,,,,,,,,,,,
27,12,Memory,0,,,,,,,sunagtumacdlmciqamz.jpg,,,,,,,,,,,,,,,
28,12,Memory,0,,,,,,,00795941205fa.jpg,,,,,,,,,,,,,,,
29,12,Memory,0,,,,,,,sunayaepykrqvenaqqy.jpg,,,,,,,,,,,,,,,
30,12,Memory,0,,,,,,,00630940928fa.jpg,,,,,,,,,,,,,,,
31,12,Memory,0,,,,,,,00963960627fa.jpg,,,,,,,,,,,,,,,
32,12,Memory,0,,,,,,,sunanwjjyqqwzqrqagd.jpg,,,,,,,,,,,,,,,
33,12,Memory,0,,,,,,,00910960530fa.jpg,,,,,,,,,,,,,,,
34,12,Memory,0,,,,,,,sunacsaovnjezqwbykf.jpg,,,,,,,,,,,,,,,
35,12,Memory,0,,,,,,,00743941201fa.jpg,,,,,,,,,,,,,,,
36,12,Memory,0,,,,,,,00235940128fb.jpg,,,,,,,,,,,,,,,
37,12,Memory,0,,,,,,,00828940307fa.jpg,,,,,,,,,,,,,,,
38,12,Memory,0,,,,,,,sunaafynehyrzpsoaml.jpg,,,,,,,,,,,,,,,
39,12,Memory,0,,,,,,,00062931230fb.jpg,,,,,,,,,,,,,,,
40,12,Memory,0,,,,,,,00908960530fa.jpg,,,,,,,,,,,,,,,
41,12,Memory,0,,,,,,,00851940307fa.jpg,,,,,,,,,,,,,,,
42,12,Memory,0,,,,,,,sunaaelotvjgibjtjhs.jpg,,,,,,,,,,,,,,,
43,12,Memory,0,,,,,,,sunaafvitpexrpvumsa.jpg,,,,,,,,,,,,,,,
44,12,Memory,0,,,,,,,sunaeoghzrjarigmwua.jpg,,,,,,,,,,,,,,,
45,12,Memory,0,,,,,,,sunabclssnoeuigtawp.jpg,,,,,,,,,,,,,,,
46,12,Memory,0,,,,,,,00581940928fa.jpg,,,,,,,,,,,,,,,
47,12,Memory,0,,,,,,,00101931230fb.jpg,,,,,,,,,,,,,,,
48,12,Memory,0,,,,,,,sundbixjudsgeuuehrn.jpg,,,,,,,,,,,,,,,
49,12,Memory,0,,,,,,,sunaczwgyukesaajxnx.jpg,,,,,,,,,,,,,,,
50,12,Presentation,1,00292940422fb_sunabrjdpmoedcdjbpo.jpg,00620940928fa_sunacypmnujalygkunp.jpg,00292940422fb.jpg,sunabrjdpmoedcdjbpo.jpg,00620940928fa.jpg,sunacypmnujalygkunp.jpg,,,<,Face,,,,,1,,,,,,,x
51,12,Presentation,1,01003960627fb_sunbwdrdvsweerwsdrj.jpg,00938960627fa_sunaqyylsngywqzwfmx.jpg,01003960627fb.jpg,sunbwdrdvsweerwsdrj.jpg,00938960627fa.jpg,sunaqyylsngywqzwfmx.jpg,,,<,Face,,,,,1,,,,,,,o
52,12,Presentation,1,01002960627fb_sunbwaafjdebjzttuvq.jpg,00098931230fa_sunaajpqmulidejvjsr.jpg,01002960627fb.jpg,sunbwaafjdebjzttuvq.jpg,00098931230fa.jpg,sunaajpqmulidejvjsr.jpg,,,<,Face,,,,,1,,,,,,,x
53,12,Presentation,1,00895960530fa_sunamczizlzavhzhpay.jpg,01000960627fa_sunbvzmgrdvaakxusbu.jpg,00895960530fa.jpg,sunamczizlzavhzhpay.jpg,01000960627fa.jpg,sunbvzmgrdvaakxusbu.jpg,,,<,Face,,,,,0,,,,,,,o
54,12,Presentation,1,00936960627fa_sunaqgjuuwvdcyiccjt.jpg,00807941205fa_sunahawfngukizslzsd.jpg,00936960627fa.jpg,sunaqgjuuwvdcyiccjt.jpg,00807941205fa.jpg,sunahawfngukizslzsd.jpg,,,<,Face,,,,,1,,,,,,,x
55,12,Presentation,1,00791941205fa_sunagrmyoovzukhxmlo.jpg,00933960627fa_sunapwjkcxdaeqehfql.jpg,00791941205fa.jpg,sunagrmyoovzukhxmlo.jpg,00933960627fa.jpg,sunapwjkcxdaeqehfql.jpg,,,<,Face,,,,,1,,,,,,,x
56,12,Presentation,1,00073931230fa_sunaafbmtoniaasysgu.jpg,00971960627fa_sunbbegcweqnetpdlrh.jpg,00073931230fa.jpg,sunaafbmtoniaasysgu.jpg,00971960627fa.jpg,sunbbegcweqnetpdlrh.jpg,,,<,Face,,,,,1,,,,,,,o
57,12,Presentation,1,00742941201fa_sunaenwuebvlpdmntju.jpg,00076931230fa_sunaafewhewbxmjiurz.jpg,00742941201fa.jpg,sunaenwuebvlpdmntju.jpg,00076931230fa.jpg,sunaafewhewbxmjiurz.jpg,,,<,Face,,,,,1,,,,,,,o
58,12,Presentation,1,00901960530fa_sunammbnoambmhdxdwd.jpg,00598941031fa_sunacxtcahkymosigud.jpg,00901960530fa.jpg,sunammbnoambmhdxdwd.jpg,00598941031fa.jpg,sunacxtcahkymosigud.jpg,,,<,Face,,,,,0,,,,,,,x
59,12,Presentation,1,00816941205fa_sunahmhrncocyhsjpxk.jpg,00102931230fa_sunaajspcoepticvplv.jpg,00816941205fa.jpg,sunahmhrncocyhsjpxk.jpg,00102931230fa.jpg,sunaajspcoepticvplv.jpg,,,<,Face,,,,,1,,,,,,,x
60,12,Memory,1,,,,,,,00971960627fa.jpg,,,,,,,,,,,,,,,
61,12,Memory,1,,,,,,,00868960307fa.jpg,,,,,,,,,,,,,,,
62,12,Memory,1,,,,,,,sunapwjkcxdaeqehfql.jpg,,,,,,,,,,,,,,,
63,12,Memory,1,,,,,,,00807941205fa.jpg,,,,,,,,,,,,,,,
64,12,Memory,1,,,,,,,00102931230fa.jpg,,,,,,,,,,,,,,,
65,12,Memory,1,,,,,,,00819940307fa.jpg,,,,,,,,,,,,,,,
66,12,Memory,1,,,,,,,sunacvjlsylseoghjup.jpg,,,,,,,,,,,,,,,
67,12,Memory,1,,,,,,,00505960627fa.jpg,,,,,,,,,,,,,,,
68,12,Memory,1,,,,,,,sunaqsolmfydodnakub.jpg,,,,,,,,,,,,,,,
69,12,Memory,1,,,,,,,sunbvzmgrdvaakxusbu.jpg,,,,,,,,,,,,,,,
70,12,Memory,1,,,,,,,sunahawfngukizslzsd.jpg,,,,,,,,,,,,,,,
71,12,Memory,1,,,,,,,01003960627fb.jpg,,,,,,,,,,,,,,,
72,12,Memory,1,,,,,,,00936960627fa.jpg,,,,,,,,,,,,,,,
73,12,Memory,1,,,,,,,00933960627fa.jpg,,,,,,,,,,,,,,,
74,12,Memory,1,,,,,,,sunamczizlzavhzhpay.jpg,,,,,,,,,,,,,,,
75,12,Memory,1,,,,,,,sunahqldjibofgsfdgb.jpg,,,,,,,,,,,,,,,
76,12,Memory,1,,,,,,,sunadoxcchtmsxewsau.jpg,,,,,,,,,,,,,,,
77,12,Memory,1,,,,,,,00942960627fa.jpg,,,,,,,,,,,,,,,
78,12,Memory,1,,,,,,,sunbbegcweqnetpdlrh.jpg,,,,,,,,,,,,,,,
79,12,Memory,1,,,,,,,00901960530fa.jpg,,,,,,,,,,,,,,,
80,12,Memory,1,,,,,,,00576941031fa.jpg,,,,,,,,,,,,,,,
81,12,Memory,1,,,,,,,sunagjzcrjvmxzqzljx.jpg,,,,,,,,,,,,,,,
82,12,Memory,1,,,,,,,00675941121fa.jpg,,,,,,,,,,,,,,,
83,12,Memory,1,,,,,,,00937960627fa.jpg,,,,,,,,,,,,,,,
84,12,Memory,1,,,,,,,00969960627fa.jpg,,,,,,,,,,,,,,,
85,12,Memory,1,,,,,,,sunammbnoambmhdxdwd.jpg,,,,,,,,,,,,,,,
86,12,Memory,1,,,,,,,sunaqgjuuwvdcyiccjt.jpg,,,,,,,,,,,,,,,
87,12,Memory,1,,,,,,,sunbaoizrfijvhpnnjn.jpg,,,,,,,,,,,,,,,
88,12,Memory,1,,,,,,,sunajjxttslobudoqbv.jpg,,,,,,,,,,,,,,,
89,12,Memory,1,,,,,,,sunagrmyoovzukhxmlo.jpg,,,,,,,,,,,,,,,
90,12,Memory,1,,,,,,,00080931230fb.jpg,,,,,,,,,,,,,,,
91,12,Memory,1,,,,,,,sunaafjszryxyavjzln.jpg,,,,,,,,,,,,,,,
92,12,Memory,1,,,,,,,01000960627fa.jpg,,,,,,,,,,,,,,,
93,12,Memory,1,,,,,,,sunabzuqsrgcsonqlkz.jpg,,,,,,,,,,,,,,,
94,12,Memory,1,,,,,,,00895960530fa.jpg,,,,,,,,,,,,,,,
95,12,Memory,1,,,,,,,sunaajspcoepticvplv.jpg,,,,,,,,,,,,,,,
96,12,Memory,1,,,,,,,00791941205fa.jpg,,,,,,,,,,,,,,,
97,12,Memory,1,,,,,,,sunbwdrdvsweerwsdrj.jpg,,,,,,,,,,,,,,,
98,12,Memory,1,,,,,,,sunarfdklgdnjgeqfjg.jpg,,,,,,,,,,,,,,,
99,12,Memory,1,,,,,,,00784941205fb.jpg,,,,,,,,,,,,,,,
100,12,Presentation,2,00266940128fb_sunabkngeblodihjvbk.jpg,00574940928fa_sunacvbrcejzwmcgnoq.jpg,00266940128fb.jpg,sunabkngeblodihjvbk.jpg,00574940928fa.jpg,sunacvbrcejzwmcgnoq.jpg,,,<,Place,,,,,1,,,,,,,o
101,12,Presentation,2,00705941205fa_sunadtlxenqqxsyjvix.jpg,00133931230fa_sunaanlwnpqndclffxt.jpg,00705941205fa.jpg,sunadtlxenqqxsyjvix.jpg,00133931230fa.jpg,sunaanlwnpqndclffxt.jpg,,,<,Place,,,,,1,,,,,,,x
102,12,Presentation,2,00719960620fa_sunadzuvtmtmgupotmf.jpg,00728941205fa_sunaejnvnpltdmhbcsi.jpg,00719960620fa.jpg,sunadzuvtmtmgupotmf.jpg,00728941205fa.jpg,sunaejnvnpltdmhbcsi.jpg,,,<,Place,,,,,1,,,,,,,o
103,12,Presentation,2,00869940307fa_sunajoveqhiprwqgoco.jpg,00785941205fa_sunaglqunwuycxydmyu.jpg,00869940307fa.jpg,sunajoveqhiprwqgoco.jpg,00785941205fa.jpg,sunaglqunwuycxydmyu.jpg,,,<,Place,,,,,0,,,,,,,x
104,12,Presentation,2,00955960627fb_sunauburywlkjszngcq.jpg,00825940307fa_sunahrltmuwbiehihpe.jpg,00955960627fb.jpg,sunauburywlkjszngcq.jpg,00825940307fa.jpg,sunahrltmuwbiehihpe.jpg,,,<,Place,,,,,1,,,,,,,x
105,12,Presentation,2,00887960530_sunalcrtwiycqobgelp.jpg,00768941205fa_sunafkmnlytenlsywia.jpg,00887960530.jpg,sunalcrtwiycqobgelp.jpg,00768941205fa.jpg,sunafkmnlytenlsywia.jpg,,,<,Place,,,,,1,,,,,,,x
106,12,Presentation,2,00670941121fa_sunadochqcucscehsgk.jpg,00070940307fa_sunaaeplwsfslcbtojr.jpg,00670941121fa.jpg,sunadochqcucscehsgk.jpg,00070940307fa.jpg,sunaaeplwsfslcbtojr.jpg,,,<,Place,,,,,1,,,,,,,o
107,12,Presentation,2,00634940928fa_sunadcphrizvfpljiqt.jpg,00197940128fa_sunaaylzyqlqrsmfwif.jpg,00634940928fa.jpg,sunadcphrizvfpljiqt.jpg,00197940128fa.jpg,sunaaylzyqlqrsmfwif.jpg,,,<,Place,,,,,1,,,,,,,x
108,12,Presentation,2,00787960620fa_sunagoufulkpsxrmklt.jpg,00529940519fa_sunacbeefkxpymwevpk.jpg,00787960620fa.jpg,sunagoufulkpsxrmklt.jpg,00529940519fa.jpg,sunacbeefkxpymwevpk.jpg,,,<,Place,,,,,1,,,,,,,o
109,12,Presentation,2,00939960627fa_sunarceibpcyacbmfga.jpg,00800941205fb_sunagvjurcwdbixvnyi.jpg,00939960627fa.jpg,sunarceibpcyacbmfga.jpg,00800941205fb.jpg,sunagvjurcwdbixvnyi.jpg,,,<,Place,,,,,1,,,,,,,x
110,12,Memory,2,,,,,,,sunaaeplwsfslcbtojr.jpg,,,,,,,,,,,,,,,
111,12,Memory,2,,,,,,,sunaaylzyqlqrsmfwif.jpg,,,,,,,,,,,,,,,
112,12,Memory,2,,,,,,,sunauburywlkjszngcq.jpg,,,,,,,,,,,,,,,
113,12,Memory,2,,,,,,,00662941121fa.jpg,,,,,,,,,,,,,,,
114,12,Memory,2,,,,,,,sunabrwnslxalcohfre.jpg,,,,,,,,,,,,,,,
115,12,Memory,2,,,,,,,sunalcrtwiycqobgelp.jpg,,,,,,,,,,,,,,,
116,12,Memory,2,,,,,,,sunadkazmlajmohnwfl.jpg,,,,,,,,,,,,,,,
117,12,Memory,2,,,,,,,sunahrltmuwbiehihpe.jpg,,,,,,,,,,,,,,,
118,12,Memory,2,,,,,,,00869940307fa.jpg,,,,,,,,,,,,,,,
119,12,Memory,2,,,,,,,sundahdxwmcdluscvot.jpg,,,,,,,,,,,,,,,
120,12,Memory,2,,,,,,,00197940128fa.jpg,,,,,,,,,,,,,,,
121,12,Memory,2,,,,,,,00296940422fa.jpg,,,,,,,,,,,,,,,
122,12,Memory,2,,,,,,,00694941121fa.jpg,,,,,,,,,,,,,,,
123,12,Memory,2,,,,,,,00825940307fa.jpg,,,,,,,,,,,,,,,
124,12,Memory,2,,,,,,,00719960620fa.jpg,,,,,,,,,,,,,,,
125,12,Memory,2,,,,,,,00955960627fb.jpg,,,,,,,,,,,,,,,
126,12,Memory,2,,,,,,,00947960627fa.jpg,,,,,,,,,,,,,,,
127,12,Memory,2,,,,,,,sunadzuvtmtmgupotmf.jpg,,,,,,,,,,,,,,,
128,12,Memory,2,,,,,,,sunaipyohrqlwngaqif.jpg,,,,,,,,,,,,,,,
129,12,Memory,2,,,,,,,sunajoveqhiprwqgoco.jpg,,,,,,,,,,,,,,,
130,12,Memory,2,,,,,,,00142931230fb.jpg,,,,,,,,,,,,,,,
131,12,Memory,2,,,,,,,00162931230fb.jpg,,,,,,,,,,,,,,,
132,12,Memory,2,,,,,,,00839940307fa.jpg,,,,,,,,,,,,,,,
133,12,Memory,2,,,,,,,00266940128fb.jpg,,,,,,,,,,,,,,,
134,12,Memory,2,,,,,,,sunaavchcbptaerhcfy.jpg,,,,,,,,,,,,,,,
135,12,Memory,2,,,,,,,sunabkngeblodihjvbk.jpg,,,,,,,,,,,,,,,
136,12,Memory,2,,,,,,,00774941201fa.jpg,,,,,,,,,,,,,,,
137,12,Memory,2,,,,,,,sunafvtpfczkzopbgue.jpg,,,,,,,,,,,,,,,
138,12,Memory,2,,,,,,,sunasmmcxdddtmtazwx.jpg,,,,,,,,,,,,,,,
139,12,Memory,2,,,,,,,sunaavjinpnkappuonm.jpg,,,,,,,,,,,,,,,
140,12,Memory,2,,,,,,,sunaapxkpvrhpjplsok.jpg,,,,,,,,,,,,,,,
141,12,Memory,2,,,,,,,01011960627fa.jpg,,,,,,,,,,,,,,,
142,12,Memory,2,,,,,,,00887960530.jpg,,,,,,,,,,,,,,,
143,12,Memory,2,,,,,,,00070940307fa.jpg,,,,,,,,,,,,,,,
144,12,Memory,2,,,,,,,sunaanlwnpqndclffxt.jpg,,,,,,,,,,,,,,,
145,12,Memory,2,,,,,,,00768941205fa.jpg,,,,,,,,,,,,,,,
146,12,Memory,2,,,,,,,sunafkmnlytenlsywia.jpg,,,,,,,,,,,,,,,
147,12,Memory,2,,,,,,,00158931230fb.jpg,,,,,,,,,,,,,,,
148,12,Memory,2,,,,,,,00133931230fa.jpg,,,,,,,,,,,,,,,
149,12,Memory,2,,,,,,,sunadrmfzmstgdjdcod.jpg,,,,,,,,,,,,,,,
150,12,Presentation,3,00193940928fa_sunaaxjpzcnxligjtjq.jpg,00952960627fa_sunathzzbcwjykldrem.jpg,00193940928fa.jpg,sunaaxjpzcnxligjtjq.jpg,00952960627fa.jpg,sunathzzbcwjykldrem.jpg,,,<,Place,,,,,1,,,,,,,o
151,12,Presentation,3,00892960530fa_sunalntxqqadigcletd.jpg,00719941201fa_sunadvithllcgmfxsrn.jpg,00892960530fa.jpg,sunalntxqqadigcletd.jpg,00719941201fa.jpg,sunadvithllcgmfxsrn.jpg,,,<,Place,,,,,1,,,,,,,o
152,12,Presentation,3,00958960627fa_sunavspxmxubqaeidjt.jpg,00264940128fb_sunabjzyxcjnmztdonj.jpg,00958960627fa.jpg,sunavspxmxubqaeidjt.jpg,00264940128fb.jpg,sunabjzyxcjnmztdonj.jpg,,,<,Place,,,,,1,,,,,,,o
153,12,Presentation,3,00805941205fa_sunagwzdbtlixdhgolm.jpg,00308940422fb_sunabwfvcqqidycwypa.jpg,00805941205fa.jpg,sunagwzdbtlixdhgolm.jpg,00308940422fb.jpg,sunabwfvcqqidycwypa.jpg,,,<,Place,,,,,1,,,,,,,o
154,12,Presentation,3,00700941121fa_sunadsgmtznewzyasnk.jpg,00092931230fa_sunaaheqzstzxuadglu.jpg,00700941121fa.jpg,sunadsgmtznewzyasnk.jpg,00092931230fa.jpg,sunaaheqzstzxuadglu.jpg,,,<,Place,,,,,1,,,,,,,x
155,12,Presentation,3,00749941201fa_sunaeuvjbmdpknaqqaj.jpg,00227940128fa_sunabckqabszusgcykj.jpg,00749941201fa.jpg,sunaeuvjbmdpknaqqaj.jpg,00227940128fa.jpg,sunabckqabszusgcykj.jpg,,,<,Place,,,,,1,,,,,,,o
156,12,Presentation,3,00906960530fa_sunantryfbloeaomfta.jpg,00163931230fb_sunaavodbcpygkggnfp.jpg,00906960530fa.jpg,sunantryfbloeaomfta.jpg,00163931230fb.jpg,sunaavodbcpygkggnfp.jpg,,,<,Place,,,,,1,,,,,,,x
157,12,Presentation,3,00630941031fa_sunadakkdovnuzlycvp.jpg,00750941201fa_sunaeuzwggvibufclwf.jpg,00630941031fa.jpg,sunadakkdovnuzlycvp.jpg,00750941201fa.jpg,sunaeuzwggvibufclwf.jpg,,,<,Place,,,,,1,,,,,,,x
158,12,Presentation,3,00208940128fa_sunaazzyhbvqjpmazjq.jpg,00147931230fb_sunaatpkocdkocwxpkb.jpg,00208940128fa.jpg,sunaazzyhbvqjpmazjq.jpg,00147931230fb.jpg,sunaatpkocdkocwxpkb.jpg,,,<,Place,,,,,1,,,,,,,o
159,12,Presentation,3,00984960627fa_sunbfzchmomnvzhbxdg.jpg,00109931230fa_sunaajuzribjrizdshh.jpg,00984960627fa.jpg,sunbfzchmomnvzhbxdg.jpg,00109931230fa.jpg,sunaajuzribjrizdshh.jpg,,,<,Place,,,,,1,,,,,,,x
160,12,Memory,3,,,,,,,00308940422fb.jpg,,,,,,,,,,,,,,,
161,12,Memory,3,,,,,,,00227940128fa.jpg,,,,,,,,,,,,,,,
162,12,Memory,3,,,,,,,sunaaemixhfquhnxxlm.jpg,,,,,,,,,,,,,,,
163,12,Memory,3,,,,,,,00967960627fa.jpg,,,,,,,,,,,,,,,
164,12,Memory,3,,,,,,,sunathzzbcwjykldrem.jpg,,,,,,,,,,,,,,,
165,12,Memory,3,,,,,,,00193940928fa.jpg,,,,,,,,,,,,,,,
166,12,Memory,3,,,,,,,00770941201fa.jpg,,,,,,,,,,,,,,,
167,12,Memory,3,,,,,,,00952960627fa.jpg,,,,,,,,,,,,,,,
168,12,Memory,3,,,,,,,sunabckqabszusgcykj.jpg,,,,,,,,,,,,,,,
169,12,Memory,3,,,,,,,sunaazzyhbvqjpmazjq.jpg,,,,,,,,,,,,,,,
170,12,Memory,3,,,,,,,00163931230fb.jpg,,,,,,,,,,,,,,,
171,12,Memory,3,,,,,,,00880960530fa.jpg,,,,,,,,,,,,,,,
172,12,Memory,3,,,,,,,00858940307fa.jpg,,,,,,,,,,,,,,,
173,12,Memory,3,,,,,,,sunafijbgncijwykrnl.jpg,,,,,,,,,,,,,,,
174,12,Memory,3,,,,,,,sunabjzyxcjnmztdonj.jpg,,,,,,,,,,,,,,,
175,12,Memory,3,,,,,,,00208940128fa.jpg,,,,,,,,,,,,,,,
176,12,Memory,3,,,,,,,sunabwfvcqqidycwypa.jpg,,,,,,,,,,,,,,,
177,12,Memory,3,,,,,,,00805941205fa.jpg,,,,,,,,,,,,,,,
178,12,Memory,3,,,,,,,sunantryfbloeaomfta.jpg,,,,,,,,,,,,,,,
179,12,Memory,3,,,,,,,01005960627fa.jpg,,,,,,,,,,,,,,,
180,12,Memory,3,,,,,,,sunaavodbcpygkggnfp.jpg,,,,,,,,,,,,,,,
181,12,Memory,3,,,,,,,sunbaejotfklekvpxcz.jpg,,,,,,,,,,,,,,,
182,12,Memory,3,,,,,,,00264940128fb.jpg,,,,,,,,,,,,,,,
183,12,Memory,3,,,,,,,sunagpancjmxqfazssf.jpg,,,,,,,,,,,,,,,
184,12,Memory,3,,,,,,,sunaflojskatpeqyzqp.jpg,,,,,,,,,,,,,,,
185,12,Memory,3,,,,,,,00065931230fb.jpg,,,,,,,,,,,,,,,
186,12,Memory,3,,,,,,,sunakmnfgklupjijsgf.jpg,,,,,,,,,,,,,,,
187,12,Memory,3,,,,,,,sunbwyuesflwdpqtgoy.jpg,,,,,,,,,,,,,,,
188,12,Memory,3,,,,,,,00766960620fa.jpg,,,,,,,,,,,,,,,
189,12,Memory,3,,,,,,,sunavspxmxubqaeidjt.jpg,,,,,,,,,,,,,,,
190,12,Memory,3,,,,,,,00906960530fa.jpg,,,,,,,,,,,,,,,
191,12,Memory,3,,,,,,,sunaixpqndlwhwjtjek.jpg,,,,,,,,,,,,,,,
192,12,Memory,3,,,,,,,sunagwzdbtlixdhgolm.jpg,,,,,,,,,,,,,,,
193,12,Memory,3,,,,,,,00866940307fa.jpg,,,,,,,,,,,,,,,
194,12,Memory,3,,,,,,,sunaaxjpzcnxligjtjq.jpg,,,,,,,,,,,,,,,
195,12,Memory,3,,,,,,,00559940519fa.jpg,,,,,,,,,,,,,,,
196,12,Memory,3,,,,,,,00958960627fa.jpg,,,,,,,,,,,,,,,
197,12,Memory,3,,,,,,,sunacjkmnpawfzbyvae.jpg,,,,,,,,,,,,,,,
198,12,Memory,3,,,,,,,00789960620fa.jpg,,,,,,,,,,,,,,,
199,12,Memory,3,,,,,,,sunajbwkywmsqkldfml.jpg,,,,,,,,,,,,,,,
200,12,Presentation,4,00532960627fa_sunaccdtpgenvcbcbcf.jpg,00132931230fb_sunaanjcbzdvtvblsdy.jpg,00532960627fa.jpg,sunaccdtpgenvcbcbcf.jpg,00132931230fb.jpg,sunaanjcbzdvtvblsdy.jpg,,,>,Face,,,,,1,,,,,,,x
201,12,Presentation,4,00149931230fa_sunaauglwmctnkxyird.jpg,00498960627fa_sunabzjxlmkwnwzimua.jpg,00149931230fa.jpg,sunaauglwmctnkxyird.jpg,00498960627fa.jpg,sunabzjxlmkwnwzimua.jpg,,,>,Face,,,,,0,,,,,,,o
202,12,Presentation,4,00138931230fa_sunaapfaivxqoynnwwp.jpg,00772941201fa_sunafpfpiiujzoesnqg.jpg,00138931230fa.jpg,sunaapfaivxqoynnwwp.jpg,00772941201fa.jpg,sunafpfpiiujzoesnqg.jpg,,,>,Face,,,,,1,,,,,,,o
203,12,Presentation,4,00894960620fa_sunalqmfgeadpqsyzpd.jpg,00809960620fa_sunahbvlpavurqoxdeq.jpg,00894960620fa.jpg,sunalqmfgeadpqsyzpd.jpg,00809960620fa.jpg,sunahbvlpavurqoxdeq.jpg,,,>,Face,,,,,1,,,,,,,x
204,12,Presentation,4,00214940128fa_sunabbafjowbzcvbucc.jpg,00811960530fa_sunahedfrhtcwpneund.jpg,00214940128fa.jpg,sunabbafjowbzcvbucc.jpg,00811960530fa.jpg,sunahedfrhtcwpneund.jpg,,,>,Face,,,,,1,,,,,,,x
205,12,Presentation,4,00126931230fb_sunaamdjwemxpmmtypi.jpg,00922960627fa_sunapqkyghktgtosuuk.jpg,00126931230fb.jpg,sunaamdjwemxpmmtypi.jpg,00922960627fa.jpg,sunapqkyghktgtosuuk.jpg,,,>,Face,,,,,1,,,,,,,x
206,12,Presentation,4,00747941201fa_sunaeutbrtswvsozxyk.jpg,00723941201fa_sunaedtgwjvvziytspa.jpg,00747941201fa.jpg,sunaeutbrtswvsozxyk.jpg,00723941201fa.jpg,sunaedtgwjvvziytspa.jpg,,,>,Face,,,,,1,,,,,,,o
207,12,Presentation,4,00792941205fa_sunagsiwrmuixqgdimb.jpg,00919960620fa_sunapmfmzadmosuogaz.jpg,00792941205fa.jpg,sunagsiwrmuixqgdimb.jpg,00919960620fa.jpg,sunapmfmzadmosuogaz.jpg,,,>,Face,,,,,1,,,,,,,x
208,12,Presentation,4,00859940307fa_sunaiycurtqsfkvcaso.jpg,00305940422fa_sunabtrnbvpppgczjim.jpg,00859940307fa.jpg,sunaiycurtqsfkvcaso.jpg,00305940422fa.jpg,sunabtrnbvpppgczjim.jpg,,,>,Face,,,,,1,,,,,,,x
209,12,Presentation,4,00540940519fa_sunacdnquypmsshhsbk.jpg,00778941205fa_sunagcthdfirrcawoic.jpg,00540940519fa.jpg,sunacdnquypmsshhsbk.jpg,00778941205fa.jpg,sunagcthdfirrcawoic.jpg,,,>,Face,,,,,1,,,,,,,o
210,12,Memory,4,,,,,,,sunaamdjwemxpmmtypi.jpg,,,,,,,,,,,,,,,
211,12,Memory,4,,,,,,,sunaanptmsknhirrzed.jpg,,,,,,,,,,,,,,,
212,12,Memory,4,,,,,,,sunaiwfobocrruqznsv.jpg,,,,,,,,,,,,,,,
213,12,Memory,4,,,,,,,00894960620fa.jpg,,,,,,,,,,,,,,,
214,12,Memory,4,,,,,,,sunaagcpoejbuzyvddd.jpg,,,,,,,,,,,,,,,
215,12,Memory,4,,,,,,,00598940928fa.jpg,,,,,,,,,,,,,,,
216,12,Memory,4,,,,,,,00982960627fa.jpg,,,,,,,,,,,,,,,
217,12,Memory,4,,,,,,,00772941201fa.jpg,,,,,,,,,,,,,,,
218,12,Memory,4,,,,,,,sunabzjxlmkwnwzimua.jpg,,,,,,,,,,,,,,,
219,12,Memory,4,,,,,,,sunacdnquypmsshhsbk.jpg,,,,,,,,,,,,,,,
220,12,Memory,4,,,,,,,00857940307fa.jpg,,,,,,,,,,,,,,,
221,12,Memory,4,,,,,,,00149931230fa.jpg,,,,,,,,,,,,,,,
222,12,Memory,4,,,,,,,00725941201fa.jpg,,,,,,,,,,,,,,,
223,12,Memory,4,,,,,,,sunaisiwfgppimtnmxl.jpg,,,,,,,,,,,,,,,
224,12,Memory,4,,,,,,,00126931230fb.jpg,,,,,,,,,,,,,,,
225,12,Memory,4,,,,,,,sunaduslxfzlbxlllnz.jpg,,,,,,,,,,,,,,,
226,12,Memory,4,,,,,,,00919960620fa.jpg,,,,,,,,,,,,,,,
227,12,Memory,4,,,,,,,00540940519fa.jpg,,,,,,,,,,,,,,,
228,12,Memory,4,,,,,,,00077931230fb.jpg,,,,,,,,,,,,,,,
229,12,Memory,4,,,,,,,00922960627fa.jpg,,,,,,,,,,,,,,,
230,12,Memory,4,,,,,,,sunbesrwkdsffeogeqq.jpg,,,,,,,,,,,,,,,
231,12,Memory,4,,,,,,,sunapqkyghktgtosuuk.jpg,,,,,,,,,,,,,,,
232,12,Memory,4,,,,,,,00089931230fa.jpg,,,,,,,,,,,,,,,
233,12,Memory,4,,,,,,,sunaefgzwiramypjvtd.jpg,,,,,,,,,,,,,,,
234,12,Memory,4,,,,,,,sunafpfpiiujzoesnqg.jpg,,,,,,,,,,,,,,,
235,12,Memory,4,,,,,,,00705960530fa.jpg,,,,,,,,,,,,,,,
236,12,Memory,4,,,,,,,sunaauglwmctnkxyird.jpg,,,,,,,,,,,,,,,
237,12,Memory,4,,,,,,,00136931230fb.jpg,,,,,,,,,,,,,,,
238,12,Memory,4,,,,,,,sunavhxgmgrqsaptynb.jpg,,,,,,,,,,,,,,,
239,12,Memory,4,,,,,,,sunapmfmzadmosuogaz.jpg,,,,,,,,,,,,,,,
240,12,Memory,4,,,,,,,sunalqmfgeadpqsyzpd.jpg,,,,,,,,,,,,,,,
241,12,Memory,4,,,,,,,sunacxeheuiigkcgquf.jpg,,,,,,,,,,,,,,,
242,12,Memory,4,,,,,,,00498960627fa.jpg,,,,,,,,,,,,,,,
243,12,Memory,4,,,,,,,sunahbvlpavurqoxdeq.jpg,,,,,,,,,,,,,,,
244,12,Memory,4,,,,,,,sunaafgqutfaishsxyu.jpg,,,,,,,,,,,,,,,
245,12,Memory,4,,,,,,,00841940307fa.jpg,,,,,,,,,,,,,,,
246,12,Memory,4,,,,,,,sunagsiwrmuixqgdimb.jpg,,,,,,,,,,,,,,,
247,12,Memory,4,,,,,,,00792941205fa.jpg,,,,,,,,,,,,,,,
248,12,Memory,4,,,,,,,00957960627fa.jpg,,,,,,,,,,,,,,,
249,12,Memory,4,,,,,,,00809960620fa.jpg,,,,,,,,,,,,,,,
250,12,Presentation,5,00761960627fa_sunafgdqbclkwfocdhg.jpg,00925960627fa_sunapqwnqzxlsfvgsjm.jpg,00761960627fa.jpg,sunafgdqbclkwfocdhg.jpg,00925960627fa.jpg,sunapqwnqzxlsfvgsjm.jpg,,,>,Place,,,,,1,,,,,,,x
251,12,Presentation,5,00972960627fa_sunbbfqwjpdxniyhies.jpg,00125931230fa_sunaalltyvjhbzhkmvg.jpg,00972960627fa.jpg,sunbbfqwjpdxniyhies.jpg,00125931230fa.jpg,sunaalltyvjhbzhkmvg.jpg,,,>,Place,,,,,1,,,,,,,x
252,12,Presentation,5,00129931230fb_sunaamsdyakblkfoydx.jpg,00745941205fa_sunaeouogqolxvggaoq.jpg,00129931230fb.jpg,sunaamsdyakblkfoydx.jpg,00745941205fa.jpg,sunaeouogqolxvggaoq.jpg,,,>,Place,,,,,1,,,,,,,x
253,12,Presentation,5,00071941031fa_sunaaexqbtdswxrqjvz.jpg,00993960627fa_sunbprywzqxjcezkbch.jpg,00071941031fa.jpg,sunaaexqbtdswxrqjvz.jpg,00993960627fa.jpg,sunbprywzqxjcezkbch.jpg,,,>,Place,,,,,1,,,,,,,o
254,12,Presentation,5,00977960627fa_sunbbxkanhzjgbwyxqs.jpg,00562941031fa_sunacjnahdmqfnjfwqx.jpg,00977960627fa.jpg,sunbbxkanhzjgbwyxqs.jpg,00562941031fa.jpg,sunacjnahdmqfnjfwqx.jpg,,,>,Place,,,,,1,,,,,,,o
255,12,Presentation,5,01004960627fa_sunbwtlihsuptkrckid.jpg,00681941121fa_sunadqmjrhfjyuzyvdd.jpg,01004960627fa.jpg,sunbwtlihsuptkrckid.jpg,00681941121fa.jpg,sunadqmjrhfjyuzyvdd.jpg,,,>,Place,,,,,0,,,,,,,o
256,12,Presentation,5,00116931230fa_sunaakqepfoeqomfgxf.jpg,00779941205fa_sunagdzlvkqtpnfxfcg.jpg,00116931230fa.jpg,sunaakqepfoeqomfgxf.jpg,00779941205fa.jpg,sunagdzlvkqtpnfxfcg.jpg,,,>,Place,,,,,1,,,,,,,o
257,12,Presentation,5,00979960627fa_sunbdycacjfaujxitbw.jpg,00267940128fb_sunablfqiwfqomjarht.jpg,00979960627fa.jpg,sunbdycacjfaujxitbw.jpg,00267940128fb.jpg,sunablfqiwfqomjarht.jpg,,,>,Place,,,,,1,,,,,,,x
258,12,Presentation,5,00782941205fa_sunagfvluwixdsozaql.jpg,00124931230fa_sunaalhlvzmjmitybdn.jpg,00782941205fa.jpg,sunagfvluwixdsozaql.jpg,00124931230fa.jpg,sunaalhlvzmjmitybdn.jpg,,,>,Place,,,,,0,,,,,,,x
259,12,Presentation,5,00874940307fa_sunajtrfunvzdfticna.jpg,00650941031fa_sunadikxpvqeabxrvvc.jpg,00874940307fa.jpg,sunajtrfunvzdfticna.jpg,00650941031fa.jpg,sunadikxpvqeabxrvvc.jpg,,,>,Place,,,,,1,,,,,,,o
260,12,Memory,5,,,,,,,sunaygrtwrwfezqjizr.jpg,,,,,,,,,,,,,,,
261,12,Memory,5,,,,,,,sunaalhlvzmjmitybdn.jpg,,,,,,,,,,,,,,,
262,12,Memory,5,,,,,,,sunafbwnojpqeyzssoe.jpg,,,,,,,,,,,,,,,
263,12,Memory,5,,,,,,,sunagfvluwixdsozaql.jpg,,,,,,,,,,,,,,,
264,12,Memory,5,,,,,,,00799941205fa.jpg,,,,,,,,,,,,,,,
265,12,Memory,5,,,,,,,sunaapllqyqlykszopd.jpg,,,,,,,,,,,,,,,
266,12,Memory,5,,,,,,,sunagmwxxwymwojbvgi.jpg,,,,,,,,,,,,,,,
267,12,Memory,5,,,,,,,00787941205fa.jpg,,,,,,,,,,,,,,,
268,12,Memory,5,,,,,,,sunadqmjrhfjyuzyvdd.jpg,,,,,,,,,,,,,,,
269,12,Memory,5,,,,,,,sunaaexqbtdswxrqjvz.jpg,,,,,,,,,,,,,,,
270,12,Memory,5,,,,,,,sunadflbrkckmepztql.jpg,,,,,,,,,,,,,,,
271,12,Memory,5,,,,,,,sunabxsbfwjccqxxzxq.jpg,,,,,,,,,,,,,,,
272,12,Memory,5,,,,,,,sunbbxkanhzjgbwyxqs.jpg,,,,,,,,,,,,,,,
273,12,Memory,5,,,,,,,00966960627fa.jpg,,,,,,,,,,,,,,,
274,12,Memory,5,,,,,,,00681941121fa.jpg,,,,,,,,,,,,,,,
275,12,Memory,5,,,,,,,00761960627fa.jpg,,,,,,,,,,,,,,,
276,12,Memory,5,,,,,,,00647941031fa.jpg,,,,,,,,,,,,,,,
277,12,Memory,5,,,,,,,sunafgdqbclkwfocdhg.jpg,,,,,,,,,,,,,,,
278,12,Memory,5,,,,,,,sunadikxpvqeabxrvvc.jpg,,,,,,,,,,,,,,,
279,12,Memory,5,,,,,,,sunagutjvdvnhxejerz.jpg,,,,,,,,,,,,,,,
280,12,Memory,5,,,,,,,00116931230fa.jpg,,,,,,,,,,,,,,,
281,12,Memory,5,,,,,,,sunacjnahdmqfnjfwqx.jpg,,,,,,,,,,,,,,,
282,12,Memory,5,,,,,,,01010960627fa.jpg,,,,,,,,,,,,,,,
283,12,Memory,5,,,,,,,00745941205fa.jpg,,,,,,,,,,,,,,,
284,12,Memory,5,,,,,,,00977960627fa.jpg,,,,,,,,,,,,,,,
285,12,Memory,5,,,,,,,00562941031fa.jpg,,,,,,,,,,,,,,,
286,12,Memory,5,,,,,,,suncnkvbhypnivcohyx.jpg,,,,,,,,,,,,,,,
287,12,Memory,5,,,,,,,00210940128fb.jpg,,,,,,,,,,,,,,,
288,12,Memory,5,,,,,,,00124931230fa.jpg,,,,,,,,,,,,,,,
289,12,Memory,5,,,,,,,00071941031fa.jpg,,,,,,,,,,,,,,,
290,12,Memory,5,,,,,,,00782941205fa.jpg,,,,,,,,,,,,,,,
291,12,Memory,5,,,,,,,00752960620fa.jpg,,,,,,,,,,,,,,,
292,12,Memory,5,,,,,,,sunaaehaikpckyjsety.jpg,,,,,,,,,,,,,,,
293,12,Memory,5,,,,,,,00140931230fb.jpg,,,,,,,,,,,,,,,
294,12,Memory,5,,,,,,,sunabanoxjtqxamkucc.jpg,,,,,,,,,,,,,,,
295,12,Memory,5,,,,,,,sunaeouogqolxvggaoq.jpg,,,,,,,,,,,,,,,
296,12,Memory,5,,,,,,,00060931230fa.jpg,,,,,,,,,,,,,,,
297,12,Memory,5,,,,,,,00479940519fa.jpg,,,,,,,,,,,,,,,
298,12,Memory,5,,,,,,,00650941031fa.jpg,,,,,,,,,,,,,,,
299,12,Memory,5,,,,,,,sunaakqepfoeqomfgxf.jpg,,,,,,,,,,,,,,,
300,12,Presentation,6,00996960627fa_sunbpvgllfdejxcpjqp.jpg,00965960627fa_sunaydywdmvlfddbxbk.jpg,00996960627fa.jpg,sunbpvgllfdejxcpjqp.jpg,00965960627fa.jpg,sunaydywdmvlfddbxbk.jpg,,,>,Face,,,,,1,,,,,,,o
301,12,Presentation,6,00985960627fa_sunbgklxeqjhdbyfhhy.jpg,00288940422fa_sunabppokiyglaxpcha.jpg,00985960627fa.jpg,sunbgklxeqjhdbyfhhy.jpg,00288940422fa.jpg,sunabppokiyglaxpcha.jpg,,,>,Face,,,,,1,,,,,,,x
302,12,Presentation,6,00834940307fa_sunaibnpvhkdpdnzcnz.jpg,00115931230fa_sunaakmxzhuceuiryah.jpg,00834940307fa.jpg,sunaibnpvhkdpdnzcnz.jpg,00115931230fa.jpg,sunaakmxzhuceuiryah.jpg,,,>,Face,,,,,1,,,,,,,o
303,12,Presentation,6,00777941205fa_sunagcinxkccdtrjmlv.jpg,00762941201fa_sunafgzgbisbopcyslr.jpg,00777941205fa.jpg,sunagcinxkccdtrjmlv.jpg,00762941201fa.jpg,sunafgzgbisbopcyslr.jpg,,,>,Face,,,,,1,,,,,,,o
304,12,Presentation,6,00968960627fa_sunbagfpovqwbuexqdn.jpg,00191940128fb_sunaawsdjisukbbginm.jpg,00968960627fa.jpg,sunbagfpovqwbuexqdn.jpg,00191940128fb.jpg,sunaawsdjisukbbginm.jpg,,,>,Face,,,,,1,,,,,,,o
305,12,Presentation,6,00804960530fa_sunagwswhkvnsmuszlz.jpg,00999960627fa_sunbvbrvgbpanfrawft.jpg,00804960530fa.jpg,sunagwswhkvnsmuszlz.jpg,00999960627fa.jpg,sunbvbrvgbpanfrawft.jpg,,,>,Face,,,,,1,,,,,,,x
306,12,Presentation,6,00786941205fa_sunagmhildamktmqjss.jpg,00870940307fa_sunajrgtewnualfcerj.jpg,00786941205fa.jpg,sunagmhildamktmqjss.jpg,00870940307fa.jpg,sunajrgtewnualfcerj.jpg,,,>,Face,,,,,1,,,,,,,o
307,12,Presentation,6,00788941205fa_sunagountlxpzkytsmp.jpg,00760960620fa_sunaffstbkappprzxnv.jpg,00788941205fa.jpg,sunagountlxpzkytsmp.jpg,00760960620fa.jpg,sunaffstbkappprzxnv.jpg,,,>,Face,,,,,1,,,,,,,x
308,12,Presentation,6,00909960530_sunaobtizabegtwfwul.jpg,00571940928fa_sunacuatpqpqhyjhjqk.jpg,00909960530.jpg,sunaobtizabegtwfwul.jpg,00571940928fa.jpg,sunacuatpqpqhyjhjqk.jpg,,,>,Face,,,,,1,,,,,,,x
309,12,Presentation,6,00146960620fb_sunaatpeezlljqaxlhj.jpg,00242940128fa_sunabcuurugvxwparpk.jpg,00146960620fb.jpg,sunaatpeezlljqaxlhj.jpg,00242940128fa.jpg,sunabcuurugvxwparpk.jpg,,,>,Face,,,,,1,,,,,,,o
310,12,Memory,6,,,,,,,sunahctntqrunhdxhtb.jpg,,,,,,,,,,,,,,,
311,12,Memory,6,,,,,,,sunaiozxhxgtfrmoagh.jpg,,,,,,,,,,,,,,,
312,12,Memory,6,,,,,,,00827940307fa.jpg,,,,,,,,,,,,,,,
313,12,Memory,6,,,,,,,00988960627fa.jpg,,,,,,,,,,,,,,,
314,12,Memory,6,,,,,,,sunabjuovqvyfuzvqwt.jpg,,,,,,,,,,,,,,,
315,12,Memory,6,,,,,,,sunaydywdmvlfddbxbk.jpg,,,,,,,,,,,,,,,
316,12,Memory,6,,,,,,,00260940128fa.jpg,,,,,,,,,,,,,,,
317,12,Memory,6,,,,,,,sunaakmxzhuceuiryah.jpg,,,,,,,,,,,,,,,
318,12,Memory,6,,,,,,,sunagountlxpzkytsmp.jpg,,,,,,,,,,,,,,,
319,12,Memory,6,,,,,,,sunafgzgbisbopcyslr.jpg,,,,,,,,,,,,,,,
320,12,Memory,6,,,,,,,00589940928fa.jpg,,,,,,,,,,,,,,,
321,12,Memory,6,,,,,,,00834940307fa.jpg,,,,,,,,,,,,,,,
322,12,Memory,6,,,,,,,sunaatpeezlljqaxlhj.jpg,,,,,,,,,,,,,,,
323,12,Memory,6,,,,,,,00263940128fb.jpg,,,,,,,,,,,,,,,
324,12,Memory,6,,,,,,,00953960627fa.jpg,,,,,,,,,,,,,,,
325,12,Memory,6,,,,,,,sunabgfhvifeijihhjw.jpg,,,,,,,,,,,,,,,
326,12,Memory,6,,,,,,,00838940307fa.jpg,,,,,,,,,,,,,,,
327,12,Memory,6,,,,,,,sunacwggadqsfpovdjv.jpg,,,,,,,,,,,,,,,
328,12,Memory,6,,,,,,,00965960627fa.jpg,,,,,,,,,,,,,,,
329,12,Memory,6,,,,,,,sunagmhildamktmqjss.jpg,,,,,,,,,,,,,,,
330,12,Memory,6,,,,,,,sunbmaiocftdtvnzgap.jpg,,,,,,,,,,,,,,,
331,12,Memory,6,,,,,,,sunahtfxgsrmkiulnwk.jpg,,,,,,,,,,,,,,,
332,12,Memory,6,,,,,,,sunaibnpvhkdpdnzcnz.jpg,,,,,,,,,,,,,,,
333,12,Memory,6,,,,,,,00786941205fa.jpg,,,,,,,,,,,,,,,
334,12,Memory,6,,,,,,,sunaahwnmtqsrhocysw.jpg,,,,,,,,,,,,,,,
335,12,Memory,6,,,,,,,00870940307fa.jpg,,,,,,,,,,,,,,,
336,12,Memory,6,,,,,,,sunaahedjlmtqekgyvj.jpg,,,,,,,,,,,,,,,
337,12,Memory,6,,,,,,,00090931230fa.jpg,,,,,,,,,,,,,,,
338,12,Memory,6,,,,,,,sunbgklxeqjhdbyfhhy.jpg,,,,,,,,,,,,,,,
339,12,Memory,6,,,,,,,00093931230fa.jpg,,,,,,,,,,,,,,,
340,12,Memory,6,,,,,,,sunajrgtewnualfcerj.jpg,,,,,,,,,,,,,,,
341,12,Memory,6,,,,,,,00146960620fb.jpg,,,,,,,,,,,,,,,
342,12,Memory,6,,,,,,,00985960627fa.jpg,,,,,,,,,,,,,,,
343,12,Memory,6,,,,,,,00788941205fa.jpg,,,,,,,,,,,,,,,
344,12,Memory,6,,,,,,,00810941205fa.jpg,,,,,,,,,,,,,,,
345,12,Memory,6,,,,,,,00999960627fa.jpg,,,,,,,,,,,,,,,
346,12,Memory,6,,,,,,,sunatstrpjxhvtbaczf.jpg,,,,,,,,,,,,,,,
347,12,Memory,6,,,,,,,00115931230fa.jpg,,,,,,,,,,,,,,,
348,12,Memory,6,,,,,,,sunbvbrvgbpanfrawft.jpg,,,,,,,,,,,,,,,
349,12,Memory,6,,,,,,,00762941201fa.jpg,,,,,,,,,,,,,,,
350,12,Presentation,7,00194940128fb_sunaayehfdqcyxggsej.jpg,00943960627fa_sunarpsxqkduedrrzyi.jpg,00194940128fb.jpg,sunaayehfdqcyxggsej.jpg,00943960627fa.jpg,sunarpsxqkduedrrzyi.jpg,,,<,Face,,,,,1,,,,,,,o
351,12,Presentation,7,00818940307fa_sunahpblecxtmuzkmxb.jpg,00976960627fa_sunbbhqyyzmsxhsbjmp.jpg,00818940307fa.jpg,sunahpblecxtmuzkmxb.jpg,00976960627fa.jpg,sunbbhqyyzmsxhsbjmp.jpg,,,<,Face,,,,,1,,,,,,,x
352,12,Presentation,7,00854940307fa_sunaiwduelojtwaqeyh.jpg,00803941205fa_sunagvxkjokqimstxpe.jpg,00854940307fa.jpg,sunaiwduelojtwaqeyh.jpg,00803941205fa.jpg,sunagvxkjokqimstxpe.jpg,,,<,Face,,,,,1,,,,,,,x
353,12,Presentation,7,00081941031fa_sunaaftlyfudyzuhqzf.jpg,00507940519fa_sunacacflqoyxhsqzhe.jpg,00081941031fa.jpg,sunaaftlyfudyzuhqzf.jpg,00507940519fa.jpg,sunacacflqoyxhsqzhe.jpg,,,<,Face,,,,,1,,,,,,,x
354,12,Presentation,7,00949960627fb_sunasnqkkyhilqkxiqm.jpg,00120931230fa_sunaakxgygjfqrzpyoz.jpg,00949960627fb.jpg,sunasnqkkyhilqkxiqm.jpg,00120931230fa.jpg,sunaakxgygjfqrzpyoz.jpg,,,<,Face,,,,,1,,,,,,,o
355,12,Presentation,7,00564940928fa_sunacmpqqfbsvlzinzl.jpg,00568940928fa_sunacsdhbbsybcyxnel.jpg,00564940928fa.jpg,sunacmpqqfbsvlzinzl.jpg,00568940928fa.jpg,sunacsdhbbsybcyxnel.jpg,,,<,Face,,,,,1,,,,,,,o
356,12,Presentation,7,00771941205fa_sunafowswglhxcsufpo.jpg,00978960627fa_sunbddbivbptlrlauhy.jpg,00771941205fa.jpg,sunafowswglhxcsufpo.jpg,00978960627fa.jpg,sunbddbivbptlrlauhy.jpg,,,<,Face,,,,,1,,,,,,,o
357,12,Presentation,7,00633940928fa_sunadbhmrgrrpyzglxs.jpg,00790941205fa_sunagpjzsbltchlwvou.jpg,00633940928fa.jpg,sunadbhmrgrrpyzglxs.jpg,00790941205fa.jpg,sunagpjzsbltchlwvou.jpg,,,<,Face,,,,,1,,,,,,,x
358,12,Presentation,7,00935960627fa_sunaqbmgkgqucajzrkp.jpg,00829940307fa_sunahwgbqkqcrwprgvh.jpg,00935960627fa.jpg,sunaqbmgkgqucajzrkp.jpg,00829940307fa.jpg,sunahwgbqkqcrwprgvh.jpg,,,<,Face,,,,,1,,,,,,,x
359,12,Presentation,7,00609940928fa_sunacycdoztxoluxjyk.jpg,00983960627fa_sunbfyvfqiimvdaxlqn.jpg,00609940928fa.jpg,sunacycdoztxoluxjyk.jpg,00983960627fa.jpg,sunbfyvfqiimvdaxlqn.jpg,,,<,Face,,,,,1,,,,,,,x
360,12,Memory,7,,,,,,,00829940307fa.jpg,,,,,,,,,,,,,,,
361,12,Memory,7,,,,,,,sunapqwoeotxshkukbh.jpg,,,,,,,,,,,,,,,
362,12,Memory,7,,,,,,,00194940128fb.jpg,,,,,,,,,,,,,,,
363,12,Memory,7,,,,,,,sunasnqkkyhilqkxiqm.jpg,,,,,,,,,,,,,,,
364,12,Memory,7,,,,,,,sunagjeesomrwjsfqie.jpg,,,,,,,,,,,,,,,
365,12,Memory,7,,,,,,,00854940307fa.jpg,,,,,,,,,,,,,,,
366,12,Memory,7,,,,,,,00071940128fa.jpg,,,,,,,,,,,,,,,
367,12,Memory,7,,,,,,,sunakgbnzxmfohgehnu.jpg,,,,,,,,,,,,,,,
368,12,Memory,7,,,,,,,sunabohxbskznglnrhv.jpg,,,,,,,,,,,,,,,
369,12,Memory,7,,,,,,,00961960627fa.jpg,,,,,,,,,,,,,,,
370,12,Memory,7,,,,,,,sunaathajvxrgptwhoj.jpg,,,,,,,,,,,,,,,
371,12,Memory,7,,,,,,,00803941205fa.jpg,,,,,,,,,,,,,,,
372,12,Memory,7,,,,,,,00976960627fa.jpg,,,,,,,,,,,,,,,
373,12,Memory,7,,,,,,,00783941205fa.jpg,,,,,,,,,,,,,,,
374,12,Memory,7,,,,,,,sunagpjzsbltchlwvou.jpg,,,,,,,,,,,,,,,
375,12,Memory,7,,,,,,,sunawotxrevnqvamsfp.jpg,,,,,,,,,,,,,,,
376,12,Memory,7,,,,,,,00144931230fb.jpg,,,,,,,,,,,,,,,
377,12,Memory,7,,,,,,,sunagvxkjokqimstxpe.jpg,,,,,,,,,,,,,,,
378,12,Memory,7,,,,,,,00878960530fa.jpg,,,,,,,,,,,,,,,
379,12,Memory,7,,,,,,,sunbbhqyyzmsxhsbjmp.jpg,,,,,,,,,,,,,,,
380,12,Memory,7,,,,,,,00221940128fa.jpg,,,,,,,,,,,,,,,
381,12,Memory,7,,,,,,,00960960627fa.jpg,,,,,,,,,,,,,,,
382,12,Memory,7,,,,,,,00949960627fb.jpg,,,,,,,,,,,,,,,
383,12,Memory,7,,,,,,,sunabcfpwlpolnutyju.jpg,,,,,,,,,,,,,,,
384,12,Memory,7,,,,,,,00790941205fa.jpg,,,,,,,,,,,,,,,
385,12,Memory,7,,,,,,,sunaaexpnawiehinlpy.jpg,,,,,,,,,,,,,,,
386,12,Memory,7,,,,,,,sunahwgbqkqcrwprgvh.jpg,,,,,,,,,,,,,,,
387,12,Memory,7,,,,,,,sunaajtnvzzpsjdzres.jpg,,,,,,,,,,,,,,,
388,12,Memory,7,,,,,,,00609940928fa.jpg,,,,,,,,,,,,,,,
389,12,Memory,7,,,,,,,sunaiwduelojtwaqeyh.jpg,,,,,,,,,,,,,,,
390,12,Memory,7,,,,,,,00280940422fb.jpg,,,,,,,,,,,,,,,
391,12,Memory,7,,,,,,,sunbfyvfqiimvdaxlqn.jpg,,,,,,,,,,,,,,,
392,12,Memory,7,,,,,,,00983960627fa.jpg,,,,,,,,,,,,,,,
393,12,Memory,7,,,,,,,00926960627Fa.jpg,,,,,,,,,,,,,,,
394,12,Memory,7,,,,,,,sunaayehfdqcyxggsej.jpg,,,,,,,,,,,,,,,
395,12,Memory,7,,,,,,,sunawksfbacycuhbrsc.jpg,,,,,,,,,,,,,,,
396,12,Memory,7,,,,,,,sunacycdoztxoluxjyk.jpg,,,,,,,,,,,,,,,
397,12,Memory,7,,,,,,,00108960530fa.jpg,,,,,,,,,,,,,,,
398,12,Memory,7,,,,,,,00935960627fa.jpg,,,,,,,,,,,,,,,
399,12,Memory,7,,,,,,,sunaqbmgkgqucajzrkp.jpg,,,,,,,,,,,,,,,
