,Subject,Trial Type,Run,Cued Composite,Uncued Composite,Cued Face,Cued Place,Uncued Face,Uncued Place,Memory Image,Category,Cued Side,Cued Category,Attention Reaction Time (s),Familiarity Reaction Time (s),Familiarity Rating,Attention Level,Cue Validity,Post Invalid Cue,Pre Invalid Cue,Attention Button,Rating History,Stimulus Onset,Stimulus End,Attention Probe
310,28,Memory,6,,,,,,,sunajrgtewnualfcerj.jpg,,,,,1.237,3.0,,,,,,,1556031452.567339,1556031454.579911,
311,28,Memory,6,,,,,,,sunafgdqbclkwfocdhg.jpg,,,,,1.832,4.0,,,,,,,1556031455.96858,1556031457.915335,
312,28,Memory,6,,,,,,,00725941201fa.jpg,,,,,1.069,1.0,,,,,,,1556031459.163995,1556031461.115483,
313,28,Memory,6,,,,,,,sunbwdrdvsweerwsdrj.jpg,,,,,0.983,3.0,,,,,,,1556031462.370788,1556031464.316714,
314,28,Memory,6,,,,,,,sunabbafjowbzcvbucc.jpg,,,,,0.948,3.0,,,,,,,1556031465.571703,1556031467.516528,
315,28,Memory,6,,,,,,,00877960530fa.jpg,,,,,0.732,1.0,,,,,,,1556031468.750242,1556031470.702357,
316,28,Memory,6,,,,,,,00870940307fa.jpg,,,,,0.799,1.0,,,,,,,1556031471.936325,1556031473.885854,
317,28,Memory,6,,,,,,,sunaazzyhbvqjpmazjq.jpg,,,,,0.833,2.0,,,,,,,1556031475.141479,1556031477.121354,
318,28,Memory,6,,,,,,,00751960620fa.jpg,,,,,0.72,1.0,,,,,,,1556031478.355352,1556031480.30563,
319,28,Memory,6,,,,,,,sunaooaqzputrowwbsw.jpg,,,,,1.653,1.0,,,,,,,1556031481.68962,1556031483.638996,
320,28,Memory,6,,,,,,,sunadcphrizvfpljiqt.jpg,,,,,1.003,2.0,,,,,,,1556031484.940751,1556031486.940386,
321,28,Memory,6,,,,,,,sunacuatpqpqhyjhjqk.jpg,,,,,0.892,1.0,,,,,,,1556031488.212302,1556031490.474959,
322,28,Memory,6,,,,,,,00211940128fa.jpg,,,,,0.726,1.0,,,,,,,1556031491.746502,1556031493.983796,
323,28,Memory,6,,,,,,,00208940128fa.jpg,,,,,0.624,1.0,,,,,,,1556031495.248697,1556031497.54301,
324,28,Memory,6,,,,,,,sunajbwkywmsqkldfml.jpg,,,,,1.46,1.0,,,,,,,1556031498.815592,1556031501.415022,
325,28,Memory,6,,,,,,,sunabeyhmxodahoieyk.jpg,,,,,0.857,1.0,,,,,,,1556031502.700068,1556031504.670799,
326,28,Memory,6,,,,,,,00065931230fb.jpg,,,,,1.82,1.0,,,,,,,1556031505.951138,1556031508.163559,
327,28,Memory,6,,,,,,,00761960627fa.jpg,,,,,1.692,2.0,,,,,,,1556031509.502529,1556031511.986403,
328,28,Memory,6,,,,,,,00634940928fa.jpg,,,,,0.541,1.0,,,,,,,1556031513.336472,1556031515.554666,
329,28,Memory,6,,,,,,,sunaozisvwfbmlkfhzv.jpg,,,,,0.992,2.0,,,,,,,1556031516.921702,1556031519.270532,
330,28,Memory,6,,,,,,,sunajxpkuhbizeveguy.jpg,,,,,1.225,1.0,,,,,,,1556031520.572903,1556031522.874467,
331,28,Memory,6,,,,,,,sunaiozxhxgtfrmoagh.jpg,,,,,1.044,2.0,,,,,,,1556031524.139979,1556031526.574644,
332,28,Memory,6,,,,,,,00214940128fa.jpg,,,,,0.806,1.0,,,,,,,1556031527.858587,1556031530.070756,
333,28,Memory,6,,,,,,,sunabrjdpmoedcdjbpo.jpg,,,,,1.358,1.0,,,,,,,1556031531.3435,1556031533.704508,
334,28,Memory,6,,,,,,,sunaefgzwiramypjvtd.jpg,,,,,0.906,1.0,,,,,,,1556031534.960726,1556031537.156022,
335,28,Memory,6,,,,,,,00914960620fa.jpg,,,,,1.078,1.0,,,,,,,1556031538.461844,1556031540.945031,
336,28,Memory,6,,,,,,,00838940307fa.jpg,,,,,1.124,1.0,,,,,,,1556031542.329219,1556031544.725829,
337,28,Memory,6,,,,,,,00911960530fa.jpg,,,,,0.782,2.0,,,,,,,1556031546.031455,1556031548.012404,
338,28,Memory,6,,,,,,,sunaaemixhfquhnxxlm.jpg,,,,,1.274,3.0,,,,,,,1556031549.399355,1556031551.816285,
339,28,Memory,6,,,,,,,sunaezuszgtxnmsxdbk.jpg,,,,,1.107,2.0,,,,,,,1556031553.099716,1556031555.449676,
340,28,Memory,6,,,,,,,01003960627fb.jpg,,,,,0.687,1.0,,,,,,,1556031556.800844,1556031558.91571,
341,28,Memory,6,,,,,,,sunbloeoiozwjjsiamp.jpg,,,,,1.709,1.0,,,,,,,1556031560.202711,1556031562.835308,
342,28,Memory,6,,,,,,,00292940422fb.jpg,,,,,0.676,1.0,,,,,,,1556031564.119603,1556031566.282135,
343,28,Memory,6,,,,,,,00866940307fa.jpg,,,,,0.684,1.0,,,,,,,1556031567.570651,1556031569.617732,
344,28,Memory,6,,,,,,,sunacdnquypmsshhsbk.jpg,,,,,1.424,2.0,,,,,,,1556031571.139029,1556031573.558942,
345,28,Memory,6,,,,,,,00245940128fa.jpg,,,,,1.142,2.0,,,,,,,1556031574.873861,1556031577.320352,
346,28,Memory,6,,,,,,,sunabasphceswhwwqvv.jpg,,,,,0.858,2.0,,,,,,,1556031578.608259,1556031580.742002,
347,28,Memory,6,,,,,,,00540940519fa.jpg,,,,,0.758,1.0,,,,,,,1556031582.025574,1556031584.3559,
348,28,Memory,6,,,,,,,00571940928fa.jpg,,,,,0.909,1.0,,,,,,,1556031585.627502,1556031587.848092,
349,28,Memory,6,,,,,,,00987960627fa.jpg,,,,,1.509,1.0,,,,,,,1556031589.127846,1556031591.39074,
