,Subject,Trial Type,Run,Cued Composite,Uncued Composite,Cued Face,Cued Place,Uncued Face,Uncued Place,Memory Image,Category,Cued Side,Cued Category,Attention Reaction Time (s),Familiarity Reaction Time (s),Familiarity Rating,Attention Level,Cue Validity,Post Invalid Cue,Pre Invalid Cue,Attention Button,Rating History,Stimulus Onset,Stimulus End,Attention Probe
360,28,Memory,7,,,,,,,sunaczwgyukesaajxnx.jpg,,,,,1.677,2.0,,,,,,,1556031763.284653,1556031766.081612,
361,28,Memory,7,,,,,,,00097931230fa.jpg,,,,,0.967,1.0,,,,,,,1556031767.352952,1556031769.70525,
362,28,Memory,7,,,,,,,sunaamsdyakblkfoydx.jpg,,,,,1.125,2.0,,,,,,,1556031770.987946,1556031773.734228,
363,28,Memory,7,,,,,,,00968960627fa.jpg,,,,,0.959,2.0,,,,,,,1556031775.039227,1556031777.551403,
364,28,Memory,7,,,,,,,00880960530fa.jpg,,,,,0.709,1.0,,,,,,,1556031778.840754,1556031781.191756,
365,28,Memory,7,,,,,,,00895960530fa.jpg,,,,,0.738,1.0,,,,,,,1556031782.558636,1556031784.981434,
366,28,Memory,7,,,,,,,sunbagfpovqwbuexqdn.jpg,,,,,1.057,3.0,,,,,,,1556031786.309679,1556031788.77682,
367,28,Memory,7,,,,,,,sunaanlwnpqndclffxt.jpg,,,,,0.942,3.0,,,,,,,1556031790.128046,1556031792.773595,
368,28,Memory,7,,,,,,,sunaampvucecsfbdafn.jpg,,,,,1.126,1.0,,,,,,,1556031794.078193,1556031796.643209,
369,28,Memory,7,,,,,,,sunamczizlzavhzhpay.jpg,,,,,1.391,4.0,,,,,,,1556031797.946343,1556031800.293957,
370,28,Memory,7,,,,,,,sunaakvmbftkrgqhjun.jpg,,,,,1.158,4.0,,,,,,,1556031801.73079,1556031804.485758,
371,28,Memory,7,,,,,,,00919960620fa.jpg,,,,,0.809,1.0,,,,,,,1556031805.782828,1556031808.345058,
372,28,Memory,7,,,,,,,sunaygrtwrwfezqjizr.jpg,,,,,1.408,2.0,,,,,,,1556031809.717431,1556031812.469393,
373,28,Memory,7,,,,,,,00860940307fa.jpg,,,,,0.991,2.0,,,,,,,1556031813.86823,1556031816.552394,
374,28,Memory,7,,,,,,,00129931230fb.jpg,,,,,0.79,1.0,,,,,,,1556031817.853448,1556031820.434,
375,28,Memory,7,,,,,,,sunaajayojuslbbnneg.jpg,,,,,0.991,2.0,,,,,,,1556031821.737048,1556031824.11642,
376,28,Memory,7,,,,,,,00933960627fa.jpg,,,,,0.759,1.0,,,,,,,1556031825.388991,1556031827.818127,
377,28,Memory,7,,,,,,,sunaavodbcpygkggnfp.jpg,,,,,1.11,3.0,,,,,,,1556031829.123582,1556031831.541239,
378,28,Memory,7,,,,,,,00630940928fa.jpg,,,,,0.692,2.0,,,,,,,1556031832.841434,1556031835.125489,
379,28,Memory,7,,,,,,,00163931230fb.jpg,,,,,1.476,1.0,,,,,,,1556031836.408738,1556031839.031126,
380,28,Memory,7,,,,,,,sunahuynahneraqftyz.jpg,,,,,1.608,2.0,,,,,,,1556031840.443895,1556031843.006157,
381,28,Memory,7,,,,,,,sunasbbntuiheekqyaq.jpg,,,,,2.408,1.0,,,,,,,1556031844.379057,1556031847.244419,
382,28,Memory,7,,,,,,,sunafvtpfczkzopbgue.jpg,,,,,0.8,2.0,,,,,,,1556031848.546188,1556031850.827703,
383,28,Memory,7,,,,,,,00828940307fa.jpg,,,,,1.658,3.0,,,,,,,1556031852.130627,1556031854.931833,
384,28,Memory,7,,,,,,,sunakmnfgklupjijsgf.jpg,,,,,2.125,2.0,,,,,,,1556031856.199274,1556031858.930944,
385,28,Memory,7,,,,,,,00909960530.jpg,,,,,0.869,1.0,,,,,,,1556031860.217803,1556031862.517894,
386,28,Memory,7,,,,,,,sunaivdylrawbmhryfp.jpg,,,,,1.31,2.0,,,,,,,1556031863.80116,1556031866.388063,
387,28,Memory,7,,,,,,,sunapwjkcxdaeqehfql.jpg,,,,,2.21,2.0,,,,,,,1556031867.669359,1556031870.482649,
388,28,Memory,7,,,,,,,sunabxmguapjekttvwm.jpg,,,,,2.091,2.0,,,,,,,1556031871.870615,1556031874.68366,
389,28,Memory,7,,,,,,,00133931230fa.jpg,,,,,0.992,2.0,,,,,,,1556031876.072011,1556031878.560469,
390,28,Memory,7,,,,,,,00127931230fa.jpg,,,,,1.508,3.0,,,,,,,1556031879.857106,1556031882.502813,
391,28,Memory,7,,,,,,,sunaobtizabegtwfwul.jpg,,,,,1.044,3.0,,,,,,,1556031883.773583,1556031886.503579,
392,28,Memory,7,,,,,,,sunapmfmzadmosuogaz.jpg,,,,,1.476,3.0,,,,,,,1556031887.775822,1556031890.611339,
393,28,Memory,7,,,,,,,sunaizeyhvjzknwjudw.jpg,,,,,1.192,4.0,,,,,,,1556031891.894033,1556031894.407415,
394,28,Memory,7,,,,,,,00944960627fa.jpg,,,,,1.191,1.0,,,,,,,1556031895.695902,1556031898.178033,
395,28,Memory,7,,,,,,,00774941201fa.jpg,,,,,0.876,1.0,,,,,,,1556031899.480125,1556031901.967415,
396,28,Memory,7,,,,,,,00966960627fa.jpg,,,,,0.642,1.0,,,,,,,1556031903.364346,1556031905.843336,
397,28,Memory,7,,,,,,,00316940422fa.jpg,,,,,1.476,4.0,,,,,,,1556031907.148865,1556031909.788101,
398,28,Memory,7,,,,,,,00848940307fa.jpg,,,,,0.859,3.0,,,,,,,1556031911.067124,1556031913.429331,
399,28,Memory,7,,,,,,,00119931230fb.jpg,,,,,0.794,1.0,,,,,,,1556031914.734926,1556031917.121083,
