,Subject,Trial Type,Run,Cued Composite,Uncued Composite,Cued Face,Cued Place,Uncued Face,Uncued Place,Memory Image,Category,Cued Side,Cued Category,Attention Reaction Time (s),Familiarity Reaction Time (s),Familiarity Rating,Attention Level,Cue Validity,Post Invalid Cue,Pre Invalid Cue,Attention Button,Rating History,Stimulus Onset,Stimulus End,Attention Probe
360,11,Memory,7,,,,,,,sunaafgqutfaishsxyu.jpg,,,,,0.652,1.0,,,,,,,1538597762.023886,1538597764.073807,
361,11,Memory,7,,,,,,,00077931230fb.jpg,,,,,1.222,2.0,,,,,,,1538597765.340908,1538597767.326018,
362,11,Memory,7,,,,,,,00108960530fa.jpg,,,,,0.736,1.0,,,,,,,1538597768.575982,1538597770.559163,
363,11,Memory,7,,,,,,,00762941201fa.jpg,,,,,0.77,1.0,,,,,,,1538597771.876445,1538597773.861251,
364,11,Memory,7,,,,,,,sunafgzgbisbopcyslr.jpg,,,,,0.52,1.0,,,,,,,1538597775.11063,1538597777.094664,
365,11,Memory,7,,,,,,,00869940307fa.jpg,,,,,0.587,2.0,,,,,,,1538597778.362549,1538597780.345562,
366,11,Memory,7,,,,,,,00770941201fa.jpg,,,,,0.537,2.0,,,,,,,1538597781.61384,1538597783.597125,
367,11,Memory,7,,,,,,,sunaaeowapdkwzqpgqr.jpg,,,,,0.504,1.0,,,,,,,1538597784.847831,1538597786.831955,
368,11,Memory,7,,,,,,,sunagfvluwixdsozaql.jpg,,,,,0.253,2.0,,,,,,,1538597788.081873,1538597790.066092,
369,11,Memory,7,,,,,,,00788941205fa.jpg,,,,,0.686,1.0,,,,,,,1538597791.333385,1538597793.317479,
370,11,Memory,7,,,,,,,00870940307fa.jpg,,,,,0.404,2.0,,,,,,,1538597794.583542,1538597796.56865,
371,11,Memory,7,,,,,,,sunahctntqrunhdxhtb.jpg,,,,,1.036,1.0,,,,,,,1538597797.835406,1538597799.818701,
372,11,Memory,7,,,,,,,sunaemcowdozyphwknd.jpg,,,,,0.652,3.0,,,,,,,1538597801.119785,1538597803.103938,
373,11,Memory,7,,,,,,,sunaqyylsngywqzwfmx.jpg,,,,,0.254,1.0,,,,,,,1538597804.353937,1538597806.338068,
374,11,Memory,7,,,,,,,sunadakkdovnuzlycvp.jpg,,,,,0.736,1.0,,,,,,,1538597807.622145,1538597809.605273,
375,11,Memory,7,,,,,,,sunbddbivbptlrlauhy.jpg,,,,,0.619,1.0,,,,,,,1538597810.856561,1538597812.839513,
376,11,Memory,7,,,,,,,00129931230fb.jpg,,,,,0.271,1.0,,,,,,,1538597814.106418,1538597816.090878,
377,11,Memory,7,,,,,,,sunaflojskatpeqyzqp.jpg,,,,,0.768,3.0,,,,,,,1538597817.341824,1538597819.325657,
378,11,Memory,7,,,,,,,00742941201fa.jpg,,,,,0.538,1.0,,,,,,,1538597820.575643,1538597822.559951,
379,11,Memory,7,,,,,,,sunaajtnvzzpsjdzres.jpg,,,,,0.703,1.0,,,,,,,1538597823.826909,1538597825.810049,
380,11,Memory,7,,,,,,,sunagtumacdlmciqamz.jpg,,,,,0.419,1.0,,,,,,,1538597827.062111,1538597829.044383,
381,11,Memory,7,,,,,,,00741941201fa.jpg,,,,,0.871,1.0,,,,,,,1538597830.295608,1538597832.279447,
382,11,Memory,7,,,,,,,00630941031fa.jpg,,,,,0.453,2.0,,,,,,,1538597833.579537,1538597835.563611,
383,11,Memory,7,,,,,,,sunasmmcxdddtmtazwx.jpg,,,,,0.57,1.0,,,,,,,1538597836.830803,1538597838.814759,
384,11,Memory,7,,,,,,,00782941205fa.jpg,,,,,0.553,1.0,,,,,,,1538597840.081697,1538597842.066046,
385,11,Memory,7,,,,,,,00795941205fa.jpg,,,,,0.969,2.0,,,,,,,1538597843.317016,1538597845.416316,
386,11,Memory,7,,,,,,,00822940307fa.jpg,,,,,1.086,1.0,,,,,,,1538597846.685099,1538597848.669062,
387,11,Memory,7,,,,,,,sunaamsdyakblkfoydx.jpg,,,,,0.27,2.0,,,,,,,1538597849.934526,1538597851.919647,
388,11,Memory,7,,,,,,,sunbxarcshsnqsefemx.jpg,,,,,0.82,1.0,,,,,,,1538597853.169791,1538597855.152658,
389,11,Memory,7,,,,,,,sunagountlxpzkytsmp.jpg,,,,,0.286,3.0,,,,,,,1538597856.403879,1538597858.387725,
390,11,Memory,7,,,,,,,00938960627fa.jpg,,,,,0.62,2.0,,,,,,,1538597859.637877,1538597861.623108,
391,11,Memory,7,,,,,,,sunaenwuebvlpdmntju.jpg,,,,,0.621,1.0,,,,,,,1538597862.889875,1538597864.873333,
392,11,Memory,7,,,,,,,01007960627fa.jpg,,,,,0.554,2.0,,,,,,,1538597866.140495,1538597868.124212,
393,11,Memory,7,,,,,,,00069931230fb.jpg,,,,,0.887,3.0,,,,,,,1538597869.391683,1538597871.37632,
394,11,Memory,7,,,,,,,00810941205fa.jpg,,,,,0.653,1.0,,,,,,,1538597872.62671,1538597874.609944,
395,11,Memory,7,,,,,,,sunahqrxievfeusiqlt.jpg,,,,,0.806,1.0,,,,,,,1538597875.859665,1538597877.844783,
396,11,Memory,7,,,,,,,00978960627fa.jpg,,,,,0.52,2.0,,,,,,,1538597879.111031,1538597881.095913,
397,11,Memory,7,,,,,,,sunajrgtewnualfcerj.jpg,,,,,0.987,1.0,,,,,,,1538597882.379048,1538597884.363119,
398,11,Memory,7,,,,,,,00947960627fa.jpg,,,,,0.355,2.0,,,,,,,1538597885.613156,1538597887.597525,
399,11,Memory,7,,,,,,,sunajoveqhiprwqgoco.jpg,,,,,0.704,1.0,,,,,,,1538597888.86433,1538597890.847765,
