,Subject,Trial Type,Run,Cued Composite,Uncued Composite,Cued Face,Cued Place,Uncued Face,Uncued Place,Memory Image,Category,Cued Side,Cued Category,Attention Reaction Time (s),Familiarity Reaction Time (s),Familiarity Rating,Attention Level,Cue Validity,Post Invalid Cue,Pre Invalid Cue,Attention Button,Rating History,Stimulus Onset,Stimulus End,Attention Probe
0,8,Presentation,0,00841940307fa_sunaisiwfgppimtnmxl.jpg,00895960530fa_sunamczizlzavhzhpay.jpg,00841940307fa.jpg,sunaisiwfgppimtnmxl.jpg,00895960530fa.jpg,sunamczizlzavhzhpay.jpg,,,<,Face,,,,,1,,,,,,,x
1,8,Presentation,0,00089931230fa_sunaagcpoejbuzyvddd.jpg,00776941205fa_sunafxokyavhgptyfye.jpg,00089931230fa.jpg,sunaagcpoejbuzyvddd.jpg,00776941205fa.jpg,sunafxokyavhgptyfye.jpg,,,>,Face,,,,,1,,,,,,,x
2,8,Presentation,0,00750941201fa_sunaeuzwggvibufclwf.jpg,00926960627Fa_sunapqwoeotxshkukbh.jpg,00750941201fa.jpg,sunaeuzwggvibufclwf.jpg,00926960627Fa.jpg,sunapqwoeotxshkukbh.jpg,,,>,Place,,,,,1,,,,,,,x
3,8,Presentation,0,00675941121fa_sunadoxcchtmsxewsau.jpg,00125931230fa_sunaalltyvjhbzhkmvg.jpg,00675941121fa.jpg,sunadoxcchtmsxewsau.jpg,00125931230fa.jpg,sunaalltyvjhbzhkmvg.jpg,,,<,Place,,,,,1,,,,,,,o
4,8,Presentation,0,00978960627fa_sunbddbivbptlrlauhy.jpg,00957960627fa_sunavhxgmgrqsaptynb.jpg,00978960627fa.jpg,sunbddbivbptlrlauhy.jpg,00957960627fa.jpg,sunavhxgmgrqsaptynb.jpg,,,>,Place,,,,,1,,,,,,,x
5,8,Presentation,0,00742941201fa_sunaenwuebvlpdmntju.jpg,01005960627fa_sunbwyuesflwdpqtgoy.jpg,00742941201fa.jpg,sunaenwuebvlpdmntju.jpg,01005960627fa.jpg,sunbwyuesflwdpqtgoy.jpg,,,<,Face,,,,,0,,,,,,,x
6,8,Presentation,0,00965960627fa_sunaydywdmvlfddbxbk.jpg,00681941121fa_sunadqmjrhfjyuzyvdd.jpg,00965960627fa.jpg,sunaydywdmvlfddbxbk.jpg,00681941121fa.jpg,sunadqmjrhfjyuzyvdd.jpg,,,>,Place,,,,,1,,,,,,,x
7,8,Presentation,0,00574940928fa_sunacvbrcejzwmcgnoq.jpg,00158931230fb_sunaavchcbptaerhcfy.jpg,00574940928fa.jpg,sunacvbrcejzwmcgnoq.jpg,00158931230fb.jpg,sunaavchcbptaerhcfy.jpg,,,<,Face,,,,,1,,,,,,,o
8,8,Presentation,0,00984960627fa_sunbfzchmomnvzhbxdg.jpg,00839940307fa_sunaipyohrqlwngaqif.jpg,00984960627fa.jpg,sunbfzchmomnvzhbxdg.jpg,00839940307fa.jpg,sunaipyohrqlwngaqif.jpg,,,>,Face,,,,,1,,,,,,,o
9,8,Presentation,0,00306940422fa_sunabueyoajufbkraki.jpg,00796941205fa_sunaguchqqnrtodtezq.jpg,00306940422fa.jpg,sunabueyoajufbkraki.jpg,00796941205fa.jpg,sunaguchqqnrtodtezq.jpg,,,<,Place,,,,,1,,,,,,,o
10,8,Memory,0,,,,,,,sunadoxcchtmsxewsau.jpg,,,,,,,,,,,,,,,
11,8,Memory,0,,,,,,,sunamczizlzavhzhpay.jpg,,,,,,,,,,,,,,,
12,8,Memory,0,,,,,,,sunacxeheuiigkcgquf.jpg,,,,,,,,,,,,,,,
13,8,Memory,0,,,,,,,sunablfqiwfqomjarht.jpg,,,,,,,,,,,,,,,
14,8,Memory,0,,,,,,,sunabueyoajufbkraki.jpg,,,,,,,,,,,,,,,
15,8,Memory,0,,,,,,,00125931230fa.jpg,,,,,,,,,,,,,,,
16,8,Memory,0,,,,,,,sundbixjudsgeuuehrn.jpg,,,,,,,,,,,,,,,
17,8,Memory,0,,,,,,,sunagvxkjokqimstxpe.jpg,,,,,,,,,,,,,,,
18,8,Memory,0,,,,,,,00882960530fa.jpg,,,,,,,,,,,,,,,
19,8,Memory,0,,,,,,,01207940128fa.jpg,,,,,,,,,,,,,,,
20,8,Memory,0,,,,,,,sunaalltyvjhbzhkmvg.jpg,,,,,,,,,,,,,,,
21,8,Memory,0,,,,,,,00804960530fa.jpg,,,,,,,,,,,,,,,
22,8,Memory,0,,,,,,,sunaagcpoejbuzyvddd.jpg,,,,,,,,,,,,,,,
23,8,Memory,0,,,,,,,00895960530fa.jpg,,,,,,,,,,,,,,,
24,8,Memory,0,,,,,,,sunaavchcbptaerhcfy.jpg,,,,,,,,,,,,,,,
25,8,Memory,0,,,,,,,sunapqwoeotxshkukbh.jpg,,,,,,,,,,,,,,,
26,8,Memory,0,,,,,,,00158931230fb.jpg,,,,,,,,,,,,,,,
27,8,Memory,0,,,,,,,00675941121fa.jpg,,,,,,,,,,,,,,,
28,8,Memory,0,,,,,,,00770941201fa.jpg,,,,,,,,,,,,,,,
29,8,Memory,0,,,,,,,00111931230fb.jpg,,,,,,,,,,,,,,,
30,8,Memory,0,,,,,,,sunagwswhkvnsmuszlz.jpg,,,,,,,,,,,,,,,
31,8,Memory,0,,,,,,,00598940928fa.jpg,,,,,,,,,,,,,,,
32,8,Memory,0,,,,,,,sunaakgekhjklxmvulj.jpg,,,,,,,,,,,,,,,
33,8,Memory,0,,,,,,,sunaknlirqjqiwbbeeg.jpg,,,,,,,,,,,,,,,
34,8,Memory,0,,,,,,,sunaflojskatpeqyzqp.jpg,,,,,,,,,,,,,,,
35,8,Memory,0,,,,,,,00978960627fa.jpg,,,,,,,,,,,,,,,
36,8,Memory,0,,,,,,,00574940928fa.jpg,,,,,,,,,,,,,,,
37,8,Memory,0,,,,,,,sunafijbgncijwykrnl.jpg,,,,,,,,,,,,,,,
38,8,Memory,0,,,,,,,sunacvbrcejzwmcgnoq.jpg,,,,,,,,,,,,,,,
39,8,Memory,0,,,,,,,sunbddbivbptlrlauhy.jpg,,,,,,,,,,,,,,,
40,8,Memory,0,,,,,,,00803941205fa.jpg,,,,,,,,,,,,,,,
41,8,Memory,0,,,,,,,00267940128fb.jpg,,,,,,,,,,,,,,,
42,8,Memory,0,,,,,,,00306940422fa.jpg,,,,,,,,,,,,,,,
43,8,Memory,0,,,,,,,00089931230fa.jpg,,,,,,,,,,,,,,,
44,8,Memory,0,,,,,,,00796941205fa.jpg,,,,,,,,,,,,,,,
45,8,Memory,0,,,,,,,00926960627Fa.jpg,,,,,,,,,,,,,,,
46,8,Memory,0,,,,,,,sunagmhildamktmqjss.jpg,,,,,,,,,,,,,,,
47,8,Memory,0,,,,,,,00766960620fa.jpg,,,,,,,,,,,,,,,
48,8,Memory,0,,,,,,,00786941205fa.jpg,,,,,,,,,,,,,,,
49,8,Memory,0,,,,,,,sunaguchqqnrtodtezq.jpg,,,,,,,,,,,,,,,
50,8,Presentation,1,00939960627fa_sunarceibpcyacbmfga.jpg,00825940307fa_sunahrltmuwbiehihpe.jpg,00939960627fa.jpg,sunarceibpcyacbmfga.jpg,00825940307fa.jpg,sunahrltmuwbiehihpe.jpg,,,>,Place,,,,,1,,,,,,,x
51,8,Presentation,1,00725941201fa_sunaefgzwiramypjvtd.jpg,00101931230fb_sunaajqmsaavkmgbsth.jpg,00725941201fa.jpg,sunaefgzwiramypjvtd.jpg,00101931230fb.jpg,sunaajqmsaavkmgbsth.jpg,,,<,Face,,,,,1,,,,,,,o
52,8,Presentation,1,00082931230fa_sunaafvitpexrpvumsa.jpg,00077931230fb_sunaafgqutfaishsxyu.jpg,00082931230fa.jpg,sunaafvitpexrpvumsa.jpg,00077931230fb.jpg,sunaafgqutfaishsxyu.jpg,,,>,Face,,,,,1,,,,,,,o
53,8,Presentation,1,00576941031fa_sunacvjlsylseoghjup.jpg,00242940128fa_sunabcuurugvxwparpk.jpg,00576941031fa.jpg,sunacvjlsylseoghjup.jpg,00242940128fa.jpg,sunabcuurugvxwparpk.jpg,,,<,Face,,,,,1,,,,,,,x
54,8,Presentation,1,00950960627fa_sunasrjlmglmjzbmqxb.jpg,00828940307fa_sunahuynahneraqftyz.jpg,00950960627fa.jpg,sunasrjlmglmjzbmqxb.jpg,00828940307fa.jpg,sunahuynahneraqftyz.jpg,,,<,Place,,,,,1,,,,,,,o
55,8,Presentation,1,00280940422fb_sunabohxbskznglnrhv.jpg,00124931230fa_sunaalhlvzmjmitybdn.jpg,00280940422fb.jpg,sunabohxbskznglnrhv.jpg,00124931230fa.jpg,sunaalhlvzmjmitybdn.jpg,,,<,Place,,,,,1,,,,,,,o
56,8,Presentation,1,00894960620fa_sunalqmfgeadpqsyzpd.jpg,00540940519fa_sunacdnquypmsshhsbk.jpg,00894960620fa.jpg,sunalqmfgeadpqsyzpd.jpg,00540940519fa.jpg,sunacdnquypmsshhsbk.jpg,,,<,Place,,,,,1,,,,,,,x
57,8,Presentation,1,00860940307fa_sunaizeyhvjzknwjudw.jpg,00163931230fb_sunaavodbcpygkggnfp.jpg,00860940307fa.jpg,sunaizeyhvjzknwjudw.jpg,00163931230fb.jpg,sunaavodbcpygkggnfp.jpg,,,>,Face,,,,,1,,,,,,,o
58,8,Presentation,1,00868960307fa_sunajjxttslobudoqbv.jpg,00705960530fa_sunaduslxfzlbxlllnz.jpg,00868960307fa.jpg,sunajjxttslobudoqbv.jpg,00705960530fa.jpg,sunaduslxfzlbxlllnz.jpg,,,>,Face,,,,,0,,,,,,,x
59,8,Presentation,1,00146960620fb_sunaatpeezlljqaxlhj.jpg,00290940422fa_sunabqowuarvqqcnipn.jpg,00146960620fb.jpg,sunaatpeezlljqaxlhj.jpg,00290940422fa.jpg,sunabqowuarvqqcnipn.jpg,,,>,Place,,,,,1,,,,,,,x
60,8,Memory,1,,,,,,,00938960627fa.jpg,,,,,,,,,,,,,,,
61,8,Memory,1,,,,,,,sunaygrtwrwfezqjizr.jpg,,,,,,,,,,,,,,,
62,8,Memory,1,,,,,,,sunalqmfgeadpqsyzpd.jpg,,,,,,,,,,,,,,,
63,8,Memory,1,,,,,,,00124931230fa.jpg,,,,,,,,,,,,,,,
64,8,Memory,1,,,,,,,00785941205fa.jpg,,,,,,,,,,,,,,,
65,8,Memory,1,,,,,,,sunaekgzpfilgjxpeyq.jpg,,,,,,,,,,,,,,,
66,8,Memory,1,,,,,,,sunaavodbcpygkggnfp.jpg,,,,,,,,,,,,,,,
67,8,Memory,1,,,,,,,00146960620fb.jpg,,,,,,,,,,,,,,,
68,8,Memory,1,,,,,,,00242940128fa.jpg,,,,,,,,,,,,,,,
69,8,Memory,1,,,,,,,00163931230fb.jpg,,,,,,,,,,,,,,,
70,8,Memory,1,,,,,,,01002960627fb.jpg,,,,,,,,,,,,,,,
71,8,Memory,1,,,,,,,sunacvzhvcksnwqcqbw.jpg,,,,,,,,,,,,,,,
72,8,Memory,1,,,,,,,00906960530fa.jpg,,,,,,,,,,,,,,,
73,8,Memory,1,,,,,,,sunbwaafjdebjzttuvq.jpg,,,,,,,,,,,,,,,
74,8,Memory,1,,,,,,,00576941031fa.jpg,,,,,,,,,,,,,,,
75,8,Memory,1,,,,,,,sunaajqmsaavkmgbsth.jpg,,,,,,,,,,,,,,,
76,8,Memory,1,,,,,,,sunacypmnujalygkunp.jpg,,,,,,,,,,,,,,,
77,8,Memory,1,,,,,,,sunarceibpcyacbmfga.jpg,,,,,,,,,,,,,,,
78,8,Memory,1,,,,,,,sunaqyylsngywqzwfmx.jpg,,,,,,,,,,,,,,,
79,8,Memory,1,,,,,,,00620940928fa.jpg,,,,,,,,,,,,,,,
80,8,Memory,1,,,,,,,sunaedtgwjvvziytspa.jpg,,,,,,,,,,,,,,,
81,8,Memory,1,,,,,,,sunaalhlvzmjmitybdn.jpg,,,,,,,,,,,,,,,
82,8,Memory,1,,,,,,,sunantryfbloeaomfta.jpg,,,,,,,,,,,,,,,
83,8,Memory,1,,,,,,,sunabjuovqvyfuzvqwt.jpg,,,,,,,,,,,,,,,
84,8,Memory,1,,,,,,,00581940928fa.jpg,,,,,,,,,,,,,,,
85,8,Memory,1,,,,,,,sunaglqunwuycxydmyu.jpg,,,,,,,,,,,,,,,
86,8,Memory,1,,,,,,,00966960627fa.jpg,,,,,,,,,,,,,,,
87,8,Memory,1,,,,,,,00101931230fb.jpg,,,,,,,,,,,,,,,
88,8,Memory,1,,,,,,,sunacdnquypmsshhsbk.jpg,,,,,,,,,,,,,,,
89,8,Memory,1,,,,,,,00894960620fa.jpg,,,,,,,,,,,,,,,
90,8,Memory,1,,,,,,,sunaatpeezlljqaxlhj.jpg,,,,,,,,,,,,,,,
91,8,Memory,1,,,,,,,00723941201fa.jpg,,,,,,,,,,,,,,,
92,8,Memory,1,,,,,,,00263940128fb.jpg,,,,,,,,,,,,,,,
93,8,Memory,1,,,,,,,sunaefgzwiramypjvtd.jpg,,,,,,,,,,,,,,,
94,8,Memory,1,,,,,,,sunacvjlsylseoghjup.jpg,,,,,,,,,,,,,,,
95,8,Memory,1,,,,,,,00730960620fa.jpg,,,,,,,,,,,,,,,
96,8,Memory,1,,,,,,,00540940519fa.jpg,,,,,,,,,,,,,,,
97,8,Memory,1,,,,,,,00939960627fa.jpg,,,,,,,,,,,,,,,
98,8,Memory,1,,,,,,,sunabcuurugvxwparpk.jpg,,,,,,,,,,,,,,,
99,8,Memory,1,,,,,,,00725941201fa.jpg,,,,,,,,,,,,,,,
100,8,Presentation,2,00805941205fa_sunagwzdbtlixdhgolm.jpg,00935960627fa_sunaqbmgkgqucajzrkp.jpg,00805941205fa.jpg,sunagwzdbtlixdhgolm.jpg,00935960627fa.jpg,sunaqbmgkgqucajzrkp.jpg,,,<,Face,,,,,1,,,,,,,x
101,8,Presentation,2,00793941205fa_sunagtjwilqjvxohypn.jpg,00921960627fa_sunapqkpqdfvxlbqwyo.jpg,00793941205fa.jpg,sunagtjwilqjvxohypn.jpg,00921960627fa.jpg,sunapqkpqdfvxlbqwyo.jpg,,,>,Place,,,,,1,,,,,,,x
102,8,Presentation,2,00869940307fa_sunajoveqhiprwqgoco.jpg,00266940128fb_sunabkngeblodihjvbk.jpg,00869940307fa.jpg,sunajoveqhiprwqgoco.jpg,00266940128fb.jpg,sunabkngeblodihjvbk.jpg,,,>,Place,,,,,0,,,,,,,o
103,8,Presentation,2,00636941031fa_sunaddtdkycxbqlpfqa.jpg,00773941201fa_sunafvcflzhlqloapyo.jpg,00636941031fa.jpg,sunaddtdkycxbqlpfqa.jpg,00773941201fa.jpg,sunafvcflzhlqloapyo.jpg,,,>,Place,,,,,1,,,,,,,x
104,8,Presentation,2,00909960530_sunaobtizabegtwfwul.jpg,00969960627fa_sunbaoizrfijvhpnnjn.jpg,00909960530.jpg,sunaobtizabegtwfwul.jpg,00969960627fa.jpg,sunbaoizrfijvhpnnjn.jpg,,,>,Face,,,,,1,,,,,,,o
105,8,Presentation,2,00771941205fa_sunafowswglhxcsufpo.jpg,00790941205fa_sunagpjzsbltchlwvou.jpg,00771941205fa.jpg,sunafowswglhxcsufpo.jpg,00790941205fa.jpg,sunagpjzsbltchlwvou.jpg,,,<,Place,,,,,1,,,,,,,o
106,8,Presentation,2,00720960620fa_sunaecpkgfewqqreqwe.jpg,00773960620fa_sunafvsxtzaizojicxx.jpg,00720960620fa.jpg,sunaecpkgfewqqreqwe.jpg,00773960620fa.jpg,sunafvsxtzaizojicxx.jpg,,,<,Place,,,,,1,,,,,,,o
107,8,Presentation,2,00127931230fa_sunaampvucecsfbdafn.jpg,00296940422fa_sunabrwnslxalcohfre.jpg,00127931230fa.jpg,sunaampvucecsfbdafn.jpg,00296940422fa.jpg,sunabrwnslxalcohfre.jpg,,,<,Face,,,,,1,,,,,,,x
108,8,Presentation,2,00955960627fb_sunauburywlkjszngcq.jpg,00819940307fa_sunahqldjibofgsfdgb.jpg,00955960627fb.jpg,sunauburywlkjszngcq.jpg,00819940307fa.jpg,sunahqldjibofgsfdgb.jpg,,,>,Face,,,,,1,,,,,,,x
109,8,Presentation,2,00835940307fa_sunaijsqpvodplbwxkf.jpg,00162931230fb_sunaavjinpnkappuonm.jpg,00835940307fa.jpg,sunaijsqpvodplbwxkf.jpg,00162931230fb.jpg,sunaavjinpnkappuonm.jpg,,,<,Face,,,,,1,,,,,,,x
110,8,Memory,2,,,,,,,sunbdycacjfaujxitbw.jpg,,,,,,,,,,,,,,,
111,8,Memory,2,,,,,,,sunaavjinpnkappuonm.jpg,,,,,,,,,,,,,,,
112,8,Memory,2,,,,,,,sunaahedjlmtqekgyvj.jpg,,,,,,,,,,,,,,,
113,8,Memory,2,,,,,,,00314940422fa.jpg,,,,,,,,,,,,,,,
114,8,Memory,2,,,,,,,00935960627fa.jpg,,,,,,,,,,,,,,,
115,8,Memory,2,,,,,,,sunaobtizabegtwfwul.jpg,,,,,,,,,,,,,,,
116,8,Memory,2,,,,,,,00996960627fa.jpg,,,,,,,,,,,,,,,
117,8,Memory,2,,,,,,,sunaijsqpvodplbwxkf.jpg,,,,,,,,,,,,,,,
118,8,Memory,2,,,,,,,00835940307fa.jpg,,,,,,,,,,,,,,,
119,8,Memory,2,,,,,,,00197940128fa.jpg,,,,,,,,,,,,,,,
120,8,Memory,2,,,,,,,00184940128fa.jpg,,,,,,,,,,,,,,,
121,8,Memory,2,,,,,,,00955960627fb.jpg,,,,,,,,,,,,,,,
122,8,Memory,2,,,,,,,sunaqbmgkgqucajzrkp.jpg,,,,,,,,,,,,,,,
123,8,Memory,2,,,,,,,00589940928fa.jpg,,,,,,,,,,,,,,,
124,8,Memory,2,,,,,,,sunabwmcbaxwioksdgw.jpg,,,,,,,,,,,,,,,
125,8,Memory,2,,,,,,,sunaecpkgfewqqreqwe.jpg,,,,,,,,,,,,,,,
126,8,Memory,2,,,,,,,00909960530.jpg,,,,,,,,,,,,,,,
127,8,Memory,2,,,,,,,00296940422fa.jpg,,,,,,,,,,,,,,,
128,8,Memory,2,,,,,,,00720960620fa.jpg,,,,,,,,,,,,,,,
129,8,Memory,2,,,,,,,sunakodkcslgqhqlgwl.jpg,,,,,,,,,,,,,,,
130,8,Memory,2,,,,,,,00162931230fb.jpg,,,,,,,,,,,,,,,
131,8,Memory,2,,,,,,,00969960627fa.jpg,,,,,,,,,,,,,,,
132,8,Memory,2,,,,,,,sunafvcflzhlqloapyo.jpg,,,,,,,,,,,,,,,
133,8,Memory,2,,,,,,,sunaavtbadenwnzeutj.jpg,,,,,,,,,,,,,,,
134,8,Memory,2,,,,,,,sunauburywlkjszngcq.jpg,,,,,,,,,,,,,,,
135,8,Memory,2,,,,,,,00773941201fa.jpg,,,,,,,,,,,,,,,
136,8,Memory,2,,,,,,,00086931230fa.jpg,,,,,,,,,,,,,,,
137,8,Memory,2,,,,,,,sunacwggadqsfpovdjv.jpg,,,,,,,,,,,,,,,
138,8,Memory,2,,,,,,,sunaddtdkycxbqlpfqa.jpg,,,,,,,,,,,,,,,
139,8,Memory,2,,,,,,,00090931230fa.jpg,,,,,,,,,,,,,,,
140,8,Memory,2,,,,,,,sunabanoxjtqxamkucc.jpg,,,,,,,,,,,,,,,
141,8,Memory,2,,,,,,,00979960627fa.jpg,,,,,,,,,,,,,,,
142,8,Memory,2,,,,,,,00210940128fb.jpg,,,,,,,,,,,,,,,
143,8,Memory,2,,,,,,,00884960530fa.jpg,,,,,,,,,,,,,,,
144,8,Memory,2,,,,,,,sunbaoizrfijvhpnnjn.jpg,,,,,,,,,,,,,,,
145,8,Memory,2,,,,,,,sunbpvgllfdejxcpjqp.jpg,,,,,,,,,,,,,,,
146,8,Memory,2,,,,,,,sunaaylzyqlqrsmfwif.jpg,,,,,,,,,,,,,,,
147,8,Memory,2,,,,,,,sunabrwnslxalcohfre.jpg,,,,,,,,,,,,,,,
148,8,Memory,2,,,,,,,sunaafynehyrzpsoaml.jpg,,,,,,,,,,,,,,,
149,8,Memory,2,,,,,,,00636941031fa.jpg,,,,,,,,,,,,,,,
150,8,Presentation,3,00532960627fa_sunaccdtpgenvcbcbcf.jpg,00288940422fa_sunabppokiyglaxpcha.jpg,00532960627fa.jpg,sunaccdtpgenvcbcbcf.jpg,00288940422fa.jpg,sunabppokiyglaxpcha.jpg,,,>,Face,,,,,1,,,,,,,x
151,8,Presentation,3,00787960620fa_sunagoufulkpsxrmklt.jpg,00857940307fa_sunaiwfobocrruqznsv.jpg,00787960620fa.jpg,sunagoufulkpsxrmklt.jpg,00857940307fa.jpg,sunaiwfobocrruqznsv.jpg,,,<,Face,,,,,1,,,,,,,o
152,8,Presentation,3,00130931230fa_sunaamvxnvouicstkjb.jpg,00568940928fa_sunacsdhbbsybcyxnel.jpg,00130931230fa.jpg,sunaamvxnvouicstkjb.jpg,00568940928fa.jpg,sunacsdhbbsybcyxnel.jpg,,,<,Face,,,,,1,,,,,,,x
153,8,Presentation,3,00967960627fa_sunbaejotfklekvpxcz.jpg,00929960627fa_sunaprnrbmgkomdbchr.jpg,00967960627fa.jpg,sunbaejotfklekvpxcz.jpg,00929960627fa.jpg,sunaprnrbmgkomdbchr.jpg,,,>,Place,,,,,1,,,,,,,x
154,8,Presentation,3,00062931230fb_sunaaelotvjgibjtjhs.jpg,00663941121fa_sunadnjjzohjhbohlwq.jpg,00062931230fb.jpg,sunaaelotvjgibjtjhs.jpg,00663941121fa.jpg,sunadnjjzohjhbohlwq.jpg,,,<,Place,,,,,1,,,,,,,o
155,8,Presentation,3,00829940307fa_sunahwgbqkqcrwprgvh.jpg,00108960530fa_sunaajtnvzzpsjdzres.jpg,00829940307fa.jpg,sunahwgbqkqcrwprgvh.jpg,00108960530fa.jpg,sunaajtnvzzpsjdzres.jpg,,,>,Face,,,,,1,,,,,,,x
156,8,Presentation,3,00893960530Fa_sunaloffvbvysigxent.jpg,00071941031fa_sunaaexqbtdswxrqjvz.jpg,00893960530Fa.jpg,sunaloffvbvysigxent.jpg,00071941031fa.jpg,sunaaexqbtdswxrqjvz.jpg,,,<,Place,,,,,1,,,,,,,o
157,8,Presentation,3,00131931230fb_sunaangbuylfvckqqoo.jpg,00126931230fb_sunaamdjwemxpmmtypi.jpg,00131931230fb.jpg,sunaangbuylfvckqqoo.jpg,00126931230fb.jpg,sunaamdjwemxpmmtypi.jpg,,,>,Face,,,,,1,,,,,,,o
158,8,Presentation,3,00096931230fa_sunaaiqiqcggrskoqgy.jpg,00953960627fa_sunatstrpjxhvtbaczf.jpg,00096931230fa.jpg,sunaaiqiqcggrskoqgy.jpg,00953960627fa.jpg,sunatstrpjxhvtbaczf.jpg,,,<,Place,,,,,1,,,,,,,x
159,8,Presentation,3,00960960627fa_sunawksfbacycuhbrsc.jpg,00952960627fa_sunathzzbcwjykldrem.jpg,00960960627fa.jpg,sunawksfbacycuhbrsc.jpg,00952960627fa.jpg,sunathzzbcwjykldrem.jpg,,,>,Place,,,,,1,,,,,,,o
160,8,Memory,3,,,,,,,sunaloffvbvysigxent.jpg,,,,,,,,,,,,,,,
161,8,Memory,3,,,,,,,sunagoufulkpsxrmklt.jpg,,,,,,,,,,,,,,,
162,8,Memory,3,,,,,,,00901960530fa.jpg,,,,,,,,,,,,,,,
163,8,Memory,3,,,,,,,sunagjeesomrwjsfqie.jpg,,,,,,,,,,,,,,,
164,8,Memory,3,,,,,,,00989960627fa.jpg,,,,,,,,,,,,,,,
165,8,Memory,3,,,,,,,sunaaexqbtdswxrqjvz.jpg,,,,,,,,,,,,,,,
166,8,Memory,3,,,,,,,sunadtlxenqqxsyjvix.jpg,,,,,,,,,,,,,,,
167,8,Memory,3,,,,,,,sunagjzcrjvmxzqzljx.jpg,,,,,,,,,,,,,,,
168,8,Memory,3,,,,,,,00834940307fa.jpg,,,,,,,,,,,,,,,
169,8,Memory,3,,,,,,,00071941031fa.jpg,,,,,,,,,,,,,,,
170,8,Memory,3,,,,,,,sunaibnpvhkdpdnzcnz.jpg,,,,,,,,,,,,,,,
171,8,Memory,3,,,,,,,sunaangbuylfvckqqoo.jpg,,,,,,,,,,,,,,,
172,8,Memory,3,,,,,,,sunbondbduabvijnmch.jpg,,,,,,,,,,,,,,,
173,8,Memory,3,,,,,,,sunbaejotfklekvpxcz.jpg,,,,,,,,,,,,,,,
174,8,Memory,3,,,,,,,00096931230fa.jpg,,,,,,,,,,,,,,,
175,8,Memory,3,,,,,,,sunabtlfmiwtljmoues.jpg,,,,,,,,,,,,,,,
176,8,Memory,3,,,,,,,sunatstrpjxhvtbaczf.jpg,,,,,,,,,,,,,,,
177,8,Memory,3,,,,,,,00663941121fa.jpg,,,,,,,,,,,,,,,
178,8,Memory,3,,,,,,,00893960530Fa.jpg,,,,,,,,,,,,,,,
179,8,Memory,3,,,,,,,00784941205fb.jpg,,,,,,,,,,,,,,,
180,8,Memory,3,,,,,,,00705941205fa.jpg,,,,,,,,,,,,,,,
181,8,Memory,3,,,,,,,00093931230fa.jpg,,,,,,,,,,,,,,,
182,8,Memory,3,,,,,,,00783941205fa.jpg,,,,,,,,,,,,,,,
183,8,Memory,3,,,,,,,sunadnjjzohjhbohlwq.jpg,,,,,,,,,,,,,,,
184,8,Memory,3,,,,,,,sunaeisnjeetzmkbuad.jpg,,,,,,,,,,,,,,,
185,8,Memory,3,,,,,,,00953960627fa.jpg,,,,,,,,,,,,,,,
186,8,Memory,3,,,,,,,00727941205fa.jpg,,,,,,,,,,,,,,,
187,8,Memory,3,,,,,,,00967960627fa.jpg,,,,,,,,,,,,,,,
188,8,Memory,3,,,,,,,00787960620fa.jpg,,,,,,,,,,,,,,,
189,8,Memory,3,,,,,,,sunammbnoambmhdxdwd.jpg,,,,,,,,,,,,,,,
190,8,Memory,3,,,,,,,sunaajtnvzzpsjdzres.jpg,,,,,,,,,,,,,,,
191,8,Memory,3,,,,,,,00866940307fa.jpg,,,,,,,,,,,,,,,
192,8,Memory,3,,,,,,,sunaamdjwemxpmmtypi.jpg,,,,,,,,,,,,,,,
193,8,Memory,3,,,,,,,00131931230fb.jpg,,,,,,,,,,,,,,,
194,8,Memory,3,,,,,,,00108960530fa.jpg,,,,,,,,,,,,,,,
195,8,Memory,3,,,,,,,00126931230fb.jpg,,,,,,,,,,,,,,,
196,8,Memory,3,,,,,,,sunaahwnmtqsrhocysw.jpg,,,,,,,,,,,,,,,
197,8,Memory,3,,,,,,,sunaaiqiqcggrskoqgy.jpg,,,,,,,,,,,,,,,
198,8,Memory,3,,,,,,,sunajbwkywmsqkldfml.jpg,,,,,,,,,,,,,,,
199,8,Memory,3,,,,,,,00302940422fa.jpg,,,,,,,,,,,,,,,
200,8,Presentation,4,00694941121fa_sunadrmfzmstgdjdcod.jpg,00635941031fa_sunaddsaeicthrfbkhe.jpg,00694941121fa.jpg,sunadrmfzmstgdjdcod.jpg,00635941031fa.jpg,sunaddsaeicthrfbkhe.jpg,,,>,Face,,,,,1,,,,,,,o
201,8,Presentation,4,00719941201fa_sunadvithllcgmfxsrn.jpg,00878960530fa_sunakgbnzxmfohgehnu.jpg,00719941201fa.jpg,sunadvithllcgmfxsrn.jpg,00878960530fa.jpg,sunakgbnzxmfohgehnu.jpg,,,>,Face,,,,,1,,,,,,,o
202,8,Presentation,4,00638941031fa_sunadfktsqjthoglcsm.jpg,00961960627fa_sunawotxrevnqvamsfp.jpg,00638941031fa.jpg,sunadfktsqjthoglcsm.jpg,00961960627fa.jpg,sunawotxrevnqvamsfp.jpg,,,<,Place,,,,,0,,,,,,,x
203,8,Presentation,4,00931960627fa_sunaptrqvaooxfvktvw.jpg,00990960627fa_sunbpflsdaxnddnwcqi.jpg,00931960627fa.jpg,sunaptrqvaooxfvktvw.jpg,00990960627fa.jpg,sunbpflsdaxnddnwcqi.jpg,,,<,Face,,,,,1,,,,,,,o
204,8,Presentation,4,00885960530fa_sunakwlvxjpddialozd.jpg,01000960627fa_sunbvzmgrdvaakxusbu.jpg,00885960530fa.jpg,sunakwlvxjpddialozd.jpg,01000960627fa.jpg,sunbvzmgrdvaakxusbu.jpg,,,<,Face,,,,,1,,,,,,,x
205,8,Presentation,4,01003960627fb_sunbwdrdvsweerwsdrj.jpg,00944960627fa_sunasbbntuiheekqyaq.jpg,01003960627fb.jpg,sunbwdrdvsweerwsdrj.jpg,00944960627fa.jpg,sunasbbntuiheekqyaq.jpg,,,>,Place,,,,,1,,,,,,,o
206,8,Presentation,4,00985960627fa_sunbgklxeqjhdbyfhhy.jpg,00778941205fa_sunagcthdfirrcawoic.jpg,00985960627fa.jpg,sunbgklxeqjhdbyfhhy.jpg,00778941205fa.jpg,sunagcthdfirrcawoic.jpg,,,<,Place,,,,,1,,,,,,,o
207,8,Presentation,4,00972960627fa_sunbbfqwjpdxniyhies.jpg,00763941205fa_sunafhmnhsdurlvddpw.jpg,00972960627fa.jpg,sunbbfqwjpdxniyhies.jpg,00763941205fa.jpg,sunafhmnhsdurlvddpw.jpg,,,>,Place,,,,,0,,,,,,,o
208,8,Presentation,4,00949960627fb_sunasnqkkyhilqkxiqm.jpg,00562941031fa_sunacjnahdmqfnjfwqx.jpg,00949960627fb.jpg,sunasnqkkyhilqkxiqm.jpg,00562941031fa.jpg,sunacjnahdmqfnjfwqx.jpg,,,>,Place,,,,,1,,,,,,,o
209,8,Presentation,4,00959960627fa_sunavxokzybtomhbmvm.jpg,00097931230fa_sunaajayojuslbbnneg.jpg,00959960627fa.jpg,sunavxokzybtomhbmvm.jpg,00097931230fa.jpg,sunaajayojuslbbnneg.jpg,,,<,Face,,,,,1,,,,,,,o
210,8,Memory,4,,,,,,,sunbtpilbhhbmhmeuzq.jpg,,,,,,,,,,,,,,,
211,8,Memory,4,,,,,,,sunadrmfzmstgdjdcod.jpg,,,,,,,,,,,,,,,
212,8,Memory,4,,,,,,,sunaafjszryxyavjzln.jpg,,,,,,,,,,,,,,,
213,8,Memory,4,,,,,,,sunabllobxadqcyttej.jpg,,,,,,,,,,,,,,,
214,8,Memory,4,,,,,,,00944960627fa.jpg,,,,,,,,,,,,,,,
215,8,Memory,4,,,,,,,00694941121fa.jpg,,,,,,,,,,,,,,,
216,8,Memory,4,,,,,,,00779941205fa.jpg,,,,,,,,,,,,,,,
217,8,Memory,4,,,,,,,00990960627fa.jpg,,,,,,,,,,,,,,,
218,8,Memory,4,,,,,,,01003960627fb.jpg,,,,,,,,,,,,,,,
219,8,Memory,4,,,,,,,00571940928fa.jpg,,,,,,,,,,,,,,,
220,8,Memory,4,,,,,,,00557940519fa.jpg,,,,,,,,,,,,,,,
221,8,Memory,4,,,,,,,00878960530fa.jpg,,,,,,,,,,,,,,,
222,8,Memory,4,,,,,,,sunagcthdfirrcawoic.jpg,,,,,,,,,,,,,,,
223,8,Memory,4,,,,,,,00997960627fa.jpg,,,,,,,,,,,,,,,
224,8,Memory,4,,,,,,,sunaptrqvaooxfvktvw.jpg,,,,,,,,,,,,,,,
225,8,Memory,4,,,,,,,sunacsaovnjezqwbykf.jpg,,,,,,,,,,,,,,,
226,8,Memory,4,,,,,,,00931960627fa.jpg,,,,,,,,,,,,,,,
227,8,Memory,4,,,,,,,00120931230fa.jpg,,,,,,,,,,,,,,,
228,8,Memory,4,,,,,,,00635941031fa.jpg,,,,,,,,,,,,,,,
229,8,Memory,4,,,,,,,00728941205fa.jpg,,,,,,,,,,,,,,,
230,8,Memory,4,,,,,,,00986960627fa.jpg,,,,,,,,,,,,,,,
231,8,Memory,4,,,,,,,sunadvithllcgmfxsrn.jpg,,,,,,,,,,,,,,,
232,8,Memory,4,,,,,,,00972960627fa.jpg,,,,,,,,,,,,,,,
233,8,Memory,4,,,,,,,sunbpflsdaxnddnwcqi.jpg,,,,,,,,,,,,,,,
234,8,Memory,4,,,,,,,sunacuatpqpqhyjhjqk.jpg,,,,,,,,,,,,,,,
235,8,Memory,4,,,,,,,00564941031fa.jpg,,,,,,,,,,,,,,,
236,8,Memory,4,,,,,,,sunasbbntuiheekqyaq.jpg,,,,,,,,,,,,,,,
237,8,Memory,4,,,,,,,sunbbfqwjpdxniyhies.jpg,,,,,,,,,,,,,,,
238,8,Memory,4,,,,,,,sunaejnvnpltdmhbcsi.jpg,,,,,,,,,,,,,,,
239,8,Memory,4,,,,,,,sunaddsaeicthrfbkhe.jpg,,,,,,,,,,,,,,,
240,8,Memory,4,,,,,,,sunachtuarilwyqnvjx.jpg,,,,,,,,,,,,,,,
241,8,Memory,4,,,,,,,sunagdzlvkqtpnfxfcg.jpg,,,,,,,,,,,,,,,
242,8,Memory,4,,,,,,,sunakgbnzxmfohgehnu.jpg,,,,,,,,,,,,,,,
243,8,Memory,4,,,,,,,00778941205fa.jpg,,,,,,,,,,,,,,,
244,8,Memory,4,,,,,,,sunbgzjryivyczuvkvm.jpg,,,,,,,,,,,,,,,
245,8,Memory,4,,,,,,,sunaakxgygjfqrzpyoz.jpg,,,,,,,,,,,,,,,
246,8,Memory,4,,,,,,,sunbwdrdvsweerwsdrj.jpg,,,,,,,,,,,,,,,
247,8,Memory,4,,,,,,,00270940422fb.jpg,,,,,,,,,,,,,,,
248,8,Memory,4,,,,,,,00719941201fa.jpg,,,,,,,,,,,,,,,
249,8,Memory,4,,,,,,,00080931230fb.jpg,,,,,,,,,,,,,,,
250,8,Presentation,5,00999960627fa_sunbvbrvgbpanfrawft.jpg,00977960627fa_sunbbxkanhzjgbwyxqs.jpg,00999960627fa.jpg,sunbvbrvgbpanfrawft.jpg,00977960627fa.jpg,sunbbxkanhzjgbwyxqs.jpg,,,>,Place,,,,,1,,,,,,,o
251,8,Presentation,5,00943960627fa_sunarpsxqkduedrrzyi.jpg,00794960620fa_sunagtqhhwxjeuxdebe.jpg,00943960627fa.jpg,sunarpsxqkduedrrzyi.jpg,00794960620fa.jpg,sunagtqhhwxjeuxdebe.jpg,,,>,Face,,,,,1,,,,,,,o
252,8,Presentation,5,00751960620fa_sunaezuszgtxnmsxdbk.jpg,00149931230fa_sunaauglwmctnkxyird.jpg,00751960620fa.jpg,sunaezuszgtxnmsxdbk.jpg,00149931230fa.jpg,sunaauglwmctnkxyird.jpg,,,<,Place,,,,,1,,,,,,,x
253,8,Presentation,5,00903960620fa_sunanainkqdvktzoxyl.jpg,00958960627fa_sunavspxmxubqaeidjt.jpg,00903960620fa.jpg,sunanainkqdvktzoxyl.jpg,00958960627fa.jpg,sunavspxmxubqaeidjt.jpg,,,<,Place,,,,,1,,,,,,,x
254,8,Presentation,5,00670941121fa_sunadochqcucscehsgk.jpg,00858940307fa_sunaixpqndlwhwjtjek.jpg,00670941121fa.jpg,sunadochqcucscehsgk.jpg,00858940307fa.jpg,sunaixpqndlwhwjtjek.jpg,,,<,Face,,,,,1,,,,,,,x
255,8,Presentation,5,00775941205fa_sunafvwfsmqkjrutjta.jpg,00154931230fa_sunaauueuhhvklldjik.jpg,00775941205fa.jpg,sunafvwfsmqkjrutjta.jpg,00154931230fa.jpg,sunaauueuhhvklldjik.jpg,,,>,Place,,,,,1,,,,,,,o
256,8,Presentation,5,00851940307fa_sunaivflshbyfrfzhqb.jpg,00292940422fb_sunabrjdpmoedcdjbpo.jpg,00851940307fa.jpg,sunaivflshbyfrfzhqb.jpg,00292940422fb.jpg,sunabrjdpmoedcdjbpo.jpg,,,>,Face,,,,,1,,,,,,,o
257,8,Presentation,5,00060931230fa_sunaaehaikpckyjsety.jpg,00482940519fa_sunabyfxcxhdebvdyfd.jpg,00060931230fa.jpg,sunaaehaikpckyjsety.jpg,00482940519fa.jpg,sunabyfxcxhdebvdyfd.jpg,,,>,Place,,,,,1,,,,,,,o
258,8,Presentation,5,00847940307fa_sunaivdjruhkrfywfed.jpg,00870940307fa_sunajrgtewnualfcerj.jpg,00847940307fa.jpg,sunaivdjruhkrfywfed.jpg,00870940307fa.jpg,sunajrgtewnualfcerj.jpg,,,<,Face,,,,,1,,,,,,,o
259,8,Presentation,5,00746941201fa_sunaetydippjxikifsb.jpg,00479940519fa_sunabxsbfwjccqxxzxq.jpg,00746941201fa.jpg,sunaetydippjxikifsb.jpg,00479940519fa.jpg,sunabxsbfwjccqxxzxq.jpg,,,<,Face,,,,,0,,,,,,,o
260,8,Memory,5,,,,,,,sunadikxpvqeabxrvvc.jpg,,,,,,,,,,,,,,,
261,8,Memory,5,,,,,,,00914960620fa.jpg,,,,,,,,,,,,,,,
262,8,Memory,5,,,,,,,sunabrjdpmoedcdjbpo.jpg,,,,,,,,,,,,,,,
263,8,Memory,5,,,,,,,00958960627fa.jpg,,,,,,,,,,,,,,,
264,8,Memory,5,,,,,,,00751960620fa.jpg,,,,,,,,,,,,,,,
265,8,Memory,5,,,,,,,sunafvwfsmqkjrutjta.jpg,,,,,,,,,,,,,,,
266,8,Memory,5,,,,,,,sunafgdqbclkwfocdhg.jpg,,,,,,,,,,,,,,,
267,8,Memory,5,,,,,,,00719960620fa.jpg,,,,,,,,,,,,,,,
268,8,Memory,5,,,,,,,sunahtfxgsrmkiulnwk.jpg,,,,,,,,,,,,,,,
269,8,Memory,5,,,,,,,00292940422fb.jpg,,,,,,,,,,,,,,,
270,8,Memory,5,,,,,,,sunanainkqdvktzoxyl.jpg,,,,,,,,,,,,,,,
271,8,Memory,5,,,,,,,sunbvbrvgbpanfrawft.jpg,,,,,,,,,,,,,,,
272,8,Memory,5,,,,,,,00977960627fa.jpg,,,,,,,,,,,,,,,
273,8,Memory,5,,,,,,,00662941121fa.jpg,,,,,,,,,,,,,,,
274,8,Memory,5,,,,,,,00858940307fa.jpg,,,,,,,,,,,,,,,
275,8,Memory,5,,,,,,,sunavspxmxubqaeidjt.jpg,,,,,,,,,,,,,,,
276,8,Memory,5,,,,,,,sunalcrtwiycqobgelp.jpg,,,,,,,,,,,,,,,
277,8,Memory,5,,,,,,,00482940519fa.jpg,,,,,,,,,,,,,,,
278,8,Memory,5,,,,,,,sunadkazmlajmohnwfl.jpg,,,,,,,,,,,,,,,
279,8,Memory,5,,,,,,,00827940307fa.jpg,,,,,,,,,,,,,,,
280,8,Memory,5,,,,,,,sunaixpqndlwhwjtjek.jpg,,,,,,,,,,,,,,,
281,8,Memory,5,,,,,,,sunaozisvwfbmlkfhzv.jpg,,,,,,,,,,,,,,,
282,8,Memory,5,,,,,,,00887960530.jpg,,,,,,,,,,,,,,,
283,8,Memory,5,,,,,,,00761960627fa.jpg,,,,,,,,,,,,,,,
284,8,Memory,5,,,,,,,sunadzuvtmtmgupotmf.jpg,,,,,,,,,,,,,,,
285,8,Memory,5,,,,,,,sunbbxkanhzjgbwyxqs.jpg,,,,,,,,,,,,,,,
286,8,Memory,5,,,,,,,00999960627fa.jpg,,,,,,,,,,,,,,,
287,8,Memory,5,,,,,,,sunaezuszgtxnmsxdbk.jpg,,,,,,,,,,,,,,,
288,8,Memory,5,,,,,,,00775941205fa.jpg,,,,,,,,,,,,,,,
289,8,Memory,5,,,,,,,sunaajspcoepticvplv.jpg,,,,,,,,,,,,,,,
290,8,Memory,5,,,,,,,00193940928fa.jpg,,,,,,,,,,,,,,,
291,8,Memory,5,,,,,,,00145931230fb.jpg,,,,,,,,,,,,,,,
292,8,Memory,5,,,,,,,00650941031fa.jpg,,,,,,,,,,,,,,,
293,8,Memory,5,,,,,,,00847940307fa.jpg,,,,,,,,,,,,,,,
294,8,Memory,5,,,,,,,00102931230fa.jpg,,,,,,,,,,,,,,,
295,8,Memory,5,,,,,,,sunaaxjpzcnxligjtjq.jpg,,,,,,,,,,,,,,,
296,8,Memory,5,,,,,,,sunabyfxcxhdebvdyfd.jpg,,,,,,,,,,,,,,,
297,8,Memory,5,,,,,,,sunaivdjruhkrfywfed.jpg,,,,,,,,,,,,,,,
298,8,Memory,5,,,,,,,00903960620fa.jpg,,,,,,,,,,,,,,,
299,8,Memory,5,,,,,,,sunaatjesvdupctftmn.jpg,,,,,,,,,,,,,,,
300,8,Presentation,6,00564940928fa_sunacmpqqfbsvlzinzl.jpg,01010960627fa_suncnkvbhypnivcohyx.jpg,00564940928fa.jpg,sunacmpqqfbsvlzinzl.jpg,01010960627fa.jpg,suncnkvbhypnivcohyx.jpg,,,<,Place,,,,,1,,,,,,,x
301,8,Presentation,6,00741941201fa_sunaemcowdozyphwknd.jpg,00913960530fa_sunaooffzffbhcpirmm.jpg,00741941201fa.jpg,sunaemcowdozyphwknd.jpg,00913960530fa.jpg,sunaooffzffbhcpirmm.jpg,,,>,Place,,,,,1,,,,,,,x
302,8,Presentation,6,00925960627fa_sunapqwnqzxlsfvgsjm.jpg,00795941205fa_sunagtumacdlmciqamz.jpg,00925960627fa.jpg,sunapqwnqzxlsfvgsjm.jpg,00795941205fa.jpg,sunagtumacdlmciqamz.jpg,,,<,Face,,,,,1,,,,,,,x
303,8,Presentation,6,00782941205fa_sunagfvluwixdsozaql.jpg,00633940928fa_sunadbhmrgrrpyzglxs.jpg,00782941205fa.jpg,sunagfvluwixdsozaql.jpg,00633940928fa.jpg,sunadbhmrgrrpyzglxs.jpg,,,>,Face,,,,,0,,,,,,,x
304,8,Presentation,6,00129931230fb_sunaamsdyakblkfoydx.jpg,00609940928fa_sunacycdoztxoluxjyk.jpg,00129931230fb.jpg,sunaamsdyakblkfoydx.jpg,00609940928fa.jpg,sunacycdoztxoluxjyk.jpg,,,>,Face,,,,,1,,,,,,,o
305,8,Presentation,6,00276940422fa_sunabmytpyhsgigllxu.jpg,00800941205fb_sunagvjurcwdbixvnyi.jpg,00276940422fa.jpg,sunabmytpyhsgigllxu.jpg,00800941205fb.jpg,sunagvjurcwdbixvnyi.jpg,,,<,Face,,,,,1,,,,,,,o
306,8,Presentation,6,00598941031fa_sunacxtcahkymosigud.jpg,00123931230fb_sunaalcrrdbjgdztbiz.jpg,00598941031fa.jpg,sunacxtcahkymosigud.jpg,00123931230fb.jpg,sunaalcrrdbjgdztbiz.jpg,,,>,Face,,,,,1,,,,,,,x
307,8,Presentation,6,00818940307fa_sunahpblecxtmuzkmxb.jpg,00214940128fa_sunabbafjowbzcvbucc.jpg,00818940307fa.jpg,sunahpblecxtmuzkmxb.jpg,00214940128fa.jpg,sunabbafjowbzcvbucc.jpg,,,>,Place,,,,,1,,,,,,,x
308,8,Presentation,6,00745941205fa_sunaeouogqolxvggaoq.jpg,00648941031fa_sunadfndyrtqqiasoig.jpg,00745941205fa.jpg,sunaeouogqolxvggaoq.jpg,00648941031fa.jpg,sunadfndyrtqqiasoig.jpg,,,<,Place,,,,,1,,,,,,,x
309,8,Presentation,6,00809960620fa_sunahbvlpavurqoxdeq.jpg,00874940307fa_sunajtrfunvzdfticna.jpg,00809960620fa.jpg,sunahbvlpavurqoxdeq.jpg,00874940307fa.jpg,sunajtrfunvzdfticna.jpg,,,<,Place,,,,,1,,,,,,,x
310,8,Memory,6,,,,,,,00648941031fa.jpg,,,,,,,,,,,,,,,
311,8,Memory,6,,,,,,,sunayaepykrqvenaqqy.jpg,,,,,,,,,,,,,,,
312,8,Memory,6,,,,,,,sunabizydfotqddlnjp.jpg,,,,,,,,,,,,,,,
313,8,Memory,6,,,,,,,sunacmpqqfbsvlzinzl.jpg,,,,,,,,,,,,,,,
314,8,Memory,6,,,,,,,00937960627fa.jpg,,,,,,,,,,,,,,,
315,8,Memory,6,,,,,,,sunajtrfunvzdfticna.jpg,,,,,,,,,,,,,,,
316,8,Memory,6,,,,,,,sunadfndyrtqqiasoig.jpg,,,,,,,,,,,,,,,
317,8,Memory,6,,,,,,,00795941205fa.jpg,,,,,,,,,,,,,,,
318,8,Memory,6,,,,,,,00276940422fa.jpg,,,,,,,,,,,,,,,
319,8,Memory,6,,,,,,,00911960530fa.jpg,,,,,,,,,,,,,,,
320,8,Memory,6,,,,,,,00782941205fa.jpg,,,,,,,,,,,,,,,
321,8,Memory,6,,,,,,,00564940928fa.jpg,,,,,,,,,,,,,,,
322,8,Memory,6,,,,,,,00809960620fa.jpg,,,,,,,,,,,,,,,
323,8,Memory,6,,,,,,,sunaiwduelojtwaqeyh.jpg,,,,,,,,,,,,,,,
324,8,Memory,6,,,,,,,sunacycdoztxoluxjyk.jpg,,,,,,,,,,,,,,,
325,8,Memory,6,,,,,,,sunaafbmtoniaasysgu.jpg,,,,,,,,,,,,,,,
326,8,Memory,6,,,,,,,00073931230fa.jpg,,,,,,,,,,,,,,,
327,8,Memory,6,,,,,,,00854940307fa.jpg,,,,,,,,,,,,,,,
328,8,Memory,6,,,,,,,sunagfvluwixdsozaql.jpg,,,,,,,,,,,,,,,
329,8,Memory,6,,,,,,,sunahpblecxtmuzkmxb.jpg,,,,,,,,,,,,,,,
330,8,Memory,6,,,,,,,00963960627fa.jpg,,,,,,,,,,,,,,,
331,8,Memory,6,,,,,,,00913960530fa.jpg,,,,,,,,,,,,,,,
332,8,Memory,6,,,,,,,sunaooffzffbhcpirmm.jpg,,,,,,,,,,,,,,,
333,8,Memory,6,,,,,,,sunalntxqqadigcletd.jpg,,,,,,,,,,,,,,,
334,8,Memory,6,,,,,,,sunahiphsekjihkafsl.jpg,,,,,,,,,,,,,,,
335,8,Memory,6,,,,,,,sunahbvlpavurqoxdeq.jpg,,,,,,,,,,,,,,,
336,8,Memory,6,,,,,,,00815941205fa.jpg,,,,,,,,,,,,,,,
337,8,Memory,6,,,,,,,00836940307fa.jpg,,,,,,,,,,,,,,,
338,8,Memory,6,,,,,,,sunainqelldeebvxtcz.jpg,,,,,,,,,,,,,,,
339,8,Memory,6,,,,,,,sunagtumacdlmciqamz.jpg,,,,,,,,,,,,,,,
340,8,Memory,6,,,,,,,00874940307fa.jpg,,,,,,,,,,,,,,,
341,8,Memory,6,,,,,,,00922960627fa.jpg,,,,,,,,,,,,,,,
342,8,Memory,6,,,,,,,sunaooaqzputrowwbsw.jpg,,,,,,,,,,,,,,,
343,8,Memory,6,,,,,,,00818940307fa.jpg,,,,,,,,,,,,,,,
344,8,Memory,6,,,,,,,00609940928fa.jpg,,,,,,,,,,,,,,,
345,8,Memory,6,,,,,,,sunabmytpyhsgigllxu.jpg,,,,,,,,,,,,,,,
346,8,Memory,6,,,,,,,sunaqsolmfydodnakub.jpg,,,,,,,,,,,,,,,
347,8,Memory,6,,,,,,,00892960530fa.jpg,,,,,,,,,,,,,,,
348,8,Memory,6,,,,,,,sunapqkyghktgtosuuk.jpg,,,,,,,,,,,,,,,
349,8,Memory,6,,,,,,,00262940128fa.jpg,,,,,,,,,,,,,,,
350,8,Presentation,7,00098931230fa_sunaajpqmulidejvjsr.jpg,00071940128fa_sunaaexpnawiehinlpy.jpg,00098931230fa.jpg,sunaajpqmulidejvjsr.jpg,00071940128fa.jpg,sunaaexpnawiehinlpy.jpg,,,>,Face,,,,,1,,,,,,,x
351,8,Presentation,7,00132931230fb_sunaanjcbzdvtvblsdy.jpg,00871940307_sunajrujcsdxmfbssmc.jpg,00132931230fb.jpg,sunaanjcbzdvtvblsdy.jpg,00871940307.jpg,sunajrujcsdxmfbssmc.jpg,,,>,Face,,,,,1,,,,,,,o
352,8,Presentation,7,00136931230fb_sunaanptmsknhirrzed.jpg,01009960627fa_sunbxzweleltykebgan.jpg,00136931230fb.jpg,sunaanptmsknhirrzed.jpg,01009960627fa.jpg,sunbxzweleltykebgan.jpg,,,<,Place,,,,,1,,,,,,,x
353,8,Presentation,7,00848940307fa_sunaivdylrawbmhryfp.jpg,00294940422fb_sunabrlndkruqokhury.jpg,00848940307fa.jpg,sunaivdylrawbmhryfp.jpg,00294940422fb.jpg,sunabrlndkruqokhury.jpg,,,<,Place,,,,,1,,,,,,,o
354,8,Presentation,7,00235940128fb_sunabclssnoeuigtawp.jpg,00807941205fa_sunahawfngukizslzsd.jpg,00235940128fb.jpg,sunabclssnoeuigtawp.jpg,00807941205fa.jpg,sunahawfngukizslzsd.jpg,,,>,Place,,,,,1,,,,,,,o
355,8,Presentation,7,00198940128fb_sunaazezcsunmhttzxz.jpg,00968960627fa_sunbagfpovqwbuexqdn.jpg,00198940128fb.jpg,sunaazezcsunmhttzxz.jpg,00968960627fa.jpg,sunbagfpovqwbuexqdn.jpg,,,<,Face,,,,,1,,,,,,,o
356,8,Presentation,7,00543940519fa_sunacepzfrmtkiqonpy.jpg,00700941121fa_sunadsgmtznewzyasnk.jpg,00543940519fa.jpg,sunacepzfrmtkiqonpy.jpg,00700941121fa.jpg,sunadsgmtznewzyasnk.jpg,,,<,Face,,,,,1,,,,,,,o
357,8,Presentation,7,00947960627fa_sunasmmcxdddtmtazwx.jpg,00260940128fa_sunabgfhvifeijihhjw.jpg,00947960627fa.jpg,sunasmmcxdddtmtazwx.jpg,00260940128fa.jpg,sunabgfhvifeijihhjw.jpg,,,>,Face,,,,,1,,,,,,,x
358,8,Presentation,7,00313940422fa_sunabwjvmoaddlyxfjr.jpg,00631940928fa_sunadbdqzigzwipuipr.jpg,00313940422fa.jpg,sunabwjvmoaddlyxfjr.jpg,00631940928fa.jpg,sunadbdqzigzwipuipr.jpg,,,<,Place,,,,,1,,,,,,,x
359,8,Presentation,7,00507940519fa_sunacacflqoyxhsqzhe.jpg,00812941205fa_sunahgtbwgsmtqeodwh.jpg,00507940519fa.jpg,sunacacflqoyxhsqzhe.jpg,00812941205fa.jpg,sunahgtbwgsmtqeodwh.jpg,,,>,Place,,,,,0,,,,,,,x
360,8,Memory,7,,,,,,,00294940422fb.jpg,,,,,,,,,,,,,,,
361,8,Memory,7,,,,,,,00265940128fb.jpg,,,,,,,,,,,,,,,
362,8,Memory,7,,,,,,,sunaaekxzjzrfgtkwjf.jpg,,,,,,,,,,,,,,,
363,8,Memory,7,,,,,,,00316940422fa.jpg,,,,,,,,,,,,,,,
364,8,Memory,7,,,,,,,sunaajpqmulidejvjsr.jpg,,,,,,,,,,,,,,,
365,8,Memory,7,,,,,,,00947960627fa.jpg,,,,,,,,,,,,,,,
366,8,Memory,7,,,,,,,sunadsgmtznewzyasnk.jpg,,,,,,,,,,,,,,,
367,8,Memory,7,,,,,,,00876960620fa.jpg,,,,,,,,,,,,,,,
368,8,Memory,7,,,,,,,sunasmmcxdddtmtazwx.jpg,,,,,,,,,,,,,,,
369,8,Memory,7,,,,,,,sunabkmdplkdbvxriff.jpg,,,,,,,,,,,,,,,
370,8,Memory,7,,,,,,,sunbxzweleltykebgan.jpg,,,,,,,,,,,,,,,
371,8,Memory,7,,,,,,,00812941205fa.jpg,,,,,,,,,,,,,,,
372,8,Memory,7,,,,,,,00700941121fa.jpg,,,,,,,,,,,,,,,
373,8,Memory,7,,,,,,,00543940519fa.jpg,,,,,,,,,,,,,,,
374,8,Memory,7,,,,,,,sunagmwxxwymwojbvgi.jpg,,,,,,,,,,,,,,,
375,8,Memory,7,,,,,,,00198940128fb.jpg,,,,,,,,,,,,,,,
376,8,Memory,7,,,,,,,sunabrlndkruqokhury.jpg,,,,,,,,,,,,,,,
377,8,Memory,7,,,,,,,00098931230fa.jpg,,,,,,,,,,,,,,,
378,8,Memory,7,,,,,,,sunaapfaivxqoynnwwp.jpg,,,,,,,,,,,,,,,
379,8,Memory,7,,,,,,,sunacepzfrmtkiqonpy.jpg,,,,,,,,,,,,,,,
380,8,Memory,7,,,,,,,sunabxmguapjekttvwm.jpg,,,,,,,,,,,,,,,
381,8,Memory,7,,,,,,,01009960627fa.jpg,,,,,,,,,,,,,,,
382,8,Memory,7,,,,,,,00132931230fb.jpg,,,,,,,,,,,,,,,
383,8,Memory,7,,,,,,,sunaazezcsunmhttzxz.jpg,,,,,,,,,,,,,,,
384,8,Memory,7,,,,,,,00976960627fa.jpg,,,,,,,,,,,,,,,
385,8,Memory,7,,,,,,,00792941205fa.jpg,,,,,,,,,,,,,,,
386,8,Memory,7,,,,,,,00245940128fa.jpg,,,,,,,,,,,,,,,
387,8,Memory,7,,,,,,,sunaanjcbzdvtvblsdy.jpg,,,,,,,,,,,,,,,
388,8,Memory,7,,,,,,,sunaaeplwsfslcbtojr.jpg,,,,,,,,,,,,,,,
389,8,Memory,7,,,,,,,00787941205fa.jpg,,,,,,,,,,,,,,,
390,8,Memory,7,,,,,,,sunagsiwrmuixqgdimb.jpg,,,,,,,,,,,,,,,
391,8,Memory,7,,,,,,,sunajrujcsdxmfbssmc.jpg,,,,,,,,,,,,,,,
392,8,Memory,7,,,,,,,00138931230fa.jpg,,,,,,,,,,,,,,,
393,8,Memory,7,,,,,,,sunabeyhmxodahoieyk.jpg,,,,,,,,,,,,,,,
394,8,Memory,7,,,,,,,00070940307fa.jpg,,,,,,,,,,,,,,,
395,8,Memory,7,,,,,,,sunbbhqyyzmsxhsbjmp.jpg,,,,,,,,,,,,,,,
396,8,Memory,7,,,,,,,00871940307.jpg,,,,,,,,,,,,,,,
397,8,Memory,7,,,,,,,sunahgtbwgsmtqeodwh.jpg,,,,,,,,,,,,,,,
398,8,Memory,7,,,,,,,sunajwqkfsykceonyig.jpg,,,,,,,,,,,,,,,
399,8,Memory,7,,,,,,,00061931230fb.jpg,,,,,,,,,,,,,,,
