,Subject,Trial Type,Run,Cued Composite,Uncued Composite,Cued Face,Cued Place,Uncued Face,Uncued Place,Memory Image,Category,Cued Side,Cued Category,Attention Reaction Time (s),Familiarity Reaction Time (s),Familiarity Rating,Attention Level,Cue Validity,Post Invalid Cue,Pre Invalid Cue,Attention Button,Rating History,Stimulus Onset,Stimulus End,Attention Probe
0,23,Presentation,0,00276940422fa_sunabmytpyhsgigllxu.jpg,00848940307fa_sunaivdylrawbmhryfp.jpg,00276940422fa.jpg,sunabmytpyhsgigllxu.jpg,00848940307fa.jpg,sunaivdylrawbmhryfp.jpg,,,>,Face,,,,,1,,,,,,,o
1,23,Presentation,0,00070940307fa_sunaaeplwsfslcbtojr.jpg,00966960627fa_sunaygrtwrwfezqjizr.jpg,00070940307fa.jpg,sunaaeplwsfslcbtojr.jpg,00966960627fa.jpg,sunaygrtwrwfezqjizr.jpg,,,>,Place,,,,,1,,,,,,,x
2,23,Presentation,0,00062931230fb_sunaaelotvjgibjtjhs.jpg,00869940307fa_sunajoveqhiprwqgoco.jpg,00062931230fb.jpg,sunaaelotvjgibjtjhs.jpg,00869940307fa.jpg,sunajoveqhiprwqgoco.jpg,,,>,Place,,,,,1,,,,,,,o
3,23,Presentation,0,00809960620fa_sunahbvlpavurqoxdeq.jpg,00839940307fa_sunaipyohrqlwngaqif.jpg,00809960620fa.jpg,sunahbvlpavurqoxdeq.jpg,00839940307fa.jpg,sunaipyohrqlwngaqif.jpg,,,<,Face,,,,,1,,,,,,,x
4,23,Presentation,0,00571940928fa_sunacuatpqpqhyjhjqk.jpg,00681941121fa_sunadqmjrhfjyuzyvdd.jpg,00571940928fa.jpg,sunacuatpqpqhyjhjqk.jpg,00681941121fa.jpg,sunadqmjrhfjyuzyvdd.jpg,,,<,Place,,,,,1,,,,,,,o
5,23,Presentation,0,01011960627fa_sundahdxwmcdluscvot.jpg,00963960627fa_sunayaepykrqvenaqqy.jpg,01011960627fa.jpg,sundahdxwmcdluscvot.jpg,00963960627fa.jpg,sunayaepykrqvenaqqy.jpg,,,<,Place,,,,,1,,,,,,,o
6,23,Presentation,0,00905960530fa_sunanmoqeyprjjjfxjt.jpg,00947960627fa_sunasmmcxdddtmtazwx.jpg,00905960530fa.jpg,sunanmoqeyprjjjfxjt.jpg,00947960627fa.jpg,sunasmmcxdddtmtazwx.jpg,,,<,Face,,,,,1,,,,,,,o
7,23,Presentation,0,00967960627fa_sunbaejotfklekvpxcz.jpg,00796941205fa_sunaguchqqnrtodtezq.jpg,00967960627fa.jpg,sunbaejotfklekvpxcz.jpg,00796941205fa.jpg,sunaguchqqnrtodtezq.jpg,,,>,Face,,,,,1,,,,,,,o
8,23,Presentation,0,00648941031fa_sunadfndyrtqqiasoig.jpg,00750941201fa_sunaeuzwggvibufclwf.jpg,00648941031fa.jpg,sunadfndyrtqqiasoig.jpg,00750941201fa.jpg,sunaeuzwggvibufclwf.jpg,,,>,Face,,,,,1,,,,,,,x
9,23,Presentation,0,00576941031fa_sunacvjlsylseoghjup.jpg,00296940422fa_sunabrwnslxalcohfre.jpg,00576941031fa.jpg,sunacvjlsylseoghjup.jpg,00296940422fa.jpg,sunabrwnslxalcohfre.jpg,,,<,Place,,,,,0,,,,,,,x
10,23,Memory,0,,,,,,,00132931230fb.jpg,,,,,,,,,,,,,,,
11,23,Memory,0,,,,,,,00069931230fb.jpg,,,,,,,,,,,,,,,
12,23,Memory,0,,,,,,,00630940928fa.jpg,,,,,,,,,,,,,,,
13,23,Memory,0,,,,,,,sunaivdylrawbmhryfp.jpg,,,,,,,,,,,,,,,
14,23,Memory,0,,,,,,,00908960530fa.jpg,,,,,,,,,,,,,,,
15,23,Memory,0,,,,,,,sunabrwnslxalcohfre.jpg,,,,,,,,,,,,,,,
16,23,Memory,0,,,,,,,sunaaeplwsfslcbtojr.jpg,,,,,,,,,,,,,,,
17,23,Memory,0,,,,,,,00848940307fa.jpg,,,,,,,,,,,,,,,
18,23,Memory,0,,,,,,,sunbaejotfklekvpxcz.jpg,,,,,,,,,,,,,,,
19,23,Memory,0,,,,,,,00296940422fa.jpg,,,,,,,,,,,,,,,
20,23,Memory,0,,,,,,,sunbesrwkdsffeogeqq.jpg,,,,,,,,,,,,,,,
21,23,Memory,0,,,,,,,sunabzjxlmkwnwzimua.jpg,,,,,,,,,,,,,,,
22,23,Memory,0,,,,,,,sunaczwgyukesaajxnx.jpg,,,,,,,,,,,,,,,
23,23,Memory,0,,,,,,,sunaeutbrtswvsozxyk.jpg,,,,,,,,,,,,,,,
24,23,Memory,0,,,,,,,00747941201fa.jpg,,,,,,,,,,,,,,,
25,23,Memory,0,,,,,,,sunacvjlsylseoghjup.jpg,,,,,,,,,,,,,,,
26,23,Memory,0,,,,,,,00966960627fa.jpg,,,,,,,,,,,,,,,
27,23,Memory,0,,,,,,,sunahbvlpavurqoxdeq.jpg,,,,,,,,,,,,,,,
28,23,Memory,0,,,,,,,sunanwjjyqqwzqrqagd.jpg,,,,,,,,,,,,,,,
29,23,Memory,0,,,,,,,00498960627fa.jpg,,,,,,,,,,,,,,,
30,23,Memory,0,,,,,,,00809960620fa.jpg,,,,,,,,,,,,,,,
31,23,Memory,0,,,,,,,sunabmytpyhsgigllxu.jpg,,,,,,,,,,,,,,,
32,23,Memory,0,,,,,,,sunaaeowapdkwzqpgqr.jpg,,,,,,,,,,,,,,,
33,23,Memory,0,,,,,,,00835940307fa.jpg,,,,,,,,,,,,,,,
34,23,Memory,0,,,,,,,00854940307fa.jpg,,,,,,,,,,,,,,,
35,23,Memory,0,,,,,,,sunaanjcbzdvtvblsdy.jpg,,,,,,,,,,,,,,,
36,23,Memory,0,,,,,,,sunaipyohrqlwngaqif.jpg,,,,,,,,,,,,,,,
37,23,Memory,0,,,,,,,00153931230fa.jpg,,,,,,,,,,,,,,,
38,23,Memory,0,,,,,,,sunaauhozyxzeeqstxi.jpg,,,,,,,,,,,,,,,
39,23,Memory,0,,,,,,,00869940307fa.jpg,,,,,,,,,,,,,,,
40,23,Memory,0,,,,,,,sunaygrtwrwfezqjizr.jpg,,,,,,,,,,,,,,,
41,23,Memory,0,,,,,,,00276940422fa.jpg,,,,,,,,,,,,,,,
42,23,Memory,0,,,,,,,sunaijsqpvodplbwxkf.jpg,,,,,,,,,,,,,,,
43,23,Memory,0,,,,,,,00576941031fa.jpg,,,,,,,,,,,,,,,
44,23,Memory,0,,,,,,,sunaiwduelojtwaqeyh.jpg,,,,,,,,,,,,,,,
45,23,Memory,0,,,,,,,00070940307fa.jpg,,,,,,,,,,,,,,,
46,23,Memory,0,,,,,,,00839940307fa.jpg,,,,,,,,,,,,,,,
47,23,Memory,0,,,,,,,sunajoveqhiprwqgoco.jpg,,,,,,,,,,,,,,,
48,23,Memory,0,,,,,,,00967960627fa.jpg,,,,,,,,,,,,,,,
49,23,Memory,0,,,,,,,00982960627fa.jpg,,,,,,,,,,,,,,,
50,23,Presentation,1,00073931230fa_sunaafbmtoniaasysgu.jpg,00208940128fa_sunaazzyhbvqjpmazjq.jpg,00073931230fa.jpg,sunaafbmtoniaasysgu.jpg,00208940128fa.jpg,sunaazzyhbvqjpmazjq.jpg,,,<,Face,,,,,1,,,,,,,o
51,23,Presentation,1,00996960627fa_sunbpvgllfdejxcpjqp.jpg,00650941031fa_sunadikxpvqeabxrvvc.jpg,00996960627fa.jpg,sunbpvgllfdejxcpjqp.jpg,00650941031fa.jpg,sunadikxpvqeabxrvvc.jpg,,,>,Place,,,,,1,,,,,,,o
52,23,Presentation,1,00919960620fa_sunapmfmzadmosuogaz.jpg,00760960620fa_sunaffstbkappprzxnv.jpg,00919960620fa.jpg,sunapmfmzadmosuogaz.jpg,00760960620fa.jpg,sunaffstbkappprzxnv.jpg,,,<,Place,,,,,1,,,,,,,x
53,23,Presentation,1,00795941205fa_sunagtumacdlmciqamz.jpg,00858940307fa_sunaixpqndlwhwjtjek.jpg,00795941205fa.jpg,sunagtumacdlmciqamz.jpg,00858940307fa.jpg,sunaixpqndlwhwjtjek.jpg,,,>,Place,,,,,1,,,,,,,o
54,23,Presentation,1,01005960627fa_sunbwyuesflwdpqtgoy.jpg,00097931230fa_sunaajayojuslbbnneg.jpg,01005960627fa.jpg,sunbwyuesflwdpqtgoy.jpg,00097931230fa.jpg,sunaajayojuslbbnneg.jpg,,,<,Place,,,,,1,,,,,,,o
55,23,Presentation,1,00262940128fa_sunabizydfotqddlnjp.jpg,00929960627fa_sunaprnrbmgkomdbchr.jpg,00262940128fa.jpg,sunabizydfotqddlnjp.jpg,00929960627fa.jpg,sunaprnrbmgkomdbchr.jpg,,,>,Face,,,,,1,,,,,,,o
56,23,Presentation,1,00818940307fa_sunahpblecxtmuzkmxb.jpg,00925960627fa_sunapqwnqzxlsfvgsjm.jpg,00818940307fa.jpg,sunahpblecxtmuzkmxb.jpg,00925960627fa.jpg,sunapqwnqzxlsfvgsjm.jpg,,,<,Place,,,,,1,,,,,,,o
57,23,Presentation,1,00743941201fa_sunaeoghzrjarigmwua.jpg,00210940128fb_sunabanoxjtqxamkucc.jpg,00743941201fa.jpg,sunaeoghzrjarigmwua.jpg,00210940128fb.jpg,sunabanoxjtqxamkucc.jpg,,,<,Face,,,,,1,,,,,,,x
58,23,Presentation,1,00841940307fa_sunaisiwfgppimtnmxl.jpg,00987960627fa_sunbloeoiozwjjsiamp.jpg,00841940307fa.jpg,sunaisiwfgppimtnmxl.jpg,00987960627fa.jpg,sunbloeoiozwjjsiamp.jpg,,,>,Face,,,,,1,,,,,,,o
59,23,Presentation,1,00894960620fa_sunalqmfgeadpqsyzpd.jpg,00949960627fb_sunasnqkkyhilqkxiqm.jpg,00894960620fa.jpg,sunalqmfgeadpqsyzpd.jpg,00949960627fb.jpg,sunasnqkkyhilqkxiqm.jpg,,,>,Face,,,,,1,,,,,,,x
60,23,Memory,1,,,,,,,sunbtpilbhhbmhmeuzq.jpg,,,,,,,,,,,,,,,
61,23,Memory,1,,,,,,,sunaeuvjbmdpknaqqaj.jpg,,,,,,,,,,,,,,,
62,23,Memory,1,,,,,,,sunabanoxjtqxamkucc.jpg,,,,,,,,,,,,,,,
63,23,Memory,1,,,,,,,sunbmaiocftdtvnzgap.jpg,,,,,,,,,,,,,,,
64,23,Memory,1,,,,,,,sunaixpqndlwhwjtjek.jpg,,,,,,,,,,,,,,,
65,23,Memory,1,,,,,,,00996960627fa.jpg,,,,,,,,,,,,,,,
66,23,Memory,1,,,,,,,00943960627fa.jpg,,,,,,,,,,,,,,,
67,23,Memory,1,,,,,,,00988960627fa.jpg,,,,,,,,,,,,,,,
68,23,Memory,1,,,,,,,00894960620fa.jpg,,,,,,,,,,,,,,,
69,23,Memory,1,,,,,,,00987960627fa.jpg,,,,,,,,,,,,,,,
70,23,Memory,1,,,,,,,sunabwmcbaxwioksdgw.jpg,,,,,,,,,,,,,,,
71,23,Memory,1,,,,,,,00804960530fa.jpg,,,,,,,,,,,,,,,
72,23,Memory,1,,,,,,,00749941201fa.jpg,,,,,,,,,,,,,,,
73,23,Memory,1,,,,,,,00221940128fa.jpg,,,,,,,,,,,,,,,
74,23,Memory,1,,,,,,,00997960627fa.jpg,,,,,,,,,,,,,,,
75,23,Memory,1,,,,,,,sunbloeoiozwjjsiamp.jpg,,,,,,,,,,,,,,,
76,23,Memory,1,,,,,,,00841940307fa.jpg,,,,,,,,,,,,,,,
77,23,Memory,1,,,,,,,00949960627fb.jpg,,,,,,,,,,,,,,,
78,23,Memory,1,,,,,,,sunaffstbkappprzxnv.jpg,,,,,,,,,,,,,,,
79,23,Memory,1,,,,,,,sunasnqkkyhilqkxiqm.jpg,,,,,,,,,,,,,,,
80,23,Memory,1,,,,,,,00760960620fa.jpg,,,,,,,,,,,,,,,
81,23,Memory,1,,,,,,,00763941205fa.jpg,,,,,,,,,,,,,,,
82,23,Memory,1,,,,,,,sunaanlwnpqndclffxt.jpg,,,,,,,,,,,,,,,
83,23,Memory,1,,,,,,,00262940128fa.jpg,,,,,,,,,,,,,,,
84,23,Memory,1,,,,,,,sunacdnquypmsshhsbk.jpg,,,,,,,,,,,,,,,
85,23,Memory,1,,,,,,,00743941201fa.jpg,,,,,,,,,,,,,,,
86,23,Memory,1,,,,,,,00133931230fa.jpg,,,,,,,,,,,,,,,
87,23,Memory,1,,,,,,,sunalqmfgeadpqsyzpd.jpg,,,,,,,,,,,,,,,
88,23,Memory,1,,,,,,,00210940128fb.jpg,,,,,,,,,,,,,,,
89,23,Memory,1,,,,,,,sunafhmnhsdurlvddpw.jpg,,,,,,,,,,,,,,,
90,23,Memory,1,,,,,,,sunaisiwfgppimtnmxl.jpg,,,,,,,,,,,,,,,
91,23,Memory,1,,,,,,,00858940307fa.jpg,,,,,,,,,,,,,,,
92,23,Memory,1,,,,,,,sunagwswhkvnsmuszlz.jpg,,,,,,,,,,,,,,,
93,23,Memory,1,,,,,,,sunaeoghzrjarigmwua.jpg,,,,,,,,,,,,,,,
94,23,Memory,1,,,,,,,sunabizydfotqddlnjp.jpg,,,,,,,,,,,,,,,
95,23,Memory,1,,,,,,,sunarpsxqkduedrrzyi.jpg,,,,,,,,,,,,,,,
96,23,Memory,1,,,,,,,sunabcfpwlpolnutyju.jpg,,,,,,,,,,,,,,,
97,23,Memory,1,,,,,,,sunbpvgllfdejxcpjqp.jpg,,,,,,,,,,,,,,,
98,23,Memory,1,,,,,,,00540940519fa.jpg,,,,,,,,,,,,,,,
99,23,Memory,1,,,,,,,00314940422fa.jpg,,,,,,,,,,,,,,,
100,23,Presentation,2,00481940519fa_sunabxsuqbleluwczoy.jpg,00111931230fb_sunaakgekhjklxmvulj.jpg,00481940519fa.jpg,sunabxsuqbleluwczoy.jpg,00111931230fb.jpg,sunaakgekhjklxmvulj.jpg,,,>,Place,,,,,1,,,,,,,o
101,23,Presentation,2,00727941205fa_sunaeisnjeetzmkbuad.jpg,00313940422fa_sunabwjvmoaddlyxfjr.jpg,00727941205fa.jpg,sunaeisnjeetzmkbuad.jpg,00313940422fa.jpg,sunabwjvmoaddlyxfjr.jpg,,,<,Place,,,,,1,,,,,,,x
102,23,Presentation,2,00719960620fa_sunadzuvtmtmgupotmf.jpg,00227940128fa_sunabckqabszusgcykj.jpg,00719960620fa.jpg,sunadzuvtmtmgupotmf.jpg,00227940128fa.jpg,sunabckqabszusgcykj.jpg,,,>,Face,,,,,1,,,,,,,x
103,23,Presentation,2,00730960620fa_sunaekgzpfilgjxpeyq.jpg,00271940422fa_sunabmbnddafmywtjjj.jpg,00730960620fa.jpg,sunaekgzpfilgjxpeyq.jpg,00271940422fa.jpg,sunabmbnddafmywtjjj.jpg,,,>,Place,,,,,1,,,,,,,x
104,23,Presentation,2,00876960620fa_sunajwqkfsykceonyig.jpg,00952960627fa_sunathzzbcwjykldrem.jpg,00876960620fa.jpg,sunajwqkfsykceonyig.jpg,00952960627fa.jpg,sunathzzbcwjykldrem.jpg,,,<,Place,,,,,1,,,,,,,o
105,23,Presentation,2,00969960627fa_sunbaoizrfijvhpnnjn.jpg,00797960620fa_sunagufzbeteqdjxais.jpg,00969960627fa.jpg,sunbaoizrfijvhpnnjn.jpg,00797960620fa.jpg,sunagufzbeteqdjxais.jpg,,,<,Face,,,,,1,,,,,,,x
106,23,Presentation,2,00938960627fa_sunaqyylsngywqzwfmx.jpg,00265940128fb_sunabkmdplkdbvxriff.jpg,00938960627fa.jpg,sunaqyylsngywqzwfmx.jpg,00265940128fb.jpg,sunabkmdplkdbvxriff.jpg,,,>,Face,,,,,1,,,,,,,o
107,23,Presentation,2,00126931230fb_sunaamdjwemxpmmtypi.jpg,00559940519fa_sunacjkmnpawfzbyvae.jpg,00126931230fb.jpg,sunaamdjwemxpmmtypi.jpg,00559940519fa.jpg,sunacjkmnpawfzbyvae.jpg,,,<,Face,,,,,1,,,,,,,o
108,23,Presentation,2,01007960627fa_sunbxarcshsnqsefemx.jpg,00483940519fa_sunabyvpwkgsjtijdwj.jpg,01007960627fa.jpg,sunbxarcshsnqsefemx.jpg,00483940519fa.jpg,sunabyvpwkgsjtijdwj.jpg,,,>,Face,,,,,1,,,,,,,o
109,23,Presentation,2,00505960627fa_sunabzuqsrgcsonqlkz.jpg,00901960530fa_sunammbnoambmhdxdwd.jpg,00505960627fa.jpg,sunabzuqsrgcsonqlkz.jpg,00901960530fa.jpg,sunammbnoambmhdxdwd.jpg,,,<,Place,,,,,1,,,,,,,o
110,23,Memory,2,,,,,,,sunaloffvbvysigxent.jpg,,,,,,,,,,,,,,,
111,23,Memory,2,,,,,,,00481940519fa.jpg,,,,,,,,,,,,,,,
112,23,Memory,2,,,,,,,sunagsiwrmuixqgdimb.jpg,,,,,,,,,,,,,,,
113,23,Memory,2,,,,,,,00265940128fb.jpg,,,,,,,,,,,,,,,
114,23,Memory,2,,,,,,,00969960627fa.jpg,,,,,,,,,,,,,,,
115,23,Memory,2,,,,,,,00144931230fb.jpg,,,,,,,,,,,,,,,
116,23,Memory,2,,,,,,,sunaakgekhjklxmvulj.jpg,,,,,,,,,,,,,,,
117,23,Memory,2,,,,,,,00111931230fb.jpg,,,,,,,,,,,,,,,
118,23,Memory,2,,,,,,,sunabcuurugvxwparpk.jpg,,,,,,,,,,,,,,,
119,23,Memory,2,,,,,,,00242940128fa.jpg,,,,,,,,,,,,,,,
120,23,Memory,2,,,,,,,sunabkmdplkdbvxriff.jpg,,,,,,,,,,,,,,,
121,23,Memory,2,,,,,,,00792941205fa.jpg,,,,,,,,,,,,,,,
122,23,Memory,2,,,,,,,00893960530Fa.jpg,,,,,,,,,,,,,,,
123,23,Memory,2,,,,,,,00938960627fa.jpg,,,,,,,,,,,,,,,
124,23,Memory,2,,,,,,,00785941205fa.jpg,,,,,,,,,,,,,,,
125,23,Memory,2,,,,,,,sunaatpeezlljqaxlhj.jpg,,,,,,,,,,,,,,,
126,23,Memory,2,,,,,,,sunaeisnjeetzmkbuad.jpg,,,,,,,,,,,,,,,
127,23,Memory,2,,,,,,,sunaathajvxrgptwhoj.jpg,,,,,,,,,,,,,,,
128,23,Memory,2,,,,,,,00093931230fa.jpg,,,,,,,,,,,,,,,
129,23,Memory,2,,,,,,,00810941205fa.jpg,,,,,,,,,,,,,,,
130,23,Memory,2,,,,,,,sunaahwnmtqsrhocysw.jpg,,,,,,,,,,,,,,,
131,23,Memory,2,,,,,,,00146960620fb.jpg,,,,,,,,,,,,,,,
132,23,Memory,2,,,,,,,sunaalcrrdbjgdztbiz.jpg,,,,,,,,,,,,,,,
133,23,Memory,2,,,,,,,00876960620fa.jpg,,,,,,,,,,,,,,,
134,23,Memory,2,,,,,,,sunajwqkfsykceonyig.jpg,,,,,,,,,,,,,,,
135,23,Memory,2,,,,,,,sunaglqunwuycxydmyu.jpg,,,,,,,,,,,,,,,
136,23,Memory,2,,,,,,,sunbasypfgzjtomktmu.jpg,,,,,,,,,,,,,,,
137,23,Memory,2,,,,,,,sunaqyylsngywqzwfmx.jpg,,,,,,,,,,,,,,,
138,23,Memory,2,,,,,,,sunathzzbcwjykldrem.jpg,,,,,,,,,,,,,,,
139,23,Memory,2,,,,,,,sunahctntqrunhdxhtb.jpg,,,,,,,,,,,,,,,
140,23,Memory,2,,,,,,,sunagufzbeteqdjxais.jpg,,,,,,,,,,,,,,,
141,23,Memory,2,,,,,,,00797960620fa.jpg,,,,,,,,,,,,,,,
142,23,Memory,2,,,,,,,sunabxsuqbleluwczoy.jpg,,,,,,,,,,,,,,,
143,23,Memory,2,,,,,,,00952960627fa.jpg,,,,,,,,,,,,,,,
144,23,Memory,2,,,,,,,00970960627fa.jpg,,,,,,,,,,,,,,,
145,23,Memory,2,,,,,,,00727941205fa.jpg,,,,,,,,,,,,,,,
146,23,Memory,2,,,,,,,sunbaoizrfijvhpnnjn.jpg,,,,,,,,,,,,,,,
147,23,Memory,2,,,,,,,00123931230fb.jpg,,,,,,,,,,,,,,,
148,23,Memory,2,,,,,,,sunabckqabszusgcykj.jpg,,,,,,,,,,,,,,,
149,23,Memory,2,,,,,,,00227940128fa.jpg,,,,,,,,,,,,,,,
150,23,Presentation,3,00564941031fa_sunacsaovnjezqwbykf.jpg,00631940928fa_sunadbdqzigzwipuipr.jpg,00564941031fa.jpg,sunacsaovnjezqwbykf.jpg,00631940928fa.jpg,sunadbdqzigzwipuipr.jpg,,,<,Face,,,,,1,,,,,,,x
151,23,Presentation,3,00633940928fa_sunadbhmrgrrpyzglxs.jpg,00065931230fb_sunaaemixhfquhnxxlm.jpg,00633940928fa.jpg,sunadbhmrgrrpyzglxs.jpg,00065931230fb.jpg,sunaaemixhfquhnxxlm.jpg,,,>,Face,,,,,1,,,,,,,o
152,23,Presentation,3,00136931230fb_sunaanptmsknhirrzed.jpg,00071941031fa_sunaaexqbtdswxrqjvz.jpg,00136931230fb.jpg,sunaanptmsknhirrzed.jpg,00071941031fa.jpg,sunaaexqbtdswxrqjvz.jpg,,,>,Place,,,,,1,,,,,,,o
153,23,Presentation,3,00158931230fb_sunaavchcbptaerhcfy.jpg,00112931230fa_sunaakjaacuzulqckgl.jpg,00158931230fb.jpg,sunaavchcbptaerhcfy.jpg,00112931230fa.jpg,sunaakjaacuzulqckgl.jpg,,,>,Place,,,,,1,,,,,,,x
154,23,Presentation,3,00754941201fa_sunaffgsyyvoqdlkmnk.jpg,00895960530fa_sunamczizlzavhzhpay.jpg,00754941201fa.jpg,sunaffgsyyvoqdlkmnk.jpg,00895960530fa.jpg,sunamczizlzavhzhpay.jpg,,,>,Place,,,,,1,,,,,,,o
155,23,Presentation,3,00937960627fa_sunaqsolmfydodnakub.jpg,00999960627fa_sunbvbrvgbpanfrawft.jpg,00937960627fa.jpg,sunaqsolmfydodnakub.jpg,00999960627fa.jpg,sunbvbrvgbpanfrawft.jpg,,,<,Place,,,,,1,,,,,,,o
156,23,Presentation,3,00149931230fa_sunaauglwmctnkxyird.jpg,00973960627fa_sunbbgtoeuzierkkajt.jpg,00149931230fa.jpg,sunaauglwmctnkxyird.jpg,00973960627fa.jpg,sunbbgtoeuzierkkajt.jpg,,,<,Place,,,,,1,,,,,,,o
157,23,Presentation,3,00787960620fa_sunagoufulkpsxrmklt.jpg,00884960530fa_sunakodkcslgqhqlgwl.jpg,00787960620fa.jpg,sunagoufulkpsxrmklt.jpg,00884960530fa.jpg,sunakodkcslgqhqlgwl.jpg,,,<,Face,,,,,1,,,,,,,o
158,23,Presentation,3,00308940422fb_sunabwfvcqqidycwypa.jpg,00761960627fa_sunafgdqbclkwfocdhg.jpg,00308940422fb.jpg,sunabwfvcqqidycwypa.jpg,00761960627fa.jpg,sunafgdqbclkwfocdhg.jpg,,,>,Face,,,,,1,,,,,,,x
159,23,Presentation,3,00787941205fa_sunagmwxxwymwojbvgi.jpg,00142931230fb_sunaapxkpvrhpjplsok.jpg,00787941205fa.jpg,sunagmwxxwymwojbvgi.jpg,00142931230fb.jpg,sunaapxkpvrhpjplsok.jpg,,,<,Face,,,,,1,,,,,,,o
160,23,Memory,3,,,,,,,sunaapxkpvrhpjplsok.jpg,,,,,,,,,,,,,,,
161,23,Memory,3,,,,,,,00124931230fa.jpg,,,,,,,,,,,,,,,
162,23,Memory,3,,,,,,,sunaavchcbptaerhcfy.jpg,,,,,,,,,,,,,,,
163,23,Memory,3,,,,,,,sunagfvluwixdsozaql.jpg,,,,,,,,,,,,,,,
164,23,Memory,3,,,,,,,sunagjzcrjvmxzqzljx.jpg,,,,,,,,,,,,,,,
165,23,Memory,3,,,,,,,sunbgzjryivyczuvkvm.jpg,,,,,,,,,,,,,,,
166,23,Memory,3,,,,,,,00776941205fa.jpg,,,,,,,,,,,,,,,
167,23,Memory,3,,,,,,,sunagmwxxwymwojbvgi.jpg,,,,,,,,,,,,,,,
168,23,Memory,3,,,,,,,sunaaexqbtdswxrqjvz.jpg,,,,,,,,,,,,,,,
169,23,Memory,3,,,,,,,sunaalhlvzmjmitybdn.jpg,,,,,,,,,,,,,,,
170,23,Memory,3,,,,,,,00112931230fa.jpg,,,,,,,,,,,,,,,
171,23,Memory,3,,,,,,,00937960627fa.jpg,,,,,,,,,,,,,,,
172,23,Memory,3,,,,,,,sunaauglwmctnkxyird.jpg,,,,,,,,,,,,,,,
173,23,Memory,3,,,,,,,sunagoufulkpsxrmklt.jpg,,,,,,,,,,,,,,,
174,23,Memory,3,,,,,,,00986960627fa.jpg,,,,,,,,,,,,,,,
175,23,Memory,3,,,,,,,00787941205fa.jpg,,,,,,,,,,,,,,,
176,23,Memory,3,,,,,,,00700941121fa.jpg,,,,,,,,,,,,,,,
177,23,Memory,3,,,,,,,sunavxokzybtomhbmvm.jpg,,,,,,,,,,,,,,,
178,23,Memory,3,,,,,,,sunaqsolmfydodnakub.jpg,,,,,,,,,,,,,,,
179,23,Memory,3,,,,,,,00784941205fb.jpg,,,,,,,,,,,,,,,
180,23,Memory,3,,,,,,,00959960627fa.jpg,,,,,,,,,,,,,,,
181,23,Memory,3,,,,,,,00071941031fa.jpg,,,,,,,,,,,,,,,
182,23,Memory,3,,,,,,,00973960627fa.jpg,,,,,,,,,,,,,,,
183,23,Memory,3,,,,,,,00787960620fa.jpg,,,,,,,,,,,,,,,
184,23,Memory,3,,,,,,,sunafxokyavhgptyfye.jpg,,,,,,,,,,,,,,,
185,23,Memory,3,,,,,,,sunaakjaacuzulqckgl.jpg,,,,,,,,,,,,,,,
186,23,Memory,3,,,,,,,sunbwaafjdebjzttuvq.jpg,,,,,,,,,,,,,,,
187,23,Memory,3,,,,,,,00149931230fa.jpg,,,,,,,,,,,,,,,
188,23,Memory,3,,,,,,,00158931230fb.jpg,,,,,,,,,,,,,,,
189,23,Memory,3,,,,,,,00065931230fb.jpg,,,,,,,,,,,,,,,
190,23,Memory,3,,,,,,,sunahuynahneraqftyz.jpg,,,,,,,,,,,,,,,
191,23,Memory,3,,,,,,,00185940422fb.jpg,,,,,,,,,,,,,,,
192,23,Memory,3,,,,,,,00782941205fa.jpg,,,,,,,,,,,,,,,
193,23,Memory,3,,,,,,,sunaawqdbpihmlbwyyn.jpg,,,,,,,,,,,,,,,
194,23,Memory,3,,,,,,,sunaaemixhfquhnxxlm.jpg,,,,,,,,,,,,,,,
195,23,Memory,3,,,,,,,00828940307fa.jpg,,,,,,,,,,,,,,,
196,23,Memory,3,,,,,,,sunbbgtoeuzierkkajt.jpg,,,,,,,,,,,,,,,
197,23,Memory,3,,,,,,,00142931230fb.jpg,,,,,,,,,,,,,,,
198,23,Memory,3,,,,,,,01002960627fb.jpg,,,,,,,,,,,,,,,
199,23,Memory,3,,,,,,,sunadsgmtznewzyasnk.jpg,,,,,,,,,,,,,,,
200,23,Presentation,4,00857940307fa_sunaiwfobocrruqznsv.jpg,00705941205fa_sunadtlxenqqxsyjvix.jpg,00857940307fa.jpg,sunaiwfobocrruqznsv.jpg,00705941205fa.jpg,sunadtlxenqqxsyjvix.jpg,,,<,Place,,,,,1,,,,,,,x
201,23,Presentation,4,00131931230fb_sunaangbuylfvckqqoo.jpg,00635941031fa_sunaddsaeicthrfbkhe.jpg,00131931230fb.jpg,sunaangbuylfvckqqoo.jpg,00635941031fa.jpg,sunaddsaeicthrfbkhe.jpg,,,<,Face,,,,,1,,,,,,,x
202,23,Presentation,4,00140931230fb_sunaapllqyqlykszopd.jpg,00957960627fa_sunavhxgmgrqsaptynb.jpg,00140931230fb.jpg,sunaapllqyqlykszopd.jpg,00957960627fa.jpg,sunavhxgmgrqsaptynb.jpg,,,>,Place,,,,,1,,,,,,,x
203,23,Presentation,4,00095931230fa_sunaahzooisqkwlxwoz.jpg,00705960530fa_sunaduslxfzlbxlllnz.jpg,00095931230fa.jpg,sunaahzooisqkwlxwoz.jpg,00705960530fa.jpg,sunaduslxfzlbxlllnz.jpg,,,>,Face,,,,,0,,,,,,,o
204,23,Presentation,4,00263940128fb_sunabjuovqvyfuzvqwt.jpg,00267940128fb_sunablfqiwfqomjarht.jpg,00263940128fb.jpg,sunabjuovqvyfuzvqwt.jpg,00267940128fb.jpg,sunablfqiwfqomjarht.jpg,,,>,Place,,,,,1,,,,,,,x
205,23,Presentation,4,00129931230fb_sunaamsdyakblkfoydx.jpg,00116931230fa_sunaakqepfoeqomfgxf.jpg,00129931230fb.jpg,sunaamsdyakblkfoydx.jpg,00116931230fa.jpg,sunaakqepfoeqomfgxf.jpg,,,>,Face,,,,,0,,,,,,,x
206,23,Presentation,4,00098931230fa_sunaajpqmulidejvjsr.jpg,00773941201fa_sunafvcflzhlqloapyo.jpg,00098931230fa.jpg,sunaajpqmulidejvjsr.jpg,00773941201fa.jpg,sunafvcflzhlqloapyo.jpg,,,>,Place,,,,,1,,,,,,,x
207,23,Presentation,4,01207940128fa_sundbixjudsgeuuehrn.jpg,00564940928fa_sunacmpqqfbsvlzinzl.jpg,01207940128fa.jpg,sundbixjudsgeuuehrn.jpg,00564940928fa.jpg,sunacmpqqfbsvlzinzl.jpg,,,<,Face,,,,,1,,,,,,,x
208,23,Presentation,4,00302940422fa_sunabtlfmiwtljmoues.jpg,00507940519fa_sunacacflqoyxhsqzhe.jpg,00302940422fa.jpg,sunabtlfmiwtljmoues.jpg,00507940519fa.jpg,sunacacflqoyxhsqzhe.jpg,,,<,Face,,,,,1,,,,,,,o
209,23,Presentation,4,00958960627fa_sunavspxmxubqaeidjt.jpg,00812941205fa_sunahgtbwgsmtqeodwh.jpg,00958960627fa.jpg,sunavspxmxubqaeidjt.jpg,00812941205fa.jpg,sunahgtbwgsmtqeodwh.jpg,,,<,Place,,,,,1,,,,,,,o
210,23,Memory,4,,,,,,,00264940128fb.jpg,,,,,,,,,,,,,,,
211,23,Memory,4,,,,,,,00859940307fa.jpg,,,,,,,,,,,,,,,
212,23,Memory,4,,,,,,,sunaahzooisqkwlxwoz.jpg,,,,,,,,,,,,,,,
213,23,Memory,4,,,,,,,00636941031fa.jpg,,,,,,,,,,,,,,,
214,23,Memory,4,,,,,,,sunaeomlfaabhpswasy.jpg,,,,,,,,,,,,,,,
215,23,Memory,4,,,,,,,sunaddtdkycxbqlpfqa.jpg,,,,,,,,,,,,,,,
216,23,Memory,4,,,,,,,sunadakkdovnuzlycvp.jpg,,,,,,,,,,,,,,,
217,23,Memory,4,,,,,,,00507940519fa.jpg,,,,,,,,,,,,,,,
218,23,Memory,4,,,,,,,sunakwlvxjpddialozd.jpg,,,,,,,,,,,,,,,
219,23,Memory,4,,,,,,,sunachtuarilwyqnvjx.jpg,,,,,,,,,,,,,,,
220,23,Memory,4,,,,,,,00095931230fa.jpg,,,,,,,,,,,,,,,
221,23,Memory,4,,,,,,,sunaakxgygjfqrzpyoz.jpg,,,,,,,,,,,,,,,
222,23,Memory,4,,,,,,,sunacacflqoyxhsqzhe.jpg,,,,,,,,,,,,,,,
223,23,Memory,4,,,,,,,00635941031fa.jpg,,,,,,,,,,,,,,,
224,23,Memory,4,,,,,,,sunahgtbwgsmtqeodwh.jpg,,,,,,,,,,,,,,,
225,23,Memory,4,,,,,,,sunabtlfmiwtljmoues.jpg,,,,,,,,,,,,,,,
226,23,Memory,4,,,,,,,00120931230fa.jpg,,,,,,,,,,,,,,,
227,23,Memory,4,,,,,,,sunabjzyxcjnmztdonj.jpg,,,,,,,,,,,,,,,
228,23,Memory,4,,,,,,,sunajrgtewnualfcerj.jpg,,,,,,,,,,,,,,,
229,23,Memory,4,,,,,,,00857940307fa.jpg,,,,,,,,,,,,,,,
230,23,Memory,4,,,,,,,00302940422fa.jpg,,,,,,,,,,,,,,,
231,23,Memory,4,,,,,,,00744941201fa.jpg,,,,,,,,,,,,,,,
232,23,Memory,4,,,,,,,sunacmpqqfbsvlzinzl.jpg,,,,,,,,,,,,,,,
233,23,Memory,4,,,,,,,sunaangbuylfvckqqoo.jpg,,,,,,,,,,,,,,,
234,23,Memory,4,,,,,,,sunaiwfobocrruqznsv.jpg,,,,,,,,,,,,,,,
235,23,Memory,4,,,,,,,00812941205fa.jpg,,,,,,,,,,,,,,,
236,23,Memory,4,,,,,,,00131931230fb.jpg,,,,,,,,,,,,,,,
237,23,Memory,4,,,,,,,00557940519fa.jpg,,,,,,,,,,,,,,,
238,23,Memory,4,,,,,,,00116931230fa.jpg,,,,,,,,,,,,,,,
239,23,Memory,4,,,,,,,00885960530fa.jpg,,,,,,,,,,,,,,,
240,23,Memory,4,,,,,,,00630941031fa.jpg,,,,,,,,,,,,,,,
241,23,Memory,4,,,,,,,00147931230fb.jpg,,,,,,,,,,,,,,,
242,23,Memory,4,,,,,,,00870940307fa.jpg,,,,,,,,,,,,,,,
243,23,Memory,4,,,,,,,sunaakqepfoeqomfgxf.jpg,,,,,,,,,,,,,,,
244,23,Memory,4,,,,,,,sunaddsaeicthrfbkhe.jpg,,,,,,,,,,,,,,,
245,23,Memory,4,,,,,,,sunavspxmxubqaeidjt.jpg,,,,,,,,,,,,,,,
246,23,Memory,4,,,,,,,sunaiycurtqsfkvcaso.jpg,,,,,,,,,,,,,,,
247,23,Memory,4,,,,,,,sunaatpkocdkocwxpkb.jpg,,,,,,,,,,,,,,,
248,23,Memory,4,,,,,,,00958960627fa.jpg,,,,,,,,,,,,,,,
249,23,Memory,4,,,,,,,00564940928fa.jpg,,,,,,,,,,,,,,,
250,23,Presentation,5,00218940128fa_sunabbwggenhfbftyvi.jpg,00482940519fa_sunabyfxcxhdebvdyfd.jpg,00218940128fa.jpg,sunabbwggenhfbftyvi.jpg,00482940519fa.jpg,sunabyfxcxhdebvdyfd.jpg,,,<,Face,,,,,0,,,,,,,x
251,23,Presentation,5,00751960620fa_sunaezuszgtxnmsxdbk.jpg,00102931230fa_sunaajspcoepticvplv.jpg,00751960620fa.jpg,sunaezuszgtxnmsxdbk.jpg,00102931230fa.jpg,sunaajspcoepticvplv.jpg,,,>,Face,,,,,1,,,,,,,x
252,23,Presentation,5,00292940422fb_sunabrjdpmoedcdjbpo.jpg,00080931230fb_sunaafjszryxyavjzln.jpg,00292940422fb.jpg,sunabrjdpmoedcdjbpo.jpg,00080931230fb.jpg,sunaafjszryxyavjzln.jpg,,,>,Place,,,,,1,,,,,,,x
253,23,Presentation,5,00838940307fa_sunaiozxhxgtfrmoagh.jpg,00874940307fa_sunajtrfunvzdfticna.jpg,00838940307fa.jpg,sunaiozxhxgtfrmoagh.jpg,00874940307fa.jpg,sunajtrfunvzdfticna.jpg,,,<,Face,,,,,1,,,,,,,o
254,23,Presentation,5,00090931230fa_sunaahedjlmtqekgyvj.jpg,00878960530fa_sunakgbnzxmfohgehnu.jpg,00090931230fa.jpg,sunaahedjlmtqekgyvj.jpg,00878960530fa.jpg,sunakgbnzxmfohgehnu.jpg,,,>,Face,,,,,1,,,,,,,o
255,23,Presentation,5,00882960530fa_sunaknlirqjqiwbbeeg.jpg,00725941201fa_sunaefgzwiramypjvtd.jpg,00882960530fa.jpg,sunaknlirqjqiwbbeeg.jpg,00725941201fa.jpg,sunaefgzwiramypjvtd.jpg,,,<,Place,,,,,1,,,,,,,x
256,23,Presentation,5,00479940519fa_sunabxsbfwjccqxxzxq.jpg,00968960627fa_sunbagfpovqwbuexqdn.jpg,00479940519fa.jpg,sunabxsbfwjccqxxzxq.jpg,00968960627fa.jpg,sunbagfpovqwbuexqdn.jpg,,,>,Place,,,,,1,,,,,,,x
257,23,Presentation,5,00868960307fa_sunajjxttslobudoqbv.jpg,00771941205fa_sunafowswglhxcsufpo.jpg,00868960307fa.jpg,sunajjxttslobudoqbv.jpg,00771941205fa.jpg,sunafowswglhxcsufpo.jpg,,,>,Face,,,,,1,,,,,,,x
258,23,Presentation,5,00944960627fa_sunasbbntuiheekqyaq.jpg,00971960627fa_sunbbegcweqnetpdlrh.jpg,00944960627fa.jpg,sunasbbntuiheekqyaq.jpg,00971960627fa.jpg,sunbbegcweqnetpdlrh.jpg,,,<,Place,,,,,1,,,,,,,x
259,23,Presentation,5,00979960627fa_sunbdycacjfaujxitbw.jpg,00198940128fb_sunaazezcsunmhttzxz.jpg,00979960627fa.jpg,sunbdycacjfaujxitbw.jpg,00198940128fb.jpg,sunaazezcsunmhttzxz.jpg,,,<,Place,,,,,1,,,,,,,x
260,23,Memory,5,,,,,,,00874940307fa.jpg,,,,,,,,,,,,,,,
261,23,Memory,5,,,,,,,sunbprywzqxjcezkbch.jpg,,,,,,,,,,,,,,,
262,23,Memory,5,,,,,,,sunawotxrevnqvamsfp.jpg,,,,,,,,,,,,,,,
263,23,Memory,5,,,,,,,sunaafjszryxyavjzln.jpg,,,,,,,,,,,,,,,
264,23,Memory,5,,,,,,,00933960627fa.jpg,,,,,,,,,,,,,,,
265,23,Memory,5,,,,,,,sunaahedjlmtqekgyvj.jpg,,,,,,,,,,,,,,,
266,23,Memory,5,,,,,,,sunbpflsdaxnddnwcqi.jpg,,,,,,,,,,,,,,,
267,23,Memory,5,,,,,,,sunajjxttslobudoqbv.jpg,,,,,,,,,,,,,,,
268,23,Memory,5,,,,,,,sunaazezcsunmhttzxz.jpg,,,,,,,,,,,,,,,
269,23,Memory,5,,,,,,,sunapwjkcxdaeqehfql.jpg,,,,,,,,,,,,,,,
270,23,Memory,5,,,,,,,00479940519fa.jpg,,,,,,,,,,,,,,,
271,23,Memory,5,,,,,,,00822940307fa.jpg,,,,,,,,,,,,,,,
272,23,Memory,5,,,,,,,sunabasphceswhwwqvv.jpg,,,,,,,,,,,,,,,
273,23,Memory,5,,,,,,,00990960627fa.jpg,,,,,,,,,,,,,,,
274,23,Memory,5,,,,,,,sunaezuszgtxnmsxdbk.jpg,,,,,,,,,,,,,,,
275,23,Memory,5,,,,,,,sunajawzbrlrwafowen.jpg,,,,,,,,,,,,,,,
276,23,Memory,5,,,,,,,sunaefgzwiramypjvtd.jpg,,,,,,,,,,,,,,,
277,23,Memory,5,,,,,,,sunaccdtpgenvcbcbcf.jpg,,,,,,,,,,,,,,,
278,23,Memory,5,,,,,,,00780960530fa.jpg,,,,,,,,,,,,,,,
279,23,Memory,5,,,,,,,00532960627fa.jpg,,,,,,,,,,,,,,,
280,23,Memory,5,,,,,,,00145931230fb.jpg,,,,,,,,,,,,,,,
281,23,Memory,5,,,,,,,00198940128fb.jpg,,,,,,,,,,,,,,,
282,23,Memory,5,,,,,,,sunabxsbfwjccqxxzxq.jpg,,,,,,,,,,,,,,,
283,23,Memory,5,,,,,,,00725941201fa.jpg,,,,,,,,,,,,,,,
284,23,Memory,5,,,,,,,00838940307fa.jpg,,,,,,,,,,,,,,,
285,23,Memory,5,,,,,,,sunahqrxievfeusiqlt.jpg,,,,,,,,,,,,,,,
286,23,Memory,5,,,,,,,sunaiozxhxgtfrmoagh.jpg,,,,,,,,,,,,,,,
287,23,Memory,5,,,,,,,sunbbegcweqnetpdlrh.jpg,,,,,,,,,,,,,,,
288,23,Memory,5,,,,,,,00868960307fa.jpg,,,,,,,,,,,,,,,
289,23,Memory,5,,,,,,,00751960620fa.jpg,,,,,,,,,,,,,,,
290,23,Memory,5,,,,,,,00971960627fa.jpg,,,,,,,,,,,,,,,
291,23,Memory,5,,,,,,,sunaatjesvdupctftmn.jpg,,,,,,,,,,,,,,,
292,23,Memory,5,,,,,,,00090931230fa.jpg,,,,,,,,,,,,,,,
293,23,Memory,5,,,,,,,00864940307fa.jpg,,,,,,,,,,,,,,,
294,23,Memory,5,,,,,,,00211940128fa.jpg,,,,,,,,,,,,,,,
295,23,Memory,5,,,,,,,00080931230fb.jpg,,,,,,,,,,,,,,,
296,23,Memory,5,,,,,,,sunajtrfunvzdfticna.jpg,,,,,,,,,,,,,,,
297,23,Memory,5,,,,,,,00993960627fa.jpg,,,,,,,,,,,,,,,
298,23,Memory,5,,,,,,,00961960627fa.jpg,,,,,,,,,,,,,,,
299,23,Memory,5,,,,,,,sunagetqixeypsysbpn.jpg,,,,,,,,,,,,,,,
300,23,Presentation,6,00950960627fa_sunasrjlmglmjzbmqxb.jpg,00752960620fa_sunafbwnojpqeyzssoe.jpg,00950960627fa.jpg,sunasrjlmglmjzbmqxb.jpg,00752960620fa.jpg,sunafbwnojpqeyzssoe.jpg,,,<,Place,,,,,1,,,,,,,x
301,23,Presentation,6,00060931230fa_sunaaehaikpckyjsety.jpg,00081941031fa_sunaaftlyfudyzuhqzf.jpg,00060931230fa.jpg,sunaaehaikpckyjsety.jpg,00081941031fa.jpg,sunaaftlyfudyzuhqzf.jpg,,,<,Place,,,,,1,,,,,,,x
302,23,Presentation,6,00086931230fa_sunaafynehyrzpsoaml.jpg,00130931230fa_sunaamvxnvouicstkjb.jpg,00086931230fa.jpg,sunaafynehyrzpsoaml.jpg,00130931230fa.jpg,sunaamvxnvouicstkjb.jpg,,,<,Face,,,,,0,,,,,,,o
303,23,Presentation,6,00762941201fa_sunafgzgbisbopcyslr.jpg,00108960530fa_sunaajtnvzzpsjdzres.jpg,00762941201fa.jpg,sunafgzgbisbopcyslr.jpg,00108960530fa.jpg,sunaajtnvzzpsjdzres.jpg,,,>,Face,,,,,1,,,,,,,x
304,23,Presentation,6,00816941205fa_sunahmhrncocyhsjpxk.jpg,00119931230fb_sunaakvmbftkrgqhjun.jpg,00816941205fa.jpg,sunahmhrncocyhsjpxk.jpg,00119931230fb.jpg,sunaakvmbftkrgqhjun.jpg,,,<,Face,,,,,1,,,,,,,x
305,23,Presentation,6,00794960620fa_sunagtqhhwxjeuxdebe.jpg,00270940422fb_sunabllobxadqcyttej.jpg,00794960620fa.jpg,sunagtqhhwxjeuxdebe.jpg,00270940422fb.jpg,sunabllobxadqcyttej.jpg,,,>,Face,,,,,1,,,,,,,o
306,23,Presentation,6,00634940928fa_sunadcphrizvfpljiqt.jpg,00936960627fa_sunaqgjuuwvdcyiccjt.jpg,00634940928fa.jpg,sunadcphrizvfpljiqt.jpg,00936960627fa.jpg,sunaqgjuuwvdcyiccjt.jpg,,,<,Place,,,,,1,,,,,,,x
307,23,Presentation,6,00871940307_sunajrujcsdxmfbssmc.jpg,00909960530_sunaobtizabegtwfwul.jpg,00871940307.jpg,sunajrujcsdxmfbssmc.jpg,00909960530.jpg,sunaobtizabegtwfwul.jpg,,,>,Face,,,,,1,,,,,,,x
308,23,Presentation,6,00082931230fa_sunaafvitpexrpvumsa.jpg,00807941205fa_sunahawfngukizslzsd.jpg,00082931230fa.jpg,sunaafvitpexrpvumsa.jpg,00807941205fa.jpg,sunahawfngukizslzsd.jpg,,,>,Place,,,,,1,,,,,,,o
309,23,Presentation,6,00115931230fa_sunaakmxzhuceuiryah.jpg,00805941205fa_sunagwzdbtlixdhgolm.jpg,00115931230fa.jpg,sunaakmxzhuceuiryah.jpg,00805941205fa.jpg,sunagwzdbtlixdhgolm.jpg,,,>,Place,,,,,1,,,,,,,o
310,23,Memory,6,,,,,,,sunabtrnbvpppgczjim.jpg,,,,,,,,,,,,,,,
311,23,Memory,6,,,,,,,00816941205fa.jpg,,,,,,,,,,,,,,,
312,23,Memory,6,,,,,,,00122931230fa.jpg,,,,,,,,,,,,,,,
313,23,Memory,6,,,,,,,00794960620fa.jpg,,,,,,,,,,,,,,,
314,23,Memory,6,,,,,,,00305940422fa.jpg,,,,,,,,,,,,,,,
315,23,Memory,6,,,,,,,sunaafgqutfaishsxyu.jpg,,,,,,,,,,,,,,,
316,23,Memory,6,,,,,,,00950960627fa.jpg,,,,,,,,,,,,,,,
317,23,Memory,6,,,,,,,sunagwzdbtlixdhgolm.jpg,,,,,,,,,,,,,,,
318,23,Memory,6,,,,,,,00915960620fa.jpg,,,,,,,,,,,,,,,
319,23,Memory,6,,,,,,,00589940928fa.jpg,,,,,,,,,,,,,,,
320,23,Memory,6,,,,,,,sunaivdjruhkrfywfed.jpg,,,,,,,,,,,,,,,
321,23,Memory,6,,,,,,,sunaflojskatpeqyzqp.jpg,,,,,,,,,,,,,,,
322,23,Memory,6,,,,,,,sunaamvxnvouicstkjb.jpg,,,,,,,,,,,,,,,
323,23,Memory,6,,,,,,,sunarceibpcyacbmfga.jpg,,,,,,,,,,,,,,,
324,23,Memory,6,,,,,,,sunacerqowiaeoqkmsq.jpg,,,,,,,,,,,,,,,
325,23,Memory,6,,,,,,,sunalkiibhqpxfamlll.jpg,,,,,,,,,,,,,,,
326,23,Memory,6,,,,,,,sunacwggadqsfpovdjv.jpg,,,,,,,,,,,,,,,
327,23,Memory,6,,,,,,,00634940928fa.jpg,,,,,,,,,,,,,,,
328,23,Memory,6,,,,,,,00081941031fa.jpg,,,,,,,,,,,,,,,
329,23,Memory,6,,,,,,,sunaakxjfbrrequcjmx.jpg,,,,,,,,,,,,,,,
330,23,Memory,6,,,,,,,00548940519fa.jpg,,,,,,,,,,,,,,,
331,23,Memory,6,,,,,,,00805941205fa.jpg,,,,,,,,,,,,,,,
332,23,Memory,6,,,,,,,00770941201fa.jpg,,,,,,,,,,,,,,,
333,23,Memory,6,,,,,,,sunadcphrizvfpljiqt.jpg,,,,,,,,,,,,,,,
334,23,Memory,6,,,,,,,00939960627fa.jpg,,,,,,,,,,,,,,,
335,23,Memory,6,,,,,,,sunaafvitpexrpvumsa.jpg,,,,,,,,,,,,,,,
336,23,Memory,6,,,,,,,sunaaftlyfudyzuhqzf.jpg,,,,,,,,,,,,,,,
337,23,Memory,6,,,,,,,sunahmhrncocyhsjpxk.jpg,,,,,,,,,,,,,,,
338,23,Memory,6,,,,,,,sunaqgjuuwvdcyiccjt.jpg,,,,,,,,,,,,,,,
339,23,Memory,6,,,,,,,sunagtqhhwxjeuxdebe.jpg,,,,,,,,,,,,,,,
340,23,Memory,6,,,,,,,00077931230fb.jpg,,,,,,,,,,,,,,,
341,23,Memory,6,,,,,,,00847940307fa.jpg,,,,,,,,,,,,,,,
342,23,Memory,6,,,,,,,00891960530fa.jpg,,,,,,,,,,,,,,,
343,23,Memory,6,,,,,,,sunapileznnbbmrwoei.jpg,,,,,,,,,,,,,,,
344,23,Memory,6,,,,,,,sunasrjlmglmjzbmqxb.jpg,,,,,,,,,,,,,,,
345,23,Memory,6,,,,,,,00270940422fb.jpg,,,,,,,,,,,,,,,
346,23,Memory,6,,,,,,,00130931230fa.jpg,,,,,,,,,,,,,,,
347,23,Memory,6,,,,,,,00936960627fa.jpg,,,,,,,,,,,,,,,
348,23,Memory,6,,,,,,,sunabllobxadqcyttej.jpg,,,,,,,,,,,,,,,
349,23,Memory,6,,,,,,,00082931230fa.jpg,,,,,,,,,,,,,,,
350,23,Presentation,7,01009960627fa_sunbxzweleltykebgan.jpg,00774941201fa_sunafvtpfczkzopbgue.jpg,01009960627fa.jpg,sunbxzweleltykebgan.jpg,00774941201fa.jpg,sunafvtpfczkzopbgue.jpg,,,<,Place,,,,,1,,,,,,,x
351,23,Presentation,7,00663941121fa_sunadnjjzohjhbohlwq.jpg,00768941205fa_sunafkmnlytenlsywia.jpg,00663941121fa.jpg,sunadnjjzohjhbohlwq.jpg,00768941205fa.jpg,sunafkmnlytenlsywia.jpg,,,>,Place,,,,,0,,,,,,,o
352,23,Presentation,7,00266940128fb_sunabkngeblodihjvbk.jpg,00694941121fa_sunadrmfzmstgdjdcod.jpg,00266940128fb.jpg,sunabkngeblodihjvbk.jpg,00694941121fa.jpg,sunadrmfzmstgdjdcod.jpg,,,<,Face,,,,,1,,,,,,,o
353,23,Presentation,7,00214940128fa_sunabbafjowbzcvbucc.jpg,00860940307fa_sunaizeyhvjzknwjudw.jpg,00214940128fa.jpg,sunabbafjowbzcvbucc.jpg,00860940307fa.jpg,sunaizeyhvjzknwjudw.jpg,,,<,Place,,,,,1,,,,,,,x
354,23,Presentation,7,00803941205fa_sunagvxkjokqimstxpe.jpg,00788941205fa_sunagountlxpzkytsmp.jpg,00803941205fa.jpg,sunagvxkjokqimstxpe.jpg,00788941205fa.jpg,sunagountlxpzkytsmp.jpg,,,<,Face,,,,,1,,,,,,,x
355,23,Presentation,7,00723941201fa_sunaedtgwjvvziytspa.jpg,00836940307fa_sunainqelldeebvxtcz.jpg,00723941201fa.jpg,sunaedtgwjvvziytspa.jpg,00836940307fa.jpg,sunainqelldeebvxtcz.jpg,,,<,Place,,,,,1,,,,,,,x
356,23,Presentation,7,00985960627fa_sunbgklxeqjhdbyfhhy.jpg,00903960620fa_sunanainkqdvktzoxyl.jpg,00985960627fa.jpg,sunbgklxeqjhdbyfhhy.jpg,00903960620fa.jpg,sunanainkqdvktzoxyl.jpg,,,>,Place,,,,,1,,,,,,,x
357,23,Presentation,7,01010960627fa_suncnkvbhypnivcohyx.jpg,00742941201fa_sunaenwuebvlpdmntju.jpg,01010960627fa.jpg,suncnkvbhypnivcohyx.jpg,00742941201fa.jpg,sunaenwuebvlpdmntju.jpg,,,>,Face,,,,,1,,,,,,,o
358,23,Presentation,7,00931960627fa_sunaptrqvaooxfvktvw.jpg,00775941205fa_sunafvwfsmqkjrutjta.jpg,00931960627fa.jpg,sunaptrqvaooxfvktvw.jpg,00775941205fa.jpg,sunafvwfsmqkjrutjta.jpg,,,>,Face,,,,,0,,,,,,,o
359,23,Presentation,7,00786941205fa_sunagmhildamktmqjss.jpg,00793941205fa_sunagtjwilqjvxohypn.jpg,00786941205fa.jpg,sunagmhildamktmqjss.jpg,00793941205fa.jpg,sunagtjwilqjvxohypn.jpg,,,>,Face,,,,,0,,,,,,,o
360,23,Memory,7,,,,,,,00214940128fa.jpg,,,,,,,,,,,,,,,
361,23,Memory,7,,,,,,,00788941205fa.jpg,,,,,,,,,,,,,,,
362,23,Memory,7,,,,,,,sunaizeyhvjzknwjudw.jpg,,,,,,,,,,,,,,,
363,23,Memory,7,,,,,,,sunagountlxpzkytsmp.jpg,,,,,,,,,,,,,,,
364,23,Memory,7,,,,,,,sunadnjjzohjhbohlwq.jpg,,,,,,,,,,,,,,,
365,23,Memory,7,,,,,,,00768941205fa.jpg,,,,,,,,,,,,,,,
366,23,Memory,7,,,,,,,00774941201fa.jpg,,,,,,,,,,,,,,,
367,23,Memory,7,,,,,,,00985960627fa.jpg,,,,,,,,,,,,,,,
368,23,Memory,7,,,,,,,00921960627fa.jpg,,,,,,,,,,,,,,,
369,23,Memory,7,,,,,,,01009960627fa.jpg,,,,,,,,,,,,,,,
370,23,Memory,7,,,,,,,sunaaheqzstzxuadglu.jpg,,,,,,,,,,,,,,,
371,23,Memory,7,,,,,,,sunaaexpnawiehinlpy.jpg,,,,,,,,,,,,,,,
372,23,Memory,7,,,,,,,sunafvtpfczkzopbgue.jpg,,,,,,,,,,,,,,,
373,23,Memory,7,,,,,,,00877960530fa.jpg,,,,,,,,,,,,,,,
374,23,Memory,7,,,,,,,00092931230fa.jpg,,,,,,,,,,,,,,,
375,23,Memory,7,,,,,,,sunaqbmgkgqucajzrkp.jpg,,,,,,,,,,,,,,,
376,23,Memory,7,,,,,,,sunapqkpqdfvxlbqwyo.jpg,,,,,,,,,,,,,,,
377,23,Memory,7,,,,,,,01004960627fa.jpg,,,,,,,,,,,,,,,
378,23,Memory,7,,,,,,,sunbwtlihsuptkrckid.jpg,,,,,,,,,,,,,,,
379,23,Memory,7,,,,,,,00071940128fa.jpg,,,,,,,,,,,,,,,
380,23,Memory,7,,,,,,,00663941121fa.jpg,,,,,,,,,,,,,,,
381,23,Memory,7,,,,,,,00723941201fa.jpg,,,,,,,,,,,,,,,
382,23,Memory,7,,,,,,,sunajxpkuhbizeveguy.jpg,,,,,,,,,,,,,,,
383,23,Memory,7,,,,,,,00983960627fa.jpg,,,,,,,,,,,,,,,
384,23,Memory,7,,,,,,,sunafkmnlytenlsywia.jpg,,,,,,,,,,,,,,,
385,23,Memory,7,,,,,,,00860940307fa.jpg,,,,,,,,,,,,,,,
386,23,Memory,7,,,,,,,sunaedtgwjvvziytspa.jpg,,,,,,,,,,,,,,,
387,23,Memory,7,,,,,,,sunagdzlvkqtpnfxfcg.jpg,,,,,,,,,,,,,,,
388,23,Memory,7,,,,,,,sunbxzweleltykebgan.jpg,,,,,,,,,,,,,,,
389,23,Memory,7,,,,,,,00836940307fa.jpg,,,,,,,,,,,,,,,
390,23,Memory,7,,,,,,,sunainqelldeebvxtcz.jpg,,,,,,,,,,,,,,,
391,23,Memory,7,,,,,,,sunafpfpiiujzoesnqg.jpg,,,,,,,,,,,,,,,
392,23,Memory,7,,,,,,,00779941205fa.jpg,,,,,,,,,,,,,,,
393,23,Memory,7,,,,,,,00280940422fb.jpg,,,,,,,,,,,,,,,
394,23,Memory,7,,,,,,,00935960627fa.jpg,,,,,,,,,,,,,,,
395,23,Memory,7,,,,,,,sunabbafjowbzcvbucc.jpg,,,,,,,,,,,,,,,
396,23,Memory,7,,,,,,,00772941201fa.jpg,,,,,,,,,,,,,,,
397,23,Memory,7,,,,,,,sunbfyvfqiimvdaxlqn.jpg,,,,,,,,,,,,,,,
398,23,Memory,7,,,,,,,sunbgklxeqjhdbyfhhy.jpg,,,,,,,,,,,,,,,
399,23,Memory,7,,,,,,,sunabohxbskznglnrhv.jpg,,,,,,,,,,,,,,,
