,Subject,Trial Type,Run,Cued Composite,Uncued Composite,Cued Face,Cued Place,Uncued Face,Uncued Place,Memory Image,Category,Cued Side,Cued Category,Attention Reaction Time (s),Familiarity Reaction Time (s),Familiarity Rating,Attention Level,Cue Validity,Post Invalid Cue,Pre Invalid Cue,Attention Button,Rating History,Stimulus Onset,Stimulus End,Attention Probe
160,23,Memory,3,,,,,,,sunaapxkpvrhpjplsok.jpg,,,,,1.169,1.0,,,,,,,1554921255.580563,1554921257.625359,
161,23,Memory,3,,,,,,,00124931230fa.jpg,,,,,0.981,1.0,,,,,,,1554921258.942284,1554921260.91091,
162,23,Memory,3,,,,,,,sunaavchcbptaerhcfy.jpg,,,,,0.815,3.0,,,,,,,1554921262.29445,1554921264.263077,
163,23,Memory,3,,,,,,,sunagfvluwixdsozaql.jpg,,,,,1.098,2.0,,,,,,,1554921265.645491,1554921267.614841,
164,23,Memory,3,,,,,,,sunagjzcrjvmxzqzljx.jpg,,,,,1.103,3.0,,,,,,,1554921268.867068,1554921270.833327,
165,23,Memory,3,,,,,,,sunbgzjryivyczuvkvm.jpg,,,,,1.086,1.0,,,,,,,1554921272.113948,1554921274.083841,
166,23,Memory,3,,,,,,,00776941205fa.jpg,,,,,1.302,1.0,,,,,,,1554921275.354427,1554921277.315273,
167,23,Memory,3,,,,,,,sunagmwxxwymwojbvgi.jpg,,,,,1.121,2.0,,,,,,,1554921278.682284,1554921280.650947,
168,23,Memory,3,,,,,,,sunaaexqbtdswxrqjvz.jpg,,,,,1.231,3.0,,,,,,,1554921281.938618,1554921283.903058,
169,23,Memory,3,,,,,,,sunaalhlvzmjmitybdn.jpg,,,,,0.867,2.0,,,,,,,1554921285.256882,1554921287.219285,
170,23,Memory,3,,,,,,,00112931230fa.jpg,,,,,1.471,3.0,,,,,,,1554921288.469346,1554921290.437514,
171,23,Memory,3,,,,,,,00937960627fa.jpg,,,,,1.248,2.0,,,,,,,1554921291.704229,1554921293.674239,
172,23,Memory,3,,,,,,,sunaauglwmctnkxyird.jpg,,,,,0.866,4.0,,,,,,,1554921294.955532,1554921296.92341,
173,23,Memory,3,,,,,,,sunagoufulkpsxrmklt.jpg,,,,,0.764,4.0,,,,,,,1554921298.19359,1554921300.157346,
174,23,Memory,3,,,,,,,00986960627fa.jpg,,,,,1.315,1.0,,,,,,,1554921301.462163,1554921303.423766,
175,23,Memory,3,,,,,,,00787941205fa.jpg,,,,,1.332,3.0,,,,,,,1554921304.69723,1554921306.662146,
176,23,Memory,3,,,,,,,00700941121fa.jpg,,,,,0.714,1.0,,,,,,,1554921307.942827,1554921309.911619,
177,23,Memory,3,,,,,,,sunavxokzybtomhbmvm.jpg,,,,,1.365,2.0,,,,,,,1554921311.181146,1554921313.146606,
178,23,Memory,3,,,,,,,sunaqsolmfydodnakub.jpg,,,,,1.266,1.0,,,,,,,1554921314.416743,1554921316.378611,
179,23,Memory,3,,,,,,,00784941205fb.jpg,,,,,0.933,1.0,,,,,,,1554921317.662171,1554921319.633986,
180,23,Memory,3,,,,,,,00959960627fa.jpg,,,,,0.697,1.0,,,,,,,1554921320.896679,1554921322.867246,
181,23,Memory,3,,,,,,,00071941031fa.jpg,,,,,1.798,1.0,,,,,,,1554921324.236953,1554921326.197849,
182,23,Memory,3,,,,,,,00973960627fa.jpg,,,,,1.432,1.0,,,,,,,1554921327.465668,1554921329.435661,
183,23,Memory,3,,,,,,,00787960620fa.jpg,,,,,1.152,4.0,,,,,,,1554921330.767252,1554921332.737669,
184,23,Memory,3,,,,,,,sunafxokyavhgptyfye.jpg,,,,,1.153,2.0,,,,,,,1554921334.022445,1554921335.984896,
185,23,Memory,3,,,,,,,sunaakjaacuzulqckgl.jpg,,,,,1.748,3.0,,,,,,,1554921337.251842,1554921339.222464,
186,23,Memory,3,,,,,,,sunbwaafjdebjzttuvq.jpg,,,,,1.181,2.0,,,,,,,1554921340.553507,1554921342.521475,
187,23,Memory,3,,,,,,,00149931230fa.jpg,,,,,1.232,2.0,,,,,,,1554921343.870601,1554921345.838491,
188,23,Memory,3,,,,,,,00158931230fb.jpg,,,,,0.97,1.0,,,,,,,1554921347.126392,1554921349.094492,
189,23,Memory,3,,,,,,,00065931230fb.jpg,,,,,0.715,1.0,,,,,,,1554921350.356372,1554921352.323664,
190,23,Memory,3,,,,,,,sunahuynahneraqftyz.jpg,,,,,0.948,1.0,,,,,,,1554921353.706665,1554921355.674671,
191,23,Memory,3,,,,,,,00185940422fb.jpg,,,,,1.314,1.0,,,,,,,1554921356.941675,1554921358.908394,
192,23,Memory,3,,,,,,,00782941205fa.jpg,,,,,0.899,1.0,,,,,,,1554921360.165136,1554921362.126269,
193,23,Memory,3,,,,,,,sunaawqdbpihmlbwyyn.jpg,,,,,1.07,1.0,,,,,,,1554921363.414422,1554921365.378805,
194,23,Memory,3,,,,,,,sunaaemixhfquhnxxlm.jpg,,,,,1.568,4.0,,,,,,,1554921366.745205,1554921368.714991,
195,23,Memory,3,,,,,,,00828940307fa.jpg,,,,,0.843,1.0,,,,,,,1554921370.018336,1554921373.818033,
196,23,Memory,3,,,,,,,sunbbgtoeuzierkkajt.jpg,,,,,1.026,4.0,,,,,,,1554921375.136491,1554921378.96891,
197,23,Memory,3,,,,,,,00142931230fb.jpg,,,,,0.71,1.0,,,,,,,1554921380.28748,1554921384.105106,
198,23,Memory,3,,,,,,,01002960627fb.jpg,,,,,1.059,1.0,,,,,,,1554921385.405989,1554921389.290975,
199,23,Memory,3,,,,,,,sunadsgmtznewzyasnk.jpg,,,,,1.66,4.0,,,,,,,1554921390.62508,1554921394.426137,
