,Subject,Trial Type,Run,Cued Composite,Uncued Composite,Cued Face,Cued Place,Uncued Face,Uncued Place,Memory Image,Category,Cued Side,Cued Category,Attention Response Time (s),Familiarity Reaction Time (s),Familiarity Rating,Attention Level,Cue Validity,Post Invalid Cue,Pre Invalid Cue,Attention Button,Rating History,Stimulus Onset,Stimulus End,Attention Probe
0,11,Presentation,0,00878960530fa_sunakgbnzxmfohgehnu.jpg,00559940519fa_sunacjkmnpawfzbyvae.jpg,00878960530fa.jpg,sunakgbnzxmfohgehnu.jpg,00559940519fa.jpg,sunacjkmnpawfzbyvae.jpg,,,<,Face,,,,,1,,,,,,,x
1,11,Presentation,0,00111931230fb_sunaakgekhjklxmvulj.jpg,00776941205fa_sunafxokyavhgptyfye.jpg,00111931230fb.jpg,sunaakgekhjklxmvulj.jpg,00776941205fa.jpg,sunafxokyavhgptyfye.jpg,,,<,Face,,,,,1,,,,,,,x
2,11,Presentation,0,00211940128fa_sunabasphceswhwwqvv.jpg,00947960627fa_sunasmmcxdddtmtazwx.jpg,00211940128fa.jpg,sunabasphceswhwwqvv.jpg,00947960627fa.jpg,sunasmmcxdddtmtazwx.jpg,,,<,Face,,,,,1,,,,,,,x
3,11,Presentation,0,00942960627fa_sunarfdklgdnjgeqfjg.jpg,00909960530_sunaobtizabegtwfwul.jpg,00942960627fa.jpg,sunarfdklgdnjgeqfjg.jpg,00909960530.jpg,sunaobtizabegtwfwul.jpg,,,<,Face,,,,,1,,,,,,,o
4,11,Presentation,0,01002960627fb_sunbwaafjdebjzttuvq.jpg,00937960627fa_sunaqsolmfydodnakub.jpg,01002960627fb.jpg,sunbwaafjdebjzttuvq.jpg,00937960627fa.jpg,sunaqsolmfydodnakub.jpg,,,<,Face,,,,,0,,,,,,,o
5,11,Presentation,0,01005960627fa_sunbwyuesflwdpqtgoy.jpg,00791941205fa_sunagrmyoovzukhxmlo.jpg,01005960627fa.jpg,sunbwyuesflwdpqtgoy.jpg,00791941205fa.jpg,sunagrmyoovzukhxmlo.jpg,,,<,Face,,,,,1,,,,,,,o
6,11,Presentation,0,00834940307fa_sunaibnpvhkdpdnzcnz.jpg,00119931230fb_sunaakvmbftkrgqhjun.jpg,00834940307fa.jpg,sunaibnpvhkdpdnzcnz.jpg,00119931230fb.jpg,sunaakvmbftkrgqhjun.jpg,,,<,Face,,,,,1,,,,,,,x
7,11,Presentation,0,00753941201fa_sunafcofuuzebuadceo.jpg,00785941205fa_sunaglqunwuycxydmyu.jpg,00753941201fa.jpg,sunafcofuuzebuadceo.jpg,00785941205fa.jpg,sunaglqunwuycxydmyu.jpg,,,<,Face,,,,,1,,,,,,,x
8,11,Presentation,0,00751960620fa_sunaezuszgtxnmsxdbk.jpg,00797960620fa_sunagufzbeteqdjxais.jpg,00751960620fa.jpg,sunaezuszgtxnmsxdbk.jpg,00797960620fa.jpg,sunagufzbeteqdjxais.jpg,,,<,Face,,,,,1,,,,,,,x
9,11,Presentation,0,00818940307fa_sunahpblecxtmuzkmxb.jpg,00760960620fa_sunaffstbkappprzxnv.jpg,00818940307fa.jpg,sunahpblecxtmuzkmxb.jpg,00760960620fa.jpg,sunaffstbkappprzxnv.jpg,,,<,Face,,,,,1,,,,,,,o
10,11,Memory,0,,,,,,,00909960530.jpg,,,,,,,,,,,,,,,
11,11,Memory,0,,,,,,,sunaahedjlmtqekgyvj.jpg,,,,,,,,,,,,,,,
12,11,Memory,0,,,,,,,01005960627fa.jpg,,,,,,,,,,,,,,,
13,11,Memory,0,,,,,,,sunavhxgmgrqsaptynb.jpg,,,,,,,,,,,,,,,
14,11,Memory,0,,,,,,,00878960530fa.jpg,,,,,,,,,,,,,,,
15,11,Memory,0,,,,,,,00746941201fa.jpg,,,,,,,,,,,,,,,
16,11,Memory,0,,,,,,,sunafxokyavhgptyfye.jpg,,,,,,,,,,,,,,,
17,11,Memory,0,,,,,,,sunacjkmnpawfzbyvae.jpg,,,,,,,,,,,,,,,
18,11,Memory,0,,,,,,,sunajrgtewnualfcerj.jpg,,,,,,,,,,,,,,,
19,11,Memory,0,,,,,,,sunaobtizabegtwfwul.jpg,,,,,,,,,,,,,,,
20,11,Memory,0,,,,,,,00792941205fa.jpg,,,,,,,,,,,,,,,
21,11,Memory,0,,,,,,,00982960627fa.jpg,,,,,,,,,,,,,,,
22,11,Memory,0,,,,,,,sunbwyuesflwdpqtgoy.jpg,,,,,,,,,,,,,,,
23,11,Memory,0,,,,,,,00218940128fa.jpg,,,,,,,,,,,,,,,
24,11,Memory,0,,,,,,,sunaejnvnpltdmhbcsi.jpg,,,,,,,,,,,,,,,
25,11,Memory,0,,,,,,,00073931230fa.jpg,,,,,,,,,,,,,,,
26,11,Memory,0,,,,,,,sunagrmyoovzukhxmlo.jpg,,,,,,,,,,,,,,,
27,11,Memory,0,,,,,,,sunaetydippjxikifsb.jpg,,,,,,,,,,,,,,,
28,11,Memory,0,,,,,,,00880960530fa.jpg,,,,,,,,,,,,,,,
29,11,Memory,0,,,,,,,sunaafbmtoniaasysgu.jpg,,,,,,,,,,,,,,,
30,11,Memory,0,,,,,,,00728941205fa.jpg,,,,,,,,,,,,,,,
31,11,Memory,0,,,,,,,sunaakgekhjklxmvulj.jpg,,,,,,,,,,,,,,,
32,11,Memory,0,,,,,,,01002960627fb.jpg,,,,,,,,,,,,,,,
33,11,Memory,0,,,,,,,00870940307fa.jpg,,,,,,,,,,,,,,,
34,11,Memory,0,,,,,,,sunagufzbeteqdjxais.jpg,,,,,,,,,,,,,,,
35,11,Memory,0,,,,,,,sunakgbnzxmfohgehnu.jpg,,,,,,,,,,,,,,,
36,11,Memory,0,,,,,,,sunagsiwrmuixqgdimb.jpg,,,,,,,,,,,,,,,
37,11,Memory,0,,,,,,,00797960620fa.jpg,,,,,,,,,,,,,,,
38,11,Memory,0,,,,,,,00559940519fa.jpg,,,,,,,,,,,,,,,
39,11,Memory,0,,,,,,,sunbwaafjdebjzttuvq.jpg,,,,,,,,,,,,,,,
40,11,Memory,0,,,,,,,sunabbwggenhfbftyvi.jpg,,,,,,,,,,,,,,,
41,11,Memory,0,,,,,,,00211940128fa.jpg,,,,,,,,,,,,,,,
42,11,Memory,0,,,,,,,00111931230fb.jpg,,,,,,,,,,,,,,,
43,11,Memory,0,,,,,,,sunabasphceswhwwqvv.jpg,,,,,,,,,,,,,,,
44,11,Memory,0,,,,,,,00090931230fa.jpg,,,,,,,,,,,,,,,
45,11,Memory,0,,,,,,,sunbesrwkdsffeogeqq.jpg,,,,,,,,,,,,,,,
46,11,Memory,0,,,,,,,00957960627fa.jpg,,,,,,,,,,,,,,,
47,11,Memory,0,,,,,,,00791941205fa.jpg,,,,,,,,,,,,,,,
48,11,Memory,0,,,,,,,00776941205fa.jpg,,,,,,,,,,,,,,,
49,11,Memory,0,,,,,,,sunakmnfgklupjijsgf.jpg,,,,,,,,,,,,,,,
50,11,Presentation,1,00097931230fa_sunaajayojuslbbnneg.jpg,00910960530fa_sunaofikylqtxphvdem.jpg,00097931230fa.jpg,sunaajayojuslbbnneg.jpg,00910960530fa.jpg,sunaofikylqtxphvdem.jpg,,,>,Place,,,,,1,,,,,,,x
51,11,Presentation,1,00116931230fa_sunaakqepfoeqomfgxf.jpg,00184940128fa_sunaavtbadenwnzeutj.jpg,00116931230fa.jpg,sunaakqepfoeqomfgxf.jpg,00184940128fa.jpg,sunaavtbadenwnzeutj.jpg,,,>,Place,,,,,1,,,,,,,x
52,11,Presentation,1,00316940422fa_sunabxmguapjekttvwm.jpg,00505960627fa_sunabzuqsrgcsonqlkz.jpg,00316940422fa.jpg,sunabxmguapjekttvwm.jpg,00505960627fa.jpg,sunabzuqsrgcsonqlkz.jpg,,,>,Place,,,,,1,,,,,,,x
53,11,Presentation,1,00819940307fa_sunahqldjibofgsfdgb.jpg,00210940128fb_sunabanoxjtqxamkucc.jpg,00819940307fa.jpg,sunahqldjibofgsfdgb.jpg,00210940128fb.jpg,sunabanoxjtqxamkucc.jpg,,,>,Place,,,,,1,,,,,,,o
54,11,Presentation,1,00306940422fa_sunabueyoajufbkraki.jpg,00938960627fa_sunaqyylsngywqzwfmx.jpg,00306940422fa.jpg,sunabueyoajufbkraki.jpg,00938960627fa.jpg,sunaqyylsngywqzwfmx.jpg,,,>,Place,,,,,1,,,,,,,x
55,11,Presentation,1,00292940422fb_sunabrjdpmoedcdjbpo.jpg,00270940422fb_sunabllobxadqcyttej.jpg,00292940422fb.jpg,sunabrjdpmoedcdjbpo.jpg,00270940422fb.jpg,sunabllobxadqcyttej.jpg,,,>,Place,,,,,0,,,,,,,o
56,11,Presentation,1,00889960530fa_sunaletopenvvozhpxc.jpg,00294940422fb_sunabrlndkruqokhury.jpg,00889960530fa.jpg,sunaletopenvvozhpxc.jpg,00294940422fb.jpg,sunabrlndkruqokhury.jpg,,,>,Place,,,,,1,,,,,,,x
57,11,Presentation,1,00264940128fb_sunabjzyxcjnmztdonj.jpg,00961960627fa_sunawotxrevnqvamsfp.jpg,00264940128fb.jpg,sunabjzyxcjnmztdonj.jpg,00961960627fa.jpg,sunawotxrevnqvamsfp.jpg,,,>,Place,,,,,1,,,,,,,x
58,11,Presentation,1,00705941205fa_sunadtlxenqqxsyjvix.jpg,00209940128fb_sunabaergayifsgacxt.jpg,00705941205fa.jpg,sunadtlxenqqxsyjvix.jpg,00209940128fb.jpg,sunabaergayifsgacxt.jpg,,,>,Place,,,,,1,,,,,,,x
59,11,Presentation,1,00822940307fa_sunahqrxievfeusiqlt.jpg,00893960530Fa_sunaloffvbvysigxent.jpg,00822940307fa.jpg,sunahqrxievfeusiqlt.jpg,00893960530Fa.jpg,sunaloffvbvysigxent.jpg,,,>,Place,,,,,1,,,,,,,o
60,11,Memory,1,,,,,,,sunabrlndkruqokhury.jpg,,,,,,,,,,,,,,,
61,11,Memory,1,,,,,,,00294940422fb.jpg,,,,,,,,,,,,,,,
62,11,Memory,1,,,,,,,sunahqrxievfeusiqlt.jpg,,,,,,,,,,,,,,,
63,11,Memory,1,,,,,,,00889960530fa.jpg,,,,,,,,,,,,,,,
64,11,Memory,1,,,,,,,sunaloffvbvysigxent.jpg,,,,,,,,,,,,,,,
65,11,Memory,1,,,,,,,00097931230fa.jpg,,,,,,,,,,,,,,,
66,11,Memory,1,,,,,,,sunaatjesvdupctftmn.jpg,,,,,,,,,,,,,,,
67,11,Memory,1,,,,,,,00874940307fa.jpg,,,,,,,,,,,,,,,
68,11,Memory,1,,,,,,,sunabanoxjtqxamkucc.jpg,,,,,,,,,,,,,,,
69,11,Memory,1,,,,,,,sunabeyhmxodahoieyk.jpg,,,,,,,,,,,,,,,
70,11,Memory,1,,,,,,,00822940307fa.jpg,,,,,,,,,,,,,,,
71,11,Memory,1,,,,,,,00263940128fb.jpg,,,,,,,,,,,,,,,
72,11,Memory,1,,,,,,,00145931230fb.jpg,,,,,,,,,,,,,,,
73,11,Memory,1,,,,,,,sunaofikylqtxphvdem.jpg,,,,,,,,,,,,,,,
74,11,Memory,1,,,,,,,sunachtuarilwyqnvjx.jpg,,,,,,,,,,,,,,,
75,11,Memory,1,,,,,,,sunaauueuhhvklldjik.jpg,,,,,,,,,,,,,,,
76,11,Memory,1,,,,,,,00154931230fa.jpg,,,,,,,,,,,,,,,
77,11,Memory,1,,,,,,,00193940928fa.jpg,,,,,,,,,,,,,,,
78,11,Memory,1,,,,,,,sunacbeefkxpymwevpk.jpg,,,,,,,,,,,,,,,
79,11,Memory,1,,,,,,,sunabxmguapjekttvwm.jpg,,,,,,,,,,,,,,,
80,11,Memory,1,,,,,,,00893960530Fa.jpg,,,,,,,,,,,,,,,
81,11,Memory,1,,,,,,,00676941121fa.jpg,,,,,,,,,,,,,,,
82,11,Memory,1,,,,,,,00775941205fa.jpg,,,,,,,,,,,,,,,
83,11,Memory,1,,,,,,,sunabjuovqvyfuzvqwt.jpg,,,,,,,,,,,,,,,
84,11,Memory,1,,,,,,,00557940519fa.jpg,,,,,,,,,,,,,,,
85,11,Memory,1,,,,,,,00529940519fa.jpg,,,,,,,,,,,,,,,
86,11,Memory,1,,,,,,,sunadtlxenqqxsyjvix.jpg,,,,,,,,,,,,,,,
87,11,Memory,1,,,,,,,sunaajayojuslbbnneg.jpg,,,,,,,,,,,,,,,
88,11,Memory,1,,,,,,,00705941205fa.jpg,,,,,,,,,,,,,,,
89,11,Memory,1,,,,,,,00184940128fa.jpg,,,,,,,,,,,,,,,
90,11,Memory,1,,,,,,,00245940128fa.jpg,,,,,,,,,,,,,,,
91,11,Memory,1,,,,,,,sunadpnqovzckyikrjo.jpg,,,,,,,,,,,,,,,
92,11,Memory,1,,,,,,,sunaletopenvvozhpxc.jpg,,,,,,,,,,,,,,,
93,11,Memory,1,,,,,,,sunaaxjpzcnxligjtjq.jpg,,,,,,,,,,,,,,,
94,11,Memory,1,,,,,,,00210940128fb.jpg,,,,,,,,,,,,,,,
95,11,Memory,1,,,,,,,sunafvwfsmqkjrutjta.jpg,,,,,,,,,,,,,,,
96,11,Memory,1,,,,,,,00316940422fa.jpg,,,,,,,,,,,,,,,
97,11,Memory,1,,,,,,,sunaavtbadenwnzeutj.jpg,,,,,,,,,,,,,,,
98,11,Memory,1,,,,,,,sunajtrfunvzdfticna.jpg,,,,,,,,,,,,,,,
99,11,Memory,1,,,,,,,00910960530fa.jpg,,,,,,,,,,,,,,,
100,11,Presentation,2,00483940519fa_sunabyvpwkgsjtijdwj.jpg,00787941205fa_sunagmwxxwymwojbvgi.jpg,00483940519fa.jpg,sunabyvpwkgsjtijdwj.jpg,00787941205fa.jpg,sunagmwxxwymwojbvgi.jpg,,,<,Place,,,,,1,,,,,,,x
101,11,Presentation,2,00239940128fa_sunabctlikybqabezjv.jpg,00929960627fa_sunaprnrbmgkomdbchr.jpg,00239940128fa.jpg,sunabctlikybqabezjv.jpg,00929960627fa.jpg,sunaprnrbmgkomdbchr.jpg,,,<,Place,,,,,1,,,,,,,o
102,11,Presentation,2,00061931230fb_sunaaekxzjzrfgtkwjf.jpg,00857940307fa_sunaiwfobocrruqznsv.jpg,00061931230fb.jpg,sunaaekxzjzrfgtkwjf.jpg,00857940307fa.jpg,sunaiwfobocrruqznsv.jpg,,,<,Place,,,,,1,,,,,,,x
103,11,Presentation,2,00900960530fa_sunamlotskmmsjeogby.jpg,00761960627fa_sunafgdqbclkwfocdhg.jpg,00900960530fa.jpg,sunamlotskmmsjeogby.jpg,00761960627fa.jpg,sunafgdqbclkwfocdhg.jpg,,,<,Place,,,,,1,,,,,,,o
104,11,Presentation,2,00092931230fa_sunaaheqzstzxuadglu.jpg,00162931230fb_sunaavjinpnkappuonm.jpg,00092931230fa.jpg,sunaaheqzstzxuadglu.jpg,00162931230fb.jpg,sunaavjinpnkappuonm.jpg,,,<,Place,,,,,1,,,,,,,x
105,11,Presentation,2,00266940128fb_sunabkngeblodihjvbk.jpg,00102931230fa_sunaajspcoepticvplv.jpg,00266940128fb.jpg,sunabkngeblodihjvbk.jpg,00102931230fa.jpg,sunaajspcoepticvplv.jpg,,,<,Place,,,,,1,,,,,,,x
106,11,Presentation,2,00745941205fa_sunaeouogqolxvggaoq.jpg,00081941031fa_sunaaftlyfudyzuhqzf.jpg,00745941205fa.jpg,sunaeouogqolxvggaoq.jpg,00081941031fa.jpg,sunaaftlyfudyzuhqzf.jpg,,,<,Place,,,,,1,,,,,,,x
107,11,Presentation,2,00966960627fa_sunaygrtwrwfezqjizr.jpg,00828940307fa_sunahuynahneraqftyz.jpg,00966960627fa.jpg,sunaygrtwrwfezqjizr.jpg,00828940307fa.jpg,sunahuynahneraqftyz.jpg,,,<,Place,,,,,1,,,,,,,x
108,11,Presentation,2,00634940928fa_sunadcphrizvfpljiqt.jpg,00070940307fa_sunaaeplwsfslcbtojr.jpg,00634940928fa.jpg,sunadcphrizvfpljiqt.jpg,00070940307fa.jpg,sunaaeplwsfslcbtojr.jpg,,,<,Place,,,,,1,,,,,,,o
109,11,Presentation,2,00198940128fb_sunaazezcsunmhttzxz.jpg,00633940928fa_sunadbhmrgrrpyzglxs.jpg,00198940128fb.jpg,sunaazezcsunmhttzxz.jpg,00633940928fa.jpg,sunadbhmrgrrpyzglxs.jpg,,,<,Place,,,,,1,,,,,,,o
110,11,Memory,2,,,,,,,sunaaekxzjzrfgtkwjf.jpg,,,,,,,,,,,,,,,
111,11,Memory,2,,,,,,,00070940307fa.jpg,,,,,,,,,,,,,,,
112,11,Memory,2,,,,,,,sunahuynahneraqftyz.jpg,,,,,,,,,,,,,,,
113,11,Memory,2,,,,,,,sunabppokiyglaxpcha.jpg,,,,,,,,,,,,,,,
114,11,Memory,2,,,,,,,sunaazezcsunmhttzxz.jpg,,,,,,,,,,,,,,,
115,11,Memory,2,,,,,,,00847940307fa.jpg,,,,,,,,,,,,,,,
116,11,Memory,2,,,,,,,00966960627fa.jpg,,,,,,,,,,,,,,,
117,11,Memory,2,,,,,,,00288940422fa.jpg,,,,,,,,,,,,,,,
118,11,Memory,2,,,,,,,sunadbhmrgrrpyzglxs.jpg,,,,,,,,,,,,,,,
119,11,Memory,2,,,,,,,00197940128fa.jpg,,,,,,,,,,,,,,,
120,11,Memory,2,,,,,,,sunaaylzyqlqrsmfwif.jpg,,,,,,,,,,,,,,,
121,11,Memory,2,,,,,,,00227940128fa.jpg,,,,,,,,,,,,,,,
122,11,Memory,2,,,,,,,00789960620fa.jpg,,,,,,,,,,,,,,,
123,11,Memory,2,,,,,,,00276940422fa.jpg,,,,,,,,,,,,,,,
124,11,Memory,2,,,,,,,sunafhmnhsdurlvddpw.jpg,,,,,,,,,,,,,,,
125,11,Memory,2,,,,,,,00761960627fa.jpg,,,,,,,,,,,,,,,
126,11,Memory,2,,,,,,,00634940928fa.jpg,,,,,,,,,,,,,,,
127,11,Memory,2,,,,,,,sunafgdqbclkwfocdhg.jpg,,,,,,,,,,,,,,,
128,11,Memory,2,,,,,,,00483940519fa.jpg,,,,,,,,,,,,,,,
129,11,Memory,2,,,,,,,00633940928fa.jpg,,,,,,,,,,,,,,,
130,11,Memory,2,,,,,,,00123931230fb.jpg,,,,,,,,,,,,,,,
131,11,Memory,2,,,,,,,00788941205fa.jpg,,,,,,,,,,,,,,,
132,11,Memory,2,,,,,,,sunaygrtwrwfezqjizr.jpg,,,,,,,,,,,,,,,
133,11,Memory,2,,,,,,,00828940307fa.jpg,,,,,,,,,,,,,,,
134,11,Memory,2,,,,,,,sunaaeplwsfslcbtojr.jpg,,,,,,,,,,,,,,,
135,11,Memory,2,,,,,,,sunagfvluwixdsozaql.jpg,,,,,,,,,,,,,,,
136,11,Memory,2,,,,,,,sunaalcrrdbjgdztbiz.jpg,,,,,,,,,,,,,,,
137,11,Memory,2,,,,,,,00782941205fa.jpg,,,,,,,,,,,,,,,
138,11,Memory,2,,,,,,,00929960627fa.jpg,,,,,,,,,,,,,,,
139,11,Memory,2,,,,,,,sunadcphrizvfpljiqt.jpg,,,,,,,,,,,,,,,
140,11,Memory,2,,,,,,,sunagountlxpzkytsmp.jpg,,,,,,,,,,,,,,,
141,11,Memory,2,,,,,,,00061931230fb.jpg,,,,,,,,,,,,,,,
142,11,Memory,2,,,,,,,sunaivdjruhkrfywfed.jpg,,,,,,,,,,,,,,,
143,11,Memory,2,,,,,,,sunaprnrbmgkomdbchr.jpg,,,,,,,,,,,,,,,
144,11,Memory,2,,,,,,,sunabmytpyhsgigllxu.jpg,,,,,,,,,,,,,,,
145,11,Memory,2,,,,,,,00198940128fb.jpg,,,,,,,,,,,,,,,
146,11,Memory,2,,,,,,,00763941205fa.jpg,,,,,,,,,,,,,,,
147,11,Memory,2,,,,,,,sunabyvpwkgsjtijdwj.jpg,,,,,,,,,,,,,,,
148,11,Memory,2,,,,,,,sunagpancjmxqfazssf.jpg,,,,,,,,,,,,,,,
149,11,Memory,2,,,,,,,sunabckqabszusgcykj.jpg,,,,,,,,,,,,,,,
150,11,Presentation,3,00133931230fa_sunaanlwnpqndclffxt.jpg,00952960627fa_sunathzzbcwjykldrem.jpg,00133931230fa.jpg,sunaanlwnpqndclffxt.jpg,00952960627fa.jpg,sunathzzbcwjykldrem.jpg,,,>,Face,,,,,1,,,,,,,x
151,11,Presentation,3,00977960627fa_sunbbxkanhzjgbwyxqs.jpg,00146960620fb_sunaatpeezlljqaxlhj.jpg,00977960627fa.jpg,sunbbxkanhzjgbwyxqs.jpg,00146960620fb.jpg,sunaatpeezlljqaxlhj.jpg,,,>,Face,,,,,1,,,,,,,x
152,11,Presentation,3,00507940519fa_sunacacflqoyxhsqzhe.jpg,00921960627fa_sunapqkpqdfvxlbqwyo.jpg,00507940519fa.jpg,sunacacflqoyxhsqzhe.jpg,00921960627fa.jpg,sunapqkpqdfvxlbqwyo.jpg,,,>,Face,,,,,1,,,,,,,o
153,11,Presentation,3,00532960627fa_sunaccdtpgenvcbcbcf.jpg,00805941205fa_sunagwzdbtlixdhgolm.jpg,00532960627fa.jpg,sunaccdtpgenvcbcbcf.jpg,00805941205fa.jpg,sunagwzdbtlixdhgolm.jpg,,,>,Face,,,,,1,,,,,,,o
154,11,Presentation,3,00971960627fa_sunbbegcweqnetpdlrh.jpg,00574940928fa_sunacvbrcejzwmcgnoq.jpg,00971960627fa.jpg,sunbbegcweqnetpdlrh.jpg,00574940928fa.jpg,sunacvbrcejzwmcgnoq.jpg,,,>,Face,,,,,0,,,,,,,x
155,11,Presentation,3,00636941031fa_sunaddtdkycxbqlpfqa.jpg,00825940307fa_sunahrltmuwbiehihpe.jpg,00636941031fa.jpg,sunaddtdkycxbqlpfqa.jpg,00825940307fa.jpg,sunahrltmuwbiehihpe.jpg,,,>,Face,,,,,1,,,,,,,x
156,11,Presentation,3,00221940128fa_sunabcfpwlpolnutyju.jpg,00790941205fa_sunagpjzsbltchlwvou.jpg,00221940128fa.jpg,sunabcfpwlpolnutyju.jpg,00790941205fa.jpg,sunagpjzsbltchlwvou.jpg,,,>,Face,,,,,1,,,,,,,o
157,11,Presentation,3,00071941031fa_sunaaexqbtdswxrqjvz.jpg,00720960620fa_sunaecpkgfewqqreqwe.jpg,00071941031fa.jpg,sunaaexqbtdswxrqjvz.jpg,00720960620fa.jpg,sunaecpkgfewqqreqwe.jpg,,,>,Face,,,,,1,,,,,,,x
158,11,Presentation,3,00953960627fa_sunatstrpjxhvtbaczf.jpg,00540940519fa_sunacdnquypmsshhsbk.jpg,00953960627fa.jpg,sunatstrpjxhvtbaczf.jpg,00540940519fa.jpg,sunacdnquypmsshhsbk.jpg,,,>,Face,,,,,1,,,,,,,x
159,11,Presentation,3,00984960627fa_sunbfzchmomnvzhbxdg.jpg,00158931230fb_sunaavchcbptaerhcfy.jpg,00984960627fa.jpg,sunbfzchmomnvzhbxdg.jpg,00158931230fb.jpg,sunaavchcbptaerhcfy.jpg,,,>,Face,,,,,1,,,,,,,o
160,11,Memory,3,,,,,,,sunaiwduelojtwaqeyh.jpg,,,,,,,,,,,,,,,
161,11,Memory,3,,,,,,,00794960620fa.jpg,,,,,,,,,,,,,,,
162,11,Memory,3,,,,,,,sunaaexqbtdswxrqjvz.jpg,,,,,,,,,,,,,,,
163,11,Memory,3,,,,,,,sunaeuvjbmdpknaqqaj.jpg,,,,,,,,,,,,,,,
164,11,Memory,3,,,,,,,sunagtjwilqjvxohypn.jpg,,,,,,,,,,,,,,,
165,11,Memory,3,,,,,,,sunacvbrcejzwmcgnoq.jpg,,,,,,,,,,,,,,,
166,11,Memory,3,,,,,,,sunafbwnojpqeyzssoe.jpg,,,,,,,,,,,,,,,
167,11,Memory,3,,,,,,,00133931230fa.jpg,,,,,,,,,,,,,,,
168,11,Memory,3,,,,,,,00829940307fa.jpg,,,,,,,,,,,,,,,
169,11,Memory,3,,,,,,,00752960620fa.jpg,,,,,,,,,,,,,,,
170,11,Memory,3,,,,,,,sunagwzdbtlixdhgolm.jpg,,,,,,,,,,,,,,,
171,11,Memory,3,,,,,,,sunapqkpqdfvxlbqwyo.jpg,,,,,,,,,,,,,,,
172,11,Memory,3,,,,,,,00260940128fa.jpg,,,,,,,,,,,,,,,
173,11,Memory,3,,,,,,,sunahwgbqkqcrwprgvh.jpg,,,,,,,,,,,,,,,
174,11,Memory,3,,,,,,,00267940128fb.jpg,,,,,,,,,,,,,,,
175,11,Memory,3,,,,,,,sunagetqixeypsysbpn.jpg,,,,,,,,,,,,,,,
176,11,Memory,3,,,,,,,sunaccdtpgenvcbcbcf.jpg,,,,,,,,,,,,,,,
177,11,Memory,3,,,,,,,00636941031fa.jpg,,,,,,,,,,,,,,,
178,11,Memory,3,,,,,,,sunaanlwnpqndclffxt.jpg,,,,,,,,,,,,,,,
179,11,Memory,3,,,,,,,00720960620fa.jpg,,,,,,,,,,,,,,,
180,11,Memory,3,,,,,,,00780960530fa.jpg,,,,,,,,,,,,,,,
181,11,Memory,3,,,,,,,sunaddtdkycxbqlpfqa.jpg,,,,,,,,,,,,,,,
182,11,Memory,3,,,,,,,00532960627fa.jpg,,,,,,,,,,,,,,,
183,11,Memory,3,,,,,,,sunablfqiwfqomjarht.jpg,,,,,,,,,,,,,,,
184,11,Memory,3,,,,,,,sunabgfhvifeijihhjw.jpg,,,,,,,,,,,,,,,
185,11,Memory,3,,,,,,,00958960627fa.jpg,,,,,,,,,,,,,,,
186,11,Memory,3,,,,,,,sunatstrpjxhvtbaczf.jpg,,,,,,,,,,,,,,,
187,11,Memory,3,,,,,,,00921960627fa.jpg,,,,,,,,,,,,,,,
188,11,Memory,3,,,,,,,00749941201fa.jpg,,,,,,,,,,,,,,,
189,11,Memory,3,,,,,,,00540940519fa.jpg,,,,,,,,,,,,,,,
190,11,Memory,3,,,,,,,sunacdnquypmsshhsbk.jpg,,,,,,,,,,,,,,,
191,11,Memory,3,,,,,,,00071941031fa.jpg,,,,,,,,,,,,,,,
192,11,Memory,3,,,,,,,00805941205fa.jpg,,,,,,,,,,,,,,,
193,11,Memory,3,,,,,,,00574940928fa.jpg,,,,,,,,,,,,,,,
194,11,Memory,3,,,,,,,00854940307fa.jpg,,,,,,,,,,,,,,,
195,11,Memory,3,,,,,,,sunaecpkgfewqqreqwe.jpg,,,,,,,,,,,,,,,
196,11,Memory,3,,,,,,,00793941205fa.jpg,,,,,,,,,,,,,,,
197,11,Memory,3,,,,,,,sunavspxmxubqaeidjt.jpg,,,,,,,,,,,,,,,
198,11,Memory,3,,,,,,,00953960627fa.jpg,,,,,,,,,,,,,,,
199,11,Memory,3,,,,,,,sunagtqhhwxjeuxdebe.jpg,,,,,,,,,,,,,,,
200,11,Presentation,4,00564940928fa_sunacmpqqfbsvlzinzl.jpg,00576941031fa_sunacvjlsylseoghjup.jpg,00564940928fa.jpg,sunacmpqqfbsvlzinzl.jpg,00576941031fa.jpg,sunacvjlsylseoghjup.jpg,,,<,Face,,,,,1,,,,,,,x
201,11,Presentation,4,00082931230fa_sunaafvitpexrpvumsa.jpg,00122931230fa_sunaakxjfbrrequcjmx.jpg,00082931230fa.jpg,sunaafvitpexrpvumsa.jpg,00122931230fa.jpg,sunaakxjfbrrequcjmx.jpg,,,<,Face,,,,,1,,,,,,,x
202,11,Presentation,4,00967960627fa_sunbaejotfklekvpxcz.jpg,00768941205fa_sunafkmnlytenlsywia.jpg,00967960627fa.jpg,sunbaejotfklekvpxcz.jpg,00768941205fa.jpg,sunafkmnlytenlsywia.jpg,,,<,Face,,,,,1,,,,,,,o
203,11,Presentation,4,00305940422fa_sunabtrnbvpppgczjim.jpg,00827940307fa_sunahtfxgsrmkiulnwk.jpg,00305940422fa.jpg,sunabtrnbvpppgczjim.jpg,00827940307fa.jpg,sunahtfxgsrmkiulnwk.jpg,,,<,Face,,,,,1,,,,,,,o
204,11,Presentation,4,00862940307fa_sunaizgnnplsvajzhkc.jpg,00071940128fa_sunaaexpnawiehinlpy.jpg,00862940307fa.jpg,sunaizgnnplsvajzhkc.jpg,00071940128fa.jpg,sunaaexpnawiehinlpy.jpg,,,<,Face,,,,,0,,,,,,,x
205,11,Presentation,4,00978960627fa_sunbddbivbptlrlauhy.jpg,00648941031fa_sunadfndyrtqqiasoig.jpg,00978960627fa.jpg,sunbddbivbptlrlauhy.jpg,00648941031fa.jpg,sunadfndyrtqqiasoig.jpg,,,<,Face,,,,,1,,,,,,,o
206,11,Presentation,4,00935960627fa_sunaqbmgkgqucajzrkp.jpg,00877960530fa_sunajxpkuhbizeveguy.jpg,00935960627fa.jpg,sunaqbmgkgqucajzrkp.jpg,00877960530fa.jpg,sunajxpkuhbizeveguy.jpg,,,<,Face,,,,,1,,,,,,,o
207,11,Presentation,4,00771941205fa_sunafowswglhxcsufpo.jpg,00650941031fa_sunadikxpvqeabxrvvc.jpg,00771941205fa.jpg,sunafowswglhxcsufpo.jpg,00650941031fa.jpg,sunadikxpvqeabxrvvc.jpg,,,<,Face,,,,,1,,,,,,,o
208,11,Presentation,4,00876960620fa_sunajwqkfsykceonyig.jpg,00894960620fa_sunalqmfgeadpqsyzpd.jpg,00876960620fa.jpg,sunajwqkfsykceonyig.jpg,00894960620fa.jpg,sunalqmfgeadpqsyzpd.jpg,,,<,Face,,,,,1,,,,,,,x
209,11,Presentation,4,00884960530fa_sunakodkcslgqhqlgwl.jpg,00065931230fb_sunaaemixhfquhnxxlm.jpg,00884960530fa.jpg,sunakodkcslgqhqlgwl.jpg,00065931230fb.jpg,sunaaemixhfquhnxxlm.jpg,,,<,Face,,,,,1,,,,,,,o
210,11,Memory,4,,,,,,,00082931230fa.jpg,,,,,,,,,,,,,,,
211,11,Memory,4,,,,,,,sunapileznnbbmrwoei.jpg,,,,,,,,,,,,,,,
212,11,Memory,4,,,,,,,00860940307fa.jpg,,,,,,,,,,,,,,,
213,11,Memory,4,,,,,,,sunadikxpvqeabxrvvc.jpg,,,,,,,,,,,,,,,
214,11,Memory,4,,,,,,,sunaguchqqnrtodtezq.jpg,,,,,,,,,,,,,,,
215,11,Memory,4,,,,,,,sunaanjcbzdvtvblsdy.jpg,,,,,,,,,,,,,,,
216,11,Memory,4,,,,,,,00132931230fb.jpg,,,,,,,,,,,,,,,
217,11,Memory,4,,,,,,,00768941205fa.jpg,,,,,,,,,,,,,,,
218,11,Memory,4,,,,,,,sunaqbmgkgqucajzrkp.jpg,,,,,,,,,,,,,,,
219,11,Memory,4,,,,,,,sunapqwoeotxshkukbh.jpg,,,,,,,,,,,,,,,
220,11,Memory,4,,,,,,,00915960620fa.jpg,,,,,,,,,,,,,,,
221,11,Memory,4,,,,,,,sunahtfxgsrmkiulnwk.jpg,,,,,,,,,,,,,,,
222,11,Memory,4,,,,,,,00967960627fa.jpg,,,,,,,,,,,,,,,
223,11,Memory,4,,,,,,,sunajwqkfsykceonyig.jpg,,,,,,,,,,,,,,,
224,11,Memory,4,,,,,,,sunapmfmzadmosuogaz.jpg,,,,,,,,,,,,,,,
225,11,Memory,4,,,,,,,sunabtrnbvpppgczjim.jpg,,,,,,,,,,,,,,,
226,11,Memory,4,,,,,,,sunbaejotfklekvpxcz.jpg,,,,,,,,,,,,,,,
227,11,Memory,4,,,,,,,00876960620fa.jpg,,,,,,,,,,,,,,,
228,11,Memory,4,,,,,,,00796941205fa.jpg,,,,,,,,,,,,,,,
229,11,Memory,4,,,,,,,sunaamsdyakblkfoydx.jpg,,,,,,,,,,,,,,,
230,11,Memory,4,,,,,,,sunaydywdmvlfddbxbk.jpg,,,,,,,,,,,,,,,
231,11,Memory,4,,,,,,,00963960627fa.jpg,,,,,,,,,,,,,,,
232,11,Memory,4,,,,,,,00919960620fa.jpg,,,,,,,,,,,,,,,
233,11,Memory,4,,,,,,,sunaizeyhvjzknwjudw.jpg,,,,,,,,,,,,,,,
234,11,Memory,4,,,,,,,sunaaexpnawiehinlpy.jpg,,,,,,,,,,,,,,,
235,11,Memory,4,,,,,,,sunayaepykrqvenaqqy.jpg,,,,,,,,,,,,,,,
236,11,Memory,4,,,,,,,00926960627Fa.jpg,,,,,,,,,,,,,,,
237,11,Memory,4,,,,,,,00308940422fb.jpg,,,,,,,,,,,,,,,
238,11,Memory,4,,,,,,,00305940422fa.jpg,,,,,,,,,,,,,,,
239,11,Memory,4,,,,,,,sunabwfvcqqidycwypa.jpg,,,,,,,,,,,,,,,
240,11,Memory,4,,,,,,,00935960627fa.jpg,,,,,,,,,,,,,,,
241,11,Memory,4,,,,,,,sunaakxjfbrrequcjmx.jpg,,,,,,,,,,,,,,,
242,11,Memory,4,,,,,,,00129931230fb.jpg,,,,,,,,,,,,,,,
243,11,Memory,4,,,,,,,00122931230fa.jpg,,,,,,,,,,,,,,,
244,11,Memory,4,,,,,,,sunaafvitpexrpvumsa.jpg,,,,,,,,,,,,,,,
245,11,Memory,4,,,,,,,00827940307fa.jpg,,,,,,,,,,,,,,,
246,11,Memory,4,,,,,,,sunafkmnlytenlsywia.jpg,,,,,,,,,,,,,,,
247,11,Memory,4,,,,,,,00071940128fa.jpg,,,,,,,,,,,,,,,
248,11,Memory,4,,,,,,,00965960627fa.jpg,,,,,,,,,,,,,,,
249,11,Memory,4,,,,,,,00650941031fa.jpg,,,,,,,,,,,,,,,
250,11,Presentation,5,00086931230fa_sunaafynehyrzpsoaml.jpg,00989960627fa_sunbondbduabvijnmch.jpg,00086931230fa.jpg,sunaafynehyrzpsoaml.jpg,00989960627fa.jpg,sunbondbduabvijnmch.jpg,,,<,Place,,,,,1,,,,,,,x
251,11,Presentation,5,00620940928fa_sunacypmnujalygkunp.jpg,01007960627fa_sunbxarcshsnqsefemx.jpg,00620940928fa.jpg,sunacypmnujalygkunp.jpg,01007960627fa.jpg,sunbxarcshsnqsefemx.jpg,,,<,Place,,,,,1,,,,,,,o
252,11,Presentation,5,00931960627fa_sunaptrqvaooxfvktvw.jpg,00115931230fa_sunaakmxzhuceuiryah.jpg,00931960627fa.jpg,sunaptrqvaooxfvktvw.jpg,00115931230fa.jpg,sunaakmxzhuceuiryah.jpg,,,<,Place,,,,,1,,,,,,,o
253,11,Presentation,5,00609940928fa_sunacycdoztxoluxjyk.jpg,01003960627fb_sunbwdrdvsweerwsdrj.jpg,00609940928fa.jpg,sunacycdoztxoluxjyk.jpg,01003960627fb.jpg,sunbwdrdvsweerwsdrj.jpg,,,<,Place,,,,,1,,,,,,,o
254,11,Presentation,5,00885960530fa_sunakwlvxjpddialozd.jpg,00130931230fa_sunaamvxnvouicstkjb.jpg,00885960530fa.jpg,sunakwlvxjpddialozd.jpg,00130931230fa.jpg,sunaamvxnvouicstkjb.jpg,,,<,Place,,,,,1,,,,,,,o
255,11,Presentation,5,00922960627fa_sunapqkyghktgtosuuk.jpg,00815941205fa_sunahiphsekjihkafsl.jpg,00922960627fa.jpg,sunapqkyghktgtosuuk.jpg,00815941205fa.jpg,sunahiphsekjihkafsl.jpg,,,<,Place,,,,,1,,,,,,,o
256,11,Presentation,5,00109931230fa_sunaajuzribjrizdshh.jpg,01207940128fa_sundbixjudsgeuuehrn.jpg,00109931230fa.jpg,sunaajuzribjrizdshh.jpg,01207940128fa.jpg,sundbixjudsgeuuehrn.jpg,,,<,Place,,,,,1,,,,,,,x
257,11,Presentation,5,00093931230fa_sunaahwnmtqsrhocysw.jpg,00630941031fa_sunadakkdovnuzlycvp.jpg,00093931230fa.jpg,sunaahwnmtqsrhocysw.jpg,00630941031fa.jpg,sunadakkdovnuzlycvp.jpg,,,<,Place,,,,,1,,,,,,,o
258,11,Presentation,5,00127931230fa_sunaampvucecsfbdafn.jpg,00108960530fa_sunaajtnvzzpsjdzres.jpg,00127931230fa.jpg,sunaampvucecsfbdafn.jpg,00108960530fa.jpg,sunaajtnvzzpsjdzres.jpg,,,<,Place,,,,,1,,,,,,,o
259,11,Presentation,5,00062931230fb_sunaaelotvjgibjtjhs.jpg,00694941121fa_sunadrmfzmstgdjdcod.jpg,00062931230fb.jpg,sunaaelotvjgibjtjhs.jpg,00694941121fa.jpg,sunadrmfzmstgdjdcod.jpg,,,<,Place,,,,,1,,,,,,,o
260,11,Memory,5,,,,,,,00130931230fa.jpg,,,,,,,,,,,,,,,
261,11,Memory,5,,,,,,,sunabmbnddafmywtjjj.jpg,,,,,,,,,,,,,,,
262,11,Memory,5,,,,,,,00663941121fa.jpg,,,,,,,,,,,,,,,
263,11,Memory,5,,,,,,,sunapqkyghktgtosuuk.jpg,,,,,,,,,,,,,,,
264,11,Memory,5,,,,,,,00620940928fa.jpg,,,,,,,,,,,,,,,
265,11,Memory,5,,,,,,,sunaahzooisqkwlxwoz.jpg,,,,,,,,,,,,,,,
266,11,Memory,5,,,,,,,00922960627fa.jpg,,,,,,,,,,,,,,,
267,11,Memory,5,,,,,,,00914960620fa.jpg,,,,,,,,,,,,,,,
268,11,Memory,5,,,,,,,00630941031fa.jpg,,,,,,,,,,,,,,,
269,11,Memory,5,,,,,,,sunacycdoztxoluxjyk.jpg,,,,,,,,,,,,,,,
270,11,Memory,5,,,,,,,sunadrmfzmstgdjdcod.jpg,,,,,,,,,,,,,,,
271,11,Memory,5,,,,,,,sundbixjudsgeuuehrn.jpg,,,,,,,,,,,,,,,
272,11,Memory,5,,,,,,,sunadfktsqjthoglcsm.jpg,,,,,,,,,,,,,,,
273,11,Memory,5,,,,,,,sunaauglwmctnkxyird.jpg,,,,,,,,,,,,,,,
274,11,Memory,5,,,,,,,sunagjzcrjvmxzqzljx.jpg,,,,,,,,,,,,,,,
275,11,Memory,5,,,,,,,01207940128fa.jpg,,,,,,,,,,,,,,,
276,11,Memory,5,,,,,,,sunbwdrdvsweerwsdrj.jpg,,,,,,,,,,,,,,,
277,11,Memory,5,,,,,,,sunadakkdovnuzlycvp.jpg,,,,,,,,,,,,,,,
278,11,Memory,5,,,,,,,00866940307fa.jpg,,,,,,,,,,,,,,,
279,11,Memory,5,,,,,,,00060931230fa.jpg,,,,,,,,,,,,,,,
280,11,Memory,5,,,,,,,sunajbwkywmsqkldfml.jpg,,,,,,,,,,,,,,,
281,11,Memory,5,,,,,,,01003960627fb.jpg,,,,,,,,,,,,,,,
282,11,Memory,5,,,,,,,00638941031fa.jpg,,,,,,,,,,,,,,,
283,11,Memory,5,,,,,,,sunaafynehyrzpsoaml.jpg,,,,,,,,,,,,,,,
284,11,Memory,5,,,,,,,00784941205fb.jpg,,,,,,,,,,,,,,,
285,11,Memory,5,,,,,,,sunaamvxnvouicstkjb.jpg,,,,,,,,,,,,,,,
286,11,Memory,5,,,,,,,00609940928fa.jpg,,,,,,,,,,,,,,,
287,11,Memory,5,,,,,,,sunbbgtoeuzierkkajt.jpg,,,,,,,,,,,,,,,
288,11,Memory,5,,,,,,,sunacypmnujalygkunp.jpg,,,,,,,,,,,,,,,
289,11,Memory,5,,,,,,,00149931230fa.jpg,,,,,,,,,,,,,,,
290,11,Memory,5,,,,,,,sunaaehaikpckyjsety.jpg,,,,,,,,,,,,,,,
291,11,Memory,5,,,,,,,00973960627fa.jpg,,,,,,,,,,,,,,,
292,11,Memory,5,,,,,,,sunaozisvwfbmlkfhzv.jpg,,,,,,,,,,,,,,,
293,11,Memory,5,,,,,,,00093931230fa.jpg,,,,,,,,,,,,,,,
294,11,Memory,5,,,,,,,sunadnjjzohjhbohlwq.jpg,,,,,,,,,,,,,,,
295,11,Memory,5,,,,,,,00086931230fa.jpg,,,,,,,,,,,,,,,
296,11,Memory,5,,,,,,,00694941121fa.jpg,,,,,,,,,,,,,,,
297,11,Memory,5,,,,,,,00095931230fa.jpg,,,,,,,,,,,,,,,
298,11,Memory,5,,,,,,,00271940422fa.jpg,,,,,,,,,,,,,,,
299,11,Memory,5,,,,,,,sunaahwnmtqsrhocysw.jpg,,,,,,,,,,,,,,,
300,11,Presentation,6,00858940307fa_sunaixpqndlwhwjtjek.jpg,00774941201fa_sunafvtpfczkzopbgue.jpg,00858940307fa.jpg,sunaixpqndlwhwjtjek.jpg,00774941201fa.jpg,sunafvtpfczkzopbgue.jpg,,,>,Face,,,,,1,,,,,,,o
301,11,Presentation,6,00125931230fa_sunaalltyvjhbzhkmvg.jpg,00112931230fa_sunaakjaacuzulqckgl.jpg,00125931230fa.jpg,sunaalltyvjhbzhkmvg.jpg,00112931230fa.jpg,sunaakjaacuzulqckgl.jpg,,,>,Face,,,,,1,,,,,,,o
302,11,Presentation,6,00985960627fa_sunbgklxeqjhdbyfhhy.jpg,00839940307fa_sunaipyohrqlwngaqif.jpg,00985960627fa.jpg,sunbgklxeqjhdbyfhhy.jpg,00839940307fa.jpg,sunaipyohrqlwngaqif.jpg,,,>,Face,,,,,1,,,,,,,o
303,11,Presentation,6,00836940307fa_sunainqelldeebvxtcz.jpg,00144931230fb_sunaathajvxrgptwhoj.jpg,00836940307fa.jpg,sunainqelldeebvxtcz.jpg,00144931230fb.jpg,sunaathajvxrgptwhoj.jpg,,,>,Face,,,,,1,,,,,,,o
304,11,Presentation,6,00681941121fa_sunadqmjrhfjyuzyvdd.jpg,00635941031fa_sunaddsaeicthrfbkhe.jpg,00681941121fa.jpg,sunadqmjrhfjyuzyvdd.jpg,00635941031fa.jpg,sunaddsaeicthrfbkhe.jpg,,,>,Face,,,,,1,,,,,,,x
305,11,Presentation,6,00999960627fa_sunbvbrvgbpanfrawft.jpg,00191940128fb_sunaawsdjisukbbginm.jpg,00999960627fa.jpg,sunbvbrvgbpanfrawft.jpg,00191940128fb.jpg,sunaawsdjisukbbginm.jpg,,,>,Face,,,,,1,,,,,,,o
306,11,Presentation,6,00987960627fa_sunbloeoiozwjjsiamp.jpg,00630940928fa_sunaczwgyukesaajxnx.jpg,00987960627fa.jpg,sunbloeoiozwjjsiamp.jpg,00630940928fa.jpg,sunaczwgyukesaajxnx.jpg,,,>,Face,,,,,0,,,,,,,o
307,11,Presentation,6,00891960530fa_sunalkiibhqpxfamlll.jpg,00543940519fa_sunacepzfrmtkiqonpy.jpg,00891960530fa.jpg,sunalkiibhqpxfamlll.jpg,00543940519fa.jpg,sunacepzfrmtkiqonpy.jpg,,,>,Face,,,,,1,,,,,,,x
308,11,Presentation,6,00631940928fa_sunadbdqzigzwipuipr.jpg,00571940928fa_sunacuatpqpqhyjhjqk.jpg,00631940928fa.jpg,sunadbdqzigzwipuipr.jpg,00571940928fa.jpg,sunacuatpqpqhyjhjqk.jpg,,,>,Face,,,,,1,,,,,,,x
309,11,Presentation,6,00986960627fa_sunbgzjryivyczuvkvm.jpg,00548940519fa_sunacerqowiaeoqkmsq.jpg,00986960627fa.jpg,sunbgzjryivyczuvkvm.jpg,00548940519fa.jpg,sunacerqowiaeoqkmsq.jpg,,,>,Face,,,,,1,,,,,,,o
310,11,Memory,6,,,,,,,01011960627fa.jpg,,,,,,,,,,,,,,,
311,11,Memory,6,,,,,,,sunaivflshbyfrfzhqb.jpg,,,,,,,,,,,,,,,
312,11,Memory,6,,,,,,,00630940928fa.jpg,,,,,,,,,,,,,,,
313,11,Memory,6,,,,,,,sunaakjaacuzulqckgl.jpg,,,,,,,,,,,,,,,
314,11,Memory,6,,,,,,,sunabwjvmoaddlyxfjr.jpg,,,,,,,,,,,,,,,
315,11,Memory,6,,,,,,,00983960627fa.jpg,,,,,,,,,,,,,,,
316,11,Memory,6,,,,,,,00112931230fa.jpg,,,,,,,,,,,,,,,
317,11,Memory,6,,,,,,,sunagvxkjokqimstxpe.jpg,,,,,,,,,,,,,,,
318,11,Memory,6,,,,,,,00543940519fa.jpg,,,,,,,,,,,,,,,
319,11,Memory,6,,,,,,,00986960627fa.jpg,,,,,,,,,,,,,,,
320,11,Memory,6,,,,,,,sunadbdqzigzwipuipr.jpg,,,,,,,,,,,,,,,
321,11,Memory,6,,,,,,,00313940422fa.jpg,,,,,,,,,,,,,,,
322,11,Memory,6,,,,,,,00101931230fb.jpg,,,,,,,,,,,,,,,
323,11,Memory,6,,,,,,,sunaixpqndlwhwjtjek.jpg,,,,,,,,,,,,,,,
324,11,Memory,6,,,,,,,sunbvbrvgbpanfrawft.jpg,,,,,,,,,,,,,,,
325,11,Memory,6,,,,,,,00235940128fb.jpg,,,,,,,,,,,,,,,
326,11,Memory,6,,,,,,,00163931230fb.jpg,,,,,,,,,,,,,,,
327,11,Memory,6,,,,,,,00191940128fb.jpg,,,,,,,,,,,,,,,
328,11,Memory,6,,,,,,,sunbfyvfqiimvdaxlqn.jpg,,,,,,,,,,,,,,,
329,11,Memory,6,,,,,,,sunabclssnoeuigtawp.jpg,,,,,,,,,,,,,,,
330,11,Memory,6,,,,,,,sunbgzjryivyczuvkvm.jpg,,,,,,,,,,,,,,,
331,11,Memory,6,,,,,,,00858940307fa.jpg,,,,,,,,,,,,,,,
332,11,Memory,6,,,,,,,sunafvtpfczkzopbgue.jpg,,,,,,,,,,,,,,,
333,11,Memory,6,,,,,,,00836940307fa.jpg,,,,,,,,,,,,,,,
334,11,Memory,6,,,,,,,sunaooaqzputrowwbsw.jpg,,,,,,,,,,,,,,,
335,11,Memory,6,,,,,,,sunaavodbcpygkggnfp.jpg,,,,,,,,,,,,,,,
336,11,Memory,6,,,,,,,sunaajqmsaavkmgbsth.jpg,,,,,,,,,,,,,,,
337,11,Memory,6,,,,,,,sunaawsdjisukbbginm.jpg,,,,,,,,,,,,,,,
338,11,Memory,6,,,,,,,00774941201fa.jpg,,,,,,,,,,,,,,,
339,11,Memory,6,,,,,,,sunainqelldeebvxtcz.jpg,,,,,,,,,,,,,,,
340,11,Memory,6,,,,,,,sundahdxwmcdluscvot.jpg,,,,,,,,,,,,,,,
341,11,Memory,6,,,,,,,sunacepzfrmtkiqonpy.jpg,,,,,,,,,,,,,,,
342,11,Memory,6,,,,,,,00631940928fa.jpg,,,,,,,,,,,,,,,
343,11,Memory,6,,,,,,,00803941205fa.jpg,,,,,,,,,,,,,,,
344,11,Memory,6,,,,,,,00999960627fa.jpg,,,,,,,,,,,,,,,
345,11,Memory,6,,,,,,,sunaczwgyukesaajxnx.jpg,,,,,,,,,,,,,,,
346,11,Memory,6,,,,,,,00911960530fa.jpg,,,,,,,,,,,,,,,
347,11,Memory,6,,,,,,,sunaafewhewbxmjiurz.jpg,,,,,,,,,,,,,,,
348,11,Memory,6,,,,,,,00076931230fa.jpg,,,,,,,,,,,,,,,
349,11,Memory,6,,,,,,,00851940307fa.jpg,,,,,,,,,,,,,,,
350,11,Presentation,7,00949960627fb_sunasnqkkyhilqkxiqm.jpg,00142931230fb_sunaapxkpvrhpjplsok.jpg,00949960627fb.jpg,sunasnqkkyhilqkxiqm.jpg,00142931230fb.jpg,sunaapxkpvrhpjplsok.jpg,,,>,Place,,,,,1,,,,,,,o
351,11,Presentation,7,00783941205fa_sunagjeesomrwjsfqie.jpg,01000960627fa_sunbvzmgrdvaakxusbu.jpg,00783941205fa.jpg,sunagjeesomrwjsfqie.jpg,01000960627fa.jpg,sunbvzmgrdvaakxusbu.jpg,,,>,Place,,,,,1,,,,,,,x
352,11,Presentation,7,00773960620fa_sunafvsxtzaizojicxx.jpg,00077931230fb_sunaafgqutfaishsxyu.jpg,00773960620fa.jpg,sunafvsxtzaizojicxx.jpg,00077931230fb.jpg,sunaafgqutfaishsxyu.jpg,,,>,Place,,,,,0,,,,,,,x
353,11,Presentation,7,00747941201fa_sunaeutbrtswvsozxyk.jpg,00581940928fa_sunacvzhvcksnwqcqbw.jpg,00747941201fa.jpg,sunaeutbrtswvsozxyk.jpg,00581940928fa.jpg,sunacvzhvcksnwqcqbw.jpg,,,>,Place,,,,,1,,,,,,,o
354,11,Presentation,7,00906960530fa_sunantryfbloeaomfta.jpg,00799941205fa_sunagutjvdvnhxejerz.jpg,00906960530fa.jpg,sunantryfbloeaomfta.jpg,00799941205fa.jpg,sunagutjvdvnhxejerz.jpg,,,>,Place,,,,,1,,,,,,,o
355,11,Presentation,7,00675941121fa_sunadoxcchtmsxewsau.jpg,00481940519fa_sunabxsuqbleluwczoy.jpg,00675941121fa.jpg,sunadoxcchtmsxewsau.jpg,00481940519fa.jpg,sunabxsuqbleluwczoy.jpg,,,>,Place,,,,,0,,,,,,,x
356,11,Presentation,7,00996960627fa_sunbpvgllfdejxcpjqp.jpg,00841940307fa_sunaisiwfgppimtnmxl.jpg,00996960627fa.jpg,sunbpvgllfdejxcpjqp.jpg,00841940307fa.jpg,sunaisiwfgppimtnmxl.jpg,,,>,Place,,,,,1,,,,,,,o
357,11,Presentation,7,00908960530fa_sunanwjjyqqwzqrqagd.jpg,00705960530fa_sunaduslxfzlbxlllnz.jpg,00908960530fa.jpg,sunanwjjyqqwzqrqagd.jpg,00705960530fa.jpg,sunaduslxfzlbxlllnz.jpg,,,>,Place,,,,,1,,,,,,,x
358,11,Presentation,7,00098931230fa_sunaajpqmulidejvjsr.jpg,00568940928fa_sunacsdhbbsybcyxnel.jpg,00098931230fa.jpg,sunaajpqmulidejvjsr.jpg,00568940928fa.jpg,sunacsdhbbsybcyxnel.jpg,,,>,Place,,,,,0,,,,,,,x
359,11,Presentation,7,00208940128fa_sunaazzyhbvqjpmazjq.jpg,00968960627fa_sunbagfpovqwbuexqdn.jpg,00208940128fa.jpg,sunaazzyhbvqjpmazjq.jpg,00968960627fa.jpg,sunbagfpovqwbuexqdn.jpg,,,>,Place,,,,,1,,,,,,,x
360,11,Memory,7,,,,,,,sunacxeheuiigkcgquf.jpg,,,,,,,,,,,,,,,
361,11,Memory,7,,,,,,,00747941201fa.jpg,,,,,,,,,,,,,,,
362,11,Memory,7,,,,,,,00077931230fb.jpg,,,,,,,,,,,,,,,
363,11,Memory,7,,,,,,,sunaafgqutfaishsxyu.jpg,,,,,,,,,,,,,,,
364,11,Memory,7,,,,,,,00770941201fa.jpg,,,,,,,,,,,,,,,
365,11,Memory,7,,,,,,,00968960627fa.jpg,,,,,,,,,,,,,,,
366,11,Memory,7,,,,,,,sunagjeesomrwjsfqie.jpg,,,,,,,,,,,,,,,
367,11,Memory,7,,,,,,,sunaflojskatpeqyzqp.jpg,,,,,,,,,,,,,,,
368,11,Memory,7,,,,,,,sunavxokzybtomhbmvm.jpg,,,,,,,,,,,,,,,
369,11,Memory,7,,,,,,,01010960627fa.jpg,,,,,,,,,,,,,,,
370,11,Memory,7,,,,,,,sunahmhrncocyhsjpxk.jpg,,,,,,,,,,,,,,,
371,11,Memory,7,,,,,,,00089931230fa.jpg,,,,,,,,,,,,,,,
372,11,Memory,7,,,,,,,sunaivdylrawbmhryfp.jpg,,,,,,,,,,,,,,,
373,11,Memory,7,,,,,,,sunaagcpoejbuzyvddd.jpg,,,,,,,,,,,,,,,
374,11,Memory,7,,,,,,,sunanmoqeyprjjjfxjt.jpg,,,,,,,,,,,,,,,
375,11,Memory,7,,,,,,,00996960627fa.jpg,,,,,,,,,,,,,,,
376,11,Memory,7,,,,,,,sunabxsuqbleluwczoy.jpg,,,,,,,,,,,,,,,
377,11,Memory,7,,,,,,,sunacsdhbbsybcyxnel.jpg,,,,,,,,,,,,,,,
378,11,Memory,7,,,,,,,00816941205fa.jpg,,,,,,,,,,,,,,,
379,11,Memory,7,,,,,,,00949960627fb.jpg,,,,,,,,,,,,,,,
380,11,Memory,7,,,,,,,sunaafjszryxyavjzln.jpg,,,,,,,,,,,,,,,
381,11,Memory,7,,,,,,,suncnkvbhypnivcohyx.jpg,,,,,,,,,,,,,,,
382,11,Memory,7,,,,,,,00905960530fa.jpg,,,,,,,,,,,,,,,
383,11,Memory,7,,,,,,,00959960627fa.jpg,,,,,,,,,,,,,,,
384,11,Memory,7,,,,,,,00598940928fa.jpg,,,,,,,,,,,,,,,
385,11,Memory,7,,,,,,,00080931230fb.jpg,,,,,,,,,,,,,,,
386,11,Memory,7,,,,,,,sunasnqkkyhilqkxiqm.jpg,,,,,,,,,,,,,,,
387,11,Memory,7,,,,,,,00568940928fa.jpg,,,,,,,,,,,,,,,
388,11,Memory,7,,,,,,,00908960530fa.jpg,,,,,,,,,,,,,,,
389,11,Memory,7,,,,,,,00481940519fa.jpg,,,,,,,,,,,,,,,
390,11,Memory,7,,,,,,,01000960627fa.jpg,,,,,,,,,,,,,,,
391,11,Memory,7,,,,,,,sunbagfpovqwbuexqdn.jpg,,,,,,,,,,,,,,,
392,11,Memory,7,,,,,,,sunaeutbrtswvsozxyk.jpg,,,,,,,,,,,,,,,
393,11,Memory,7,,,,,,,sunanwjjyqqwzqrqagd.jpg,,,,,,,,,,,,,,,
394,11,Memory,7,,,,,,,sunbpvgllfdejxcpjqp.jpg,,,,,,,,,,,,,,,
395,11,Memory,7,,,,,,,00955960627fb.jpg,,,,,,,,,,,,,,,
396,11,Memory,7,,,,,,,00783941205fa.jpg,,,,,,,,,,,,,,,
397,11,Memory,7,,,,,,,sunauburywlkjszngcq.jpg,,,,,,,,,,,,,,,
398,11,Memory,7,,,,,,,00848940307fa.jpg,,,,,,,,,,,,,,,
399,11,Memory,7,,,,,,,sunbvzmgrdvaakxusbu.jpg,,,,,,,,,,,,,,,
