,Subject,Trial Type,Run,Cued Composite,Uncued Composite,Cued Face,Cued Place,Uncued Face,Uncued Place,Memory Image,Category,Cued Side,Cued Category,Attention Reaction Time (s),Familiarity Reaction Time (s),Familiarity Rating,Attention Level,Cue Validity,Post Invalid Cue,Pre Invalid Cue,Attention Button,Rating History,Stimulus Onset,Stimulus End,Attention Probe
260,4,Memory,5,,,,,,,sunahpblecxtmuzkmxb.jpg,,,,,1.388,2.0,,,,,,,1550789350.425177,1550789352.454577,
261,4,Memory,5,,,,,,,00097931230fa.jpg,,,,,0.0,,,,,,,,1550789353.709961,1550789355.673079,
262,4,Memory,5,,,,,,,sunaflojskatpeqyzqp.jpg,,,,,1.833,3.0,,,,,,,1550789356.927794,1550789358.892427,
263,4,Memory,5,,,,,,,sunaalhlvzmjmitybdn.jpg,,,,,1.821,3.0,,,,,,,1550789360.141764,1550789362.10855,
264,4,Memory,5,,,,,,,00969960627fa.jpg,,,,,1.154,4.0,,,,,,,1550789363.363647,1550789365.329905,
265,4,Memory,5,,,,,,,00929960627fa.jpg,,,,,0.949,1.0,,,,,,,1550789366.581767,1550789368.543228,
266,4,Memory,5,,,,,,,00727941205fa.jpg,,,,,1.204,1.0,,,,,,,1550789369.797212,1550789371.761597,
267,4,Memory,5,,,,,,,sunaibnpvhkdpdnzcnz.jpg,,,,,0.986,1.0,,,,,,,1550789373.000481,1550789374.962488,
268,4,Memory,5,,,,,,,00770941201fa.jpg,,,,,0.881,1.0,,,,,,,1550789376.218127,1550789378.184136,
269,4,Memory,5,,,,,,,00953960627fa.jpg,,,,,1.399,3.0,,,,,,,1550789379.414272,1550789381.383934,
270,4,Memory,5,,,,,,,sunaixpqndlwhwjtjek.jpg,,,,,1.715,3.0,,,,,,,1550789382.616192,1550789384.582702,
271,4,Memory,5,,,,,,,00124931230fa.jpg,,,,,0.0,,,,,,,,1550789385.816564,1550789387.785567,
272,4,Memory,5,,,,,,,sunabyvpwkgsjtijdwj.jpg,,,,,0.0,,,,,,,,1550789389.017146,1550789390.987652,
273,4,Memory,5,,,,,,,00858940307fa.jpg,,,,,1.315,1.0,,,,,,,1550789392.218676,1550789394.18522,
274,4,Memory,5,,,,,,,00242940128fa.jpg,,,,,1.588,3.0,,,,,,,1550789395.41999,1550789397.386587,
275,4,Memory,5,,,,,,,00986960627fa.jpg,,,,,1.682,3.0,,,,,,,1550789398.621255,1550789400.587236,
276,4,Memory,5,,,,,,,sunabjzyxcjnmztdonj.jpg,,,,,1.232,2.0,,,,,,,1550789401.843991,1550789403.806792,
277,4,Memory,5,,,,,,,01207940128fa.jpg,,,,,1.037,1.0,,,,,,,1550789405.042847,1550789407.008136,
278,4,Memory,5,,,,,,,sunbaoizrfijvhpnnjn.jpg,,,,,1.25,2.0,,,,,,,1550789408.243972,1550789410.208004,
279,4,Memory,5,,,,,,,sunadkazmlajmohnwfl.jpg,,,,,1.487,1.0,,,,,,,1550789411.441669,1550789413.412928,
280,4,Memory,5,,,,,,,00264940128fb.jpg,,,,,1.817,2.0,,,,,,,1550789414.664316,1550789416.628221,
281,4,Memory,5,,,,,,,sunbgzjryivyczuvkvm.jpg,,,,,1.367,3.0,,,,,,,1550789417.860426,1550789419.830605,
282,4,Memory,5,,,,,,,00662941121fa.jpg,,,,,1.866,3.0,,,,,,,1550789421.08261,1550789423.612262,
283,4,Memory,5,,,,,,,00483940519fa.jpg,,,,,1.484,1.0,,,,,,,1550789424.846464,1550789426.815701,
284,4,Memory,5,,,,,,,00834940307fa.jpg,,,,,1.669,1.0,,,,,,,1550789428.050636,1550789430.01566,
285,4,Memory,5,,,,,,,sunaqsolmfydodnakub.jpg,,,,,1.8,1.0,,,,,,,1550789431.253665,1550789433.215757,
286,4,Memory,5,,,,,,,sunabkngeblodihjvbk.jpg,,,,,1.399,4.0,,,,,,,1550789434.448674,1550789436.418965,
287,4,Memory,5,,,,,,,sunaakjaacuzulqckgl.jpg,,,,,1.348,2.0,,,,,,,1550789437.649958,1550789439.61999,
288,4,Memory,5,,,,,,,00112931230fa.jpg,,,,,1.687,2.0,,,,,,,1550789440.870994,1550789442.835706,
289,4,Memory,5,,,,,,,00818940307fa.jpg,,,,,1.85,3.0,,,,,,,1550789444.073971,1550789446.038887,
290,4,Memory,5,,,,,,,sunaprnrbmgkomdbchr.jpg,,,,,0.0,,,,,,,,1550789447.270097,1550789449.238592,
291,4,Memory,5,,,,,,,sundbixjudsgeuuehrn.jpg,,,,,1.584,1.0,,,,,,,1550789450.473985,1550789452.443063,
292,4,Memory,5,,,,,,,sunaeisnjeetzmkbuad.jpg,,,,,1.653,3.0,,,,,,,1550789453.689184,1550789455.657036,
293,4,Memory,5,,,,,,,00937960627fa.jpg,,,,,1.501,2.0,,,,,,,1550789456.889728,1550789458.857768,
294,4,Memory,5,,,,,,,sunabcuurugvxwparpk.jpg,,,,,1.099,3.0,,,,,,,1550789460.09451,1550789462.058368,
295,4,Memory,5,,,,,,,00266940128fb.jpg,,,,,1.637,2.0,,,,,,,1550789463.29639,1550789465.260983,
296,4,Memory,5,,,,,,,00766960620fa.jpg,,,,,1.552,2.0,,,,,,,1550789466.497317,1550789468.462951,
297,4,Memory,5,,,,,,,sunafijbgncijwykrnl.jpg,,,,,0.0,,,,,,,,1550789469.698192,1550789471.66319,
298,4,Memory,5,,,,,,,sunaajayojuslbbnneg.jpg,,,,,1.384,1.0,,,,,,,1550789472.899359,1550789474.862981,
299,4,Memory,5,,,,,,,sunatstrpjxhvtbaczf.jpg,,,,,1.148,1.0,,,,,,,1550789476.113349,1550789478.081653,
