,Subject,Trial Type,Run,Cued Composite,Uncued Composite,Cued Face,Cued Place,Uncued Face,Uncued Place,Memory Image,Category,Cued Side,Cued Category,Attention Reaction Time (s),Familiarity Reaction Time (s),Familiarity Rating,Attention Level,Cue Validity,Post Invalid Cue,Pre Invalid Cue,Attention Button,Rating History,Stimulus Onset,Stimulus End,Attention Probe
0,327,Presentation,0,00081941031fa_sunaaftlyfudyzuhqzf.jpg,00848940307fa_sunaivdylrawbmhryfp.jpg,00081941031fa.jpg,sunaaftlyfudyzuhqzf.jpg,00848940307fa.jpg,sunaivdylrawbmhryfp.jpg,,,>,Face,,,,,1,,,,,,,x
1,327,Presentation,0,00635941031fa_sunaddsaeicthrfbkhe.jpg,00749941201fa_sunaeuvjbmdpknaqqaj.jpg,00635941031fa.jpg,sunaddsaeicthrfbkhe.jpg,00749941201fa.jpg,sunaeuvjbmdpknaqqaj.jpg,,,>,Face,,,,,0,,,,,,,x
2,327,Presentation,0,00744941201fa_sunaeomlfaabhpswasy.jpg,00976960627fa_sunbbhqyyzmsxhsbjmp.jpg,00744941201fa.jpg,sunaeomlfaabhpswasy.jpg,00976960627fa.jpg,sunbbhqyyzmsxhsbjmp.jpg,,,<,Place,,,,,1,,,,,,,x
3,327,Presentation,0,00071941031fa_sunaaexqbtdswxrqjvz.jpg,00214940128fa_sunabbafjowbzcvbucc.jpg,00071941031fa.jpg,sunaaexqbtdswxrqjvz.jpg,00214940128fa.jpg,sunabbafjowbzcvbucc.jpg,,,<,Face,,,,,1,,,,,,,x
4,327,Presentation,0,00316940422fa_sunabxmguapjekttvwm.jpg,00548940519fa_sunacerqowiaeoqkmsq.jpg,00316940422fa.jpg,sunabxmguapjekttvwm.jpg,00548940519fa.jpg,sunacerqowiaeoqkmsq.jpg,,,<,Place,,,,,1,,,,,,,x
5,327,Presentation,0,00910960530fa_sunaofikylqtxphvdem.jpg,00265940128fb_sunabkmdplkdbvxriff.jpg,00910960530fa.jpg,sunaofikylqtxphvdem.jpg,00265940128fb.jpg,sunabkmdplkdbvxriff.jpg,,,>,Place,,,,,1,,,,,,,x
6,327,Presentation,0,00866940307fa_sunajbwkywmsqkldfml.jpg,00061931230fb_sunaaekxzjzrfgtkwjf.jpg,00866940307fa.jpg,sunajbwkywmsqkldfml.jpg,00061931230fb.jpg,sunaaekxzjzrfgtkwjf.jpg,,,<,Face,,,,,1,,,,,,,x
7,327,Presentation,0,00791941205fa_sunagrmyoovzukhxmlo.jpg,00242940128fa_sunabcuurugvxwparpk.jpg,00791941205fa.jpg,sunagrmyoovzukhxmlo.jpg,00242940128fa.jpg,sunabcuurugvxwparpk.jpg,,,>,Face,,,,,1,,,,,,,x
8,327,Presentation,0,01003960627fb_sunbwdrdvsweerwsdrj.jpg,00694941121fa_sunadrmfzmstgdjdcod.jpg,01003960627fb.jpg,sunbwdrdvsweerwsdrj.jpg,00694941121fa.jpg,sunadrmfzmstgdjdcod.jpg,,,>,Place,,,,,1,,,,,,,o
9,327,Presentation,0,01007960627fa_sunbxarcshsnqsefemx.jpg,00158931230fb_sunaavchcbptaerhcfy.jpg,01007960627fa.jpg,sunbxarcshsnqsefemx.jpg,00158931230fb.jpg,sunaavchcbptaerhcfy.jpg,,,<,Place,,,,,1,,,,,,,o
10,327,Memory,0,,,,,,,sunaeuvjbmdpknaqqaj.jpg,,,,,,,,,,,,,,,
11,327,Memory,0,,,,,,,00209940128fb.jpg,,,,,,,,,,,,,,,
12,327,Memory,0,,,,,,,sunaatjesvdupctftmn.jpg,,,,,,,,,,,,,,,
13,327,Memory,0,,,,,,,sunabxmguapjekttvwm.jpg,,,,,,,,,,,,,,,
14,327,Memory,0,,,,,,,00848940307fa.jpg,,,,,,,,,,,,,,,
15,327,Memory,0,,,,,,,00146960620fb.jpg,,,,,,,,,,,,,,,
16,327,Memory,0,,,,,,,sunaofikylqtxphvdem.jpg,,,,,,,,,,,,,,,
17,327,Memory,0,,,,,,,sunaivdylrawbmhryfp.jpg,,,,,,,,,,,,,,,
18,327,Memory,0,,,,,,,00910960530fa.jpg,,,,,,,,,,,,,,,
19,327,Memory,0,,,,,,,sunadrmfzmstgdjdcod.jpg,,,,,,,,,,,,,,,
20,327,Memory,0,,,,,,,sunaafjszryxyavjzln.jpg,,,,,,,,,,,,,,,
21,327,Memory,0,,,,,,,00775941205fa.jpg,,,,,,,,,,,,,,,
22,327,Memory,0,,,,,,,00763941205fa.jpg,,,,,,,,,,,,,,,
23,327,Memory,0,,,,,,,sunafhmnhsdurlvddpw.jpg,,,,,,,,,,,,,,,
24,327,Memory,0,,,,,,,00145931230fb.jpg,,,,,,,,,,,,,,,
25,327,Memory,0,,,,,,,sunacerqowiaeoqkmsq.jpg,,,,,,,,,,,,,,,
26,327,Memory,0,,,,,,,sunabaergayifsgacxt.jpg,,,,,,,,,,,,,,,
27,327,Memory,0,,,,,,,sunaaekxzjzrfgtkwjf.jpg,,,,,,,,,,,,,,,
28,327,Memory,0,,,,,,,00694941121fa.jpg,,,,,,,,,,,,,,,
29,327,Memory,0,,,,,,,sunaatpeezlljqaxlhj.jpg,,,,,,,,,,,,,,,
30,327,Memory,0,,,,,,,00636941031fa.jpg,,,,,,,,,,,,,,,
31,327,Memory,0,,,,,,,01003960627fb.jpg,,,,,,,,,,,,,,,
32,327,Memory,0,,,,,,,sunaqgjuuwvdcyiccjt.jpg,,,,,,,,,,,,,,,
33,327,Memory,0,,,,,,,00749941201fa.jpg,,,,,,,,,,,,,,,
34,327,Memory,0,,,,,,,00548940519fa.jpg,,,,,,,,,,,,,,,
35,327,Memory,0,,,,,,,00080931230fb.jpg,,,,,,,,,,,,,,,
36,327,Memory,0,,,,,,,sunafvwfsmqkjrutjta.jpg,,,,,,,,,,,,,,,
37,327,Memory,0,,,,,,,00061931230fb.jpg,,,,,,,,,,,,,,,
38,327,Memory,0,,,,,,,00746941201fa.jpg,,,,,,,,,,,,,,,
39,327,Memory,0,,,,,,,sunaefgzwiramypjvtd.jpg,,,,,,,,,,,,,,,
40,327,Memory,0,,,,,,,sunbwdrdvsweerwsdrj.jpg,,,,,,,,,,,,,,,
41,327,Memory,0,,,,,,,00725941201fa.jpg,,,,,,,,,,,,,,,
42,327,Memory,0,,,,,,,00936960627fa.jpg,,,,,,,,,,,,,,,
43,327,Memory,0,,,,,,,00081941031fa.jpg,,,,,,,,,,,,,,,
44,327,Memory,0,,,,,,,sunaddtdkycxbqlpfqa.jpg,,,,,,,,,,,,,,,
45,327,Memory,0,,,,,,,01007960627fa.jpg,,,,,,,,,,,,,,,
46,327,Memory,0,,,,,,,00316940422fa.jpg,,,,,,,,,,,,,,,
47,327,Memory,0,,,,,,,sunbxarcshsnqsefemx.jpg,,,,,,,,,,,,,,,
48,327,Memory,0,,,,,,,sunaetydippjxikifsb.jpg,,,,,,,,,,,,,,,
49,327,Memory,0,,,,,,,sunaaftlyfudyzuhqzf.jpg,,,,,,,,,,,,,,,
50,327,Presentation,1,00943960627fa_sunarpsxqkduedrrzyi.jpg,00978960627fa_sunbddbivbptlrlauhy.jpg,00943960627fa.jpg,sunarpsxqkduedrrzyi.jpg,00978960627fa.jpg,sunbddbivbptlrlauhy.jpg,,,<,Face,,,,,1,,,,,,,x
51,327,Presentation,1,00804960530fa_sunagwswhkvnsmuszlz.jpg,00065931230fb_sunaaemixhfquhnxxlm.jpg,00804960530fa.jpg,sunagwswhkvnsmuszlz.jpg,00065931230fb.jpg,sunaaemixhfquhnxxlm.jpg,,,<,Place,,,,,1,,,,,,,o
52,327,Presentation,1,00889960530fa_sunaletopenvvozhpxc.jpg,00901960530fa_sunammbnoambmhdxdwd.jpg,00889960530fa.jpg,sunaletopenvvozhpxc.jpg,00901960530fa.jpg,sunammbnoambmhdxdwd.jpg,,,<,Place,,,,,0,,,,,,,o
53,327,Presentation,1,00574940928fa_sunacvbrcejzwmcgnoq.jpg,00235940128fb_sunabclssnoeuigtawp.jpg,00574940928fa.jpg,sunacvbrcejzwmcgnoq.jpg,00235940128fb.jpg,sunabclssnoeuigtawp.jpg,,,>,Face,,,,,1,,,,,,,x
54,327,Presentation,1,00971960627fa_sunbbegcweqnetpdlrh.jpg,00620940928fa_sunacypmnujalygkunp.jpg,00971960627fa.jpg,sunbbegcweqnetpdlrh.jpg,00620940928fa.jpg,sunacypmnujalygkunp.jpg,,,>,Place,,,,,0,,,,,,,o
55,327,Presentation,1,00095931230fa_sunaahzooisqkwlxwoz.jpg,00270940422fb_sunabllobxadqcyttej.jpg,00095931230fa.jpg,sunaahzooisqkwlxwoz.jpg,00270940422fb.jpg,sunabllobxadqcyttej.jpg,,,>,Place,,,,,1,,,,,,,o
56,327,Presentation,1,00102931230fa_sunaajspcoepticvplv.jpg,00772941201fa_sunafpfpiiujzoesnqg.jpg,00102931230fa.jpg,sunaajspcoepticvplv.jpg,00772941201fa.jpg,sunafpfpiiujzoesnqg.jpg,,,>,Face,,,,,1,,,,,,,o
57,327,Presentation,1,00952960627fa_sunathzzbcwjykldrem.jpg,00112931230fa_sunaakjaacuzulqckgl.jpg,00952960627fa.jpg,sunathzzbcwjykldrem.jpg,00112931230fa.jpg,sunaakjaacuzulqckgl.jpg,,,<,Face,,,,,1,,,,,,,o
58,327,Presentation,1,00090931230fa_sunaahedjlmtqekgyvj.jpg,00116931230fa_sunaakqepfoeqomfgxf.jpg,00090931230fa.jpg,sunaahedjlmtqekgyvj.jpg,00116931230fa.jpg,sunaakqepfoeqomfgxf.jpg,,,<,Place,,,,,1,,,,,,,x
59,327,Presentation,1,00839940307fa_sunaipyohrqlwngaqif.jpg,00705941205fa_sunadtlxenqqxsyjvix.jpg,00839940307fa.jpg,sunaipyohrqlwngaqif.jpg,00705941205fa.jpg,sunadtlxenqqxsyjvix.jpg,,,>,Face,,,,,1,,,,,,,x
60,327,Memory,1,,,,,,,00864940307fa.jpg,,,,,,,,,,,,,,,
61,327,Memory,1,,,,,,,00857940307fa.jpg,,,,,,,,,,,,,,,
62,327,Memory,1,,,,,,,sunacvbrcejzwmcgnoq.jpg,,,,,,,,,,,,,,,
63,327,Memory,1,,,,,,,00112931230fa.jpg,,,,,,,,,,,,,,,
64,327,Memory,1,,,,,,,sunagmwxxwymwojbvgi.jpg,,,,,,,,,,,,,,,
65,327,Memory,1,,,,,,,00787941205fa.jpg,,,,,,,,,,,,,,,
66,327,Memory,1,,,,,,,sunagwswhkvnsmuszlz.jpg,,,,,,,,,,,,,,,
67,327,Memory,1,,,,,,,00562941031fa.jpg,,,,,,,,,,,,,,,
68,327,Memory,1,,,,,,,sunajawzbrlrwafowen.jpg,,,,,,,,,,,,,,,
69,327,Memory,1,,,,,,,sunaletopenvvozhpxc.jpg,,,,,,,,,,,,,,,
70,327,Memory,1,,,,,,,sunahuynahneraqftyz.jpg,,,,,,,,,,,,,,,
71,327,Memory,1,,,,,,,00271940422fa.jpg,,,,,,,,,,,,,,,
72,327,Memory,1,,,,,,,00905960530fa.jpg,,,,,,,,,,,,,,,
73,327,Memory,1,,,,,,,00768941205fa.jpg,,,,,,,,,,,,,,,
74,327,Memory,1,,,,,,,00901960530fa.jpg,,,,,,,,,,,,,,,
75,327,Memory,1,,,,,,,sunafpfpiiujzoesnqg.jpg,,,,,,,,,,,,,,,
76,327,Memory,1,,,,,,,sunaakjaacuzulqckgl.jpg,,,,,,,,,,,,,,,
77,327,Memory,1,,,,,,,sunabmbnddafmywtjjj.jpg,,,,,,,,,,,,,,,
78,327,Memory,1,,,,,,,sunanmoqeyprjjjfxjt.jpg,,,,,,,,,,,,,,,
79,327,Memory,1,,,,,,,sunaiwfobocrruqznsv.jpg,,,,,,,,,,,,,,,
80,327,Memory,1,,,,,,,sunammbnoambmhdxdwd.jpg,,,,,,,,,,,,,,,
81,327,Memory,1,,,,,,,00804960530fa.jpg,,,,,,,,,,,,,,,
82,327,Memory,1,,,,,,,00574940928fa.jpg,,,,,,,,,,,,,,,
83,327,Memory,1,,,,,,,sunarpsxqkduedrrzyi.jpg,,,,,,,,,,,,,,,
84,327,Memory,1,,,,,,,sunathzzbcwjykldrem.jpg,,,,,,,,,,,,,,,
85,327,Memory,1,,,,,,,sunanwjjyqqwzqrqagd.jpg,,,,,,,,,,,,,,,
86,327,Memory,1,,,,,,,00952960627fa.jpg,,,,,,,,,,,,,,,
87,327,Memory,1,,,,,,,00978960627fa.jpg,,,,,,,,,,,,,,,
88,327,Memory,1,,,,,,,00620940928fa.jpg,,,,,,,,,,,,,,,
89,327,Memory,1,,,,,,,00943960627fa.jpg,,,,,,,,,,,,,,,
90,327,Memory,1,,,,,,,sunafkmnlytenlsywia.jpg,,,,,,,,,,,,,,,
91,327,Memory,1,,,,,,,sunaydywdmvlfddbxbk.jpg,,,,,,,,,,,,,,,
92,327,Memory,1,,,,,,,00772941201fa.jpg,,,,,,,,,,,,,,,
93,327,Memory,1,,,,,,,00908960530fa.jpg,,,,,,,,,,,,,,,
94,327,Memory,1,,,,,,,00889960530fa.jpg,,,,,,,,,,,,,,,
95,327,Memory,1,,,,,,,00965960627fa.jpg,,,,,,,,,,,,,,,
96,327,Memory,1,,,,,,,sunacypmnujalygkunp.jpg,,,,,,,,,,,,,,,
97,327,Memory,1,,,,,,,sunacjnahdmqfnjfwqx.jpg,,,,,,,,,,,,,,,
98,327,Memory,1,,,,,,,sunbddbivbptlrlauhy.jpg,,,,,,,,,,,,,,,
99,327,Memory,1,,,,,,,00828940307fa.jpg,,,,,,,,,,,,,,,
100,327,Presentation,2,00938960627fa_sunaqyylsngywqzwfmx.jpg,00969960627fa_sunbaoizrfijvhpnnjn.jpg,00938960627fa.jpg,sunaqyylsngywqzwfmx.jpg,00969960627fa.jpg,sunbaoizrfijvhpnnjn.jpg,,,<,Face,,,,,0,,,,,,,o
101,327,Presentation,2,00184940128fa_sunaavtbadenwnzeutj.jpg,00903960620fa_sunanainkqdvktzoxyl.jpg,00184940128fa.jpg,sunaavtbadenwnzeutj.jpg,00903960620fa.jpg,sunanainkqdvktzoxyl.jpg,,,>,Face,,,,,1,,,,,,,o
102,327,Presentation,2,00098931230fa_sunaajpqmulidejvjsr.jpg,00953960627fa_sunatstrpjxhvtbaczf.jpg,00098931230fa.jpg,sunaajpqmulidejvjsr.jpg,00953960627fa.jpg,sunatstrpjxhvtbaczf.jpg,,,>,Place,,,,,1,,,,,,,x
103,327,Presentation,2,00898960530fa_sunamkmeblgteyggink.jpg,01005960627fa_sunbwyuesflwdpqtgoy.jpg,00898960530fa.jpg,sunamkmeblgteyggink.jpg,01005960627fa.jpg,sunbwyuesflwdpqtgoy.jpg,,,<,Place,,,,,1,,,,,,,o
104,327,Presentation,2,00076931230fa_sunaafewhewbxmjiurz.jpg,00929960627fa_sunaprnrbmgkomdbchr.jpg,00076931230fa.jpg,sunaafewhewbxmjiurz.jpg,00929960627fa.jpg,sunaprnrbmgkomdbchr.jpg,,,<,Face,,,,,1,,,,,,,o
105,327,Presentation,2,00741941201fa_sunaemcowdozyphwknd.jpg,00750941201fa_sunaeuzwggvibufclwf.jpg,00741941201fa.jpg,sunaemcowdozyphwknd.jpg,00750941201fa.jpg,sunaeuzwggvibufclwf.jpg,,,>,Place,,,,,1,,,,,,,o
106,327,Presentation,2,00752960620fa_sunafbwnojpqeyzssoe.jpg,00939960627fa_sunarceibpcyacbmfga.jpg,00752960620fa.jpg,sunafbwnojpqeyzssoe.jpg,00939960627fa.jpg,sunarceibpcyacbmfga.jpg,,,<,Face,,,,,1,,,,,,,o
107,327,Presentation,2,00743941201fa_sunaeoghzrjarigmwua.jpg,00276940422fa_sunabmytpyhsgigllxu.jpg,00743941201fa.jpg,sunaeoghzrjarigmwua.jpg,00276940422fa.jpg,sunabmytpyhsgigllxu.jpg,,,>,Face,,,,,1,,,,,,,x
108,327,Presentation,2,00786941205fa_sunagmhildamktmqjss.jpg,00197940128fa_sunaaylzyqlqrsmfwif.jpg,00786941205fa.jpg,sunagmhildamktmqjss.jpg,00197940128fa.jpg,sunaaylzyqlqrsmfwif.jpg,,,<,Place,,,,,1,,,,,,,x
109,327,Presentation,2,00871940307_sunajrujcsdxmfbssmc.jpg,00801941205fa_sunagvprlbprarvgdvj.jpg,00871940307.jpg,sunajrujcsdxmfbssmc.jpg,00801941205fa.jpg,sunagvprlbprarvgdvj.jpg,,,>,Place,,,,,1,,,,,,,x
110,327,Memory,2,,,,,,,sunaaylzyqlqrsmfwif.jpg,,,,,,,,,,,,,,,
111,327,Memory,2,,,,,,,sunaaxjpzcnxligjtjq.jpg,,,,,,,,,,,,,,,
112,327,Memory,2,,,,,,,sunaaeowapdkwzqpgqr.jpg,,,,,,,,,,,,,,,
113,327,Memory,2,,,,,,,00827940307fa.jpg,,,,,,,,,,,,,,,
114,327,Memory,2,,,,,,,sunbwyuesflwdpqtgoy.jpg,,,,,,,,,,,,,,,
115,327,Memory,2,,,,,,,00288940422fa.jpg,,,,,,,,,,,,,,,
116,327,Memory,2,,,,,,,00969960627fa.jpg,,,,,,,,,,,,,,,
117,327,Memory,2,,,,,,,sunafvcflzhlqloapyo.jpg,,,,,,,,,,,,,,,
118,327,Memory,2,,,,,,,00131931230fb.jpg,,,,,,,,,,,,,,,
119,327,Memory,2,,,,,,,sunaangbuylfvckqqoo.jpg,,,,,,,,,,,,,,,
120,327,Memory,2,,,,,,,00898960530fa.jpg,,,,,,,,,,,,,,,
121,327,Memory,2,,,,,,,sunaajpqmulidejvjsr.jpg,,,,,,,,,,,,,,,
122,327,Memory,2,,,,,,,sunaeuzwggvibufclwf.jpg,,,,,,,,,,,,,,,
123,327,Memory,2,,,,,,,00750941201fa.jpg,,,,,,,,,,,,,,,
124,327,Memory,2,,,,,,,00815941205fa.jpg,,,,,,,,,,,,,,,
125,327,Memory,2,,,,,,,00752960620fa.jpg,,,,,,,,,,,,,,,
126,327,Memory,2,,,,,,,suncnkvbhypnivcohyx.jpg,,,,,,,,,,,,,,,
127,327,Memory,2,,,,,,,00985960627fa.jpg,,,,,,,,,,,,,,,
128,327,Memory,2,,,,,,,sunamkmeblgteyggink.jpg,,,,,,,,,,,,,,,
129,327,Memory,2,,,,,,,sunahiphsekjihkafsl.jpg,,,,,,,,,,,,,,,
130,327,Memory,2,,,,,,,00098931230fa.jpg,,,,,,,,,,,,,,,
131,327,Memory,2,,,,,,,sunaozisvwfbmlkfhzv.jpg,,,,,,,,,,,,,,,
132,327,Memory,2,,,,,,,sunahtfxgsrmkiulnwk.jpg,,,,,,,,,,,,,,,
133,327,Memory,2,,,,,,,00076931230fa.jpg,,,,,,,,,,,,,,,
134,327,Memory,2,,,,,,,00069931230fb.jpg,,,,,,,,,,,,,,,
135,327,Memory,2,,,,,,,00193940928fa.jpg,,,,,,,,,,,,,,,
136,327,Memory,2,,,,,,,00197940128fa.jpg,,,,,,,,,,,,,,,
137,327,Memory,2,,,,,,,sunabppokiyglaxpcha.jpg,,,,,,,,,,,,,,,
138,327,Memory,2,,,,,,,00773941201fa.jpg,,,,,,,,,,,,,,,
139,327,Memory,2,,,,,,,01005960627fa.jpg,,,,,,,,,,,,,,,
140,327,Memory,2,,,,,,,00743941201fa.jpg,,,,,,,,,,,,,,,
141,327,Memory,2,,,,,,,sunbaoizrfijvhpnnjn.jpg,,,,,,,,,,,,,,,
142,327,Memory,2,,,,,,,01010960627fa.jpg,,,,,,,,,,,,,,,
143,327,Memory,2,,,,,,,sunaprnrbmgkomdbchr.jpg,,,,,,,,,,,,,,,
144,327,Memory,2,,,,,,,sunaafewhewbxmjiurz.jpg,,,,,,,,,,,,,,,
145,327,Memory,2,,,,,,,00929960627fa.jpg,,,,,,,,,,,,,,,
146,327,Memory,2,,,,,,,sunbgklxeqjhdbyfhhy.jpg,,,,,,,,,,,,,,,
147,327,Memory,2,,,,,,,00914960620fa.jpg,,,,,,,,,,,,,,,
148,327,Memory,2,,,,,,,sunafbwnojpqeyzssoe.jpg,,,,,,,,,,,,,,,
149,327,Memory,2,,,,,,,sunaeoghzrjarigmwua.jpg,,,,,,,,,,,,,,,
150,327,Presentation,3,00790941205fa_sunagpjzsbltchlwvou.jpg,00062931230fb_sunaaelotvjgibjtjhs.jpg,00790941205fa.jpg,sunagpjzsbltchlwvou.jpg,00062931230fb.jpg,sunaaelotvjgibjtjhs.jpg,,,<,Face,,,,,1,,,,,,,x
151,327,Presentation,3,00933960627fa_sunapwjkcxdaeqehfql.jpg,00077931230fb_sunaafgqutfaishsxyu.jpg,00933960627fa.jpg,sunapwjkcxdaeqehfql.jpg,00077931230fb.jpg,sunaafgqutfaishsxyu.jpg,,,<,Face,,,,,0,,,,,,,o
152,327,Presentation,3,00060931230fa_sunaaehaikpckyjsety.jpg,00869940307fa_sunajoveqhiprwqgoco.jpg,00060931230fa.jpg,sunaaehaikpckyjsety.jpg,00869940307fa.jpg,sunajoveqhiprwqgoco.jpg,,,<,Place,,,,,1,,,,,,,x
153,327,Presentation,3,00581940928fa_sunacvzhvcksnwqcqbw.jpg,00153931230fa_sunaauhozyxzeeqstxi.jpg,00581940928fa.jpg,sunacvzhvcksnwqcqbw.jpg,00153931230fa.jpg,sunaauhozyxzeeqstxi.jpg,,,>,Face,,,,,1,,,,,,,o
154,327,Presentation,3,00876960620fa_sunajwqkfsykceonyig.jpg,00885960530fa_sunakwlvxjpddialozd.jpg,00876960620fa.jpg,sunajwqkfsykceonyig.jpg,00885960530fa.jpg,sunakwlvxjpddialozd.jpg,,,<,Place,,,,,1,,,,,,,x
155,327,Presentation,3,00306940422fa_sunabueyoajufbkraki.jpg,00993960627fa_sunbprywzqxjcezkbch.jpg,00306940422fa.jpg,sunabueyoajufbkraki.jpg,00993960627fa.jpg,sunbprywzqxjcezkbch.jpg,,,>,Face,,,,,1,,,,,,,o
156,327,Presentation,3,00742941201fa_sunaenwuebvlpdmntju.jpg,00805941205fa_sunagwzdbtlixdhgolm.jpg,00742941201fa.jpg,sunaenwuebvlpdmntju.jpg,00805941205fa.jpg,sunagwzdbtlixdhgolm.jpg,,,>,Place,,,,,1,,,,,,,o
157,327,Presentation,3,00280940422fb_sunabohxbskznglnrhv.jpg,00921960627fa_sunapqkpqdfvxlbqwyo.jpg,00280940422fb.jpg,sunabohxbskznglnrhv.jpg,00921960627fa.jpg,sunapqkpqdfvxlbqwyo.jpg,,,>,Place,,,,,1,,,,,,,x
158,327,Presentation,3,00633940928fa_sunadbhmrgrrpyzglxs.jpg,00719960620fa_sunadzuvtmtmgupotmf.jpg,00633940928fa.jpg,sunadbhmrgrrpyzglxs.jpg,00719960620fa.jpg,sunadzuvtmtmgupotmf.jpg,,,<,Place,,,,,1,,,,,,,o
159,327,Presentation,3,00073931230fa_sunaafbmtoniaasysgu.jpg,00794960620fa_sunagtqhhwxjeuxdebe.jpg,00073931230fa.jpg,sunaafbmtoniaasysgu.jpg,00794960620fa.jpg,sunagtqhhwxjeuxdebe.jpg,,,>,Face,,,,,1,,,,,,,o
160,327,Memory,3,,,,,,,00876960620fa.jpg,,,,,,,,,,,,,,,
161,327,Memory,3,,,,,,,00902960530fa.jpg,,,,,,,,,,,,,,,
162,327,Memory,3,,,,,,,00630940928fa.jpg,,,,,,,,,,,,,,,
163,327,Memory,3,,,,,,,sunabeyhmxodahoieyk.jpg,,,,,,,,,,,,,,,
164,327,Memory,3,,,,,,,sunacvzhvcksnwqcqbw.jpg,,,,,,,,,,,,,,,
165,327,Memory,3,,,,,,,sunaanptmsknhirrzed.jpg,,,,,,,,,,,,,,,
166,327,Memory,3,,,,,,,00092931230fa.jpg,,,,,,,,,,,,,,,
167,327,Memory,3,,,,,,,sunaawsdjisukbbginm.jpg,,,,,,,,,,,,,,,
168,327,Memory,3,,,,,,,00191940128fb.jpg,,,,,,,,,,,,,,,
169,327,Memory,3,,,,,,,00633940928fa.jpg,,,,,,,,,,,,,,,
170,327,Memory,3,,,,,,,00245940128fa.jpg,,,,,,,,,,,,,,,
171,327,Memory,3,,,,,,,sunbprywzqxjcezkbch.jpg,,,,,,,,,,,,,,,
172,327,Memory,3,,,,,,,00993960627fa.jpg,,,,,,,,,,,,,,,
173,327,Memory,3,,,,,,,00921960627fa.jpg,,,,,,,,,,,,,,,
174,327,Memory,3,,,,,,,sunaaheqzstzxuadglu.jpg,,,,,,,,,,,,,,,
175,327,Memory,3,,,,,,,sunajrgtewnualfcerj.jpg,,,,,,,,,,,,,,,
176,327,Memory,3,,,,,,,00805941205fa.jpg,,,,,,,,,,,,,,,
177,327,Memory,3,,,,,,,sunarfdklgdnjgeqfjg.jpg,,,,,,,,,,,,,,,
178,327,Memory,3,,,,,,,00987960627fa.jpg,,,,,,,,,,,,,,,
179,327,Memory,3,,,,,,,00885960530fa.jpg,,,,,,,,,,,,,,,
180,327,Memory,3,,,,,,,sunakwlvxjpddialozd.jpg,,,,,,,,,,,,,,,
181,327,Memory,3,,,,,,,sunadbhmrgrrpyzglxs.jpg,,,,,,,,,,,,,,,
182,327,Memory,3,,,,,,,sunaauhozyxzeeqstxi.jpg,,,,,,,,,,,,,,,
183,327,Memory,3,,,,,,,sunaczwgyukesaajxnx.jpg,,,,,,,,,,,,,,,
184,327,Memory,3,,,,,,,00581940928fa.jpg,,,,,,,,,,,,,,,
185,327,Memory,3,,,,,,,00153931230fa.jpg,,,,,,,,,,,,,,,
186,327,Memory,3,,,,,,,00870940307fa.jpg,,,,,,,,,,,,,,,
187,327,Memory,3,,,,,,,sunapwjkcxdaeqehfql.jpg,,,,,,,,,,,,,,,
188,327,Memory,3,,,,,,,00942960627fa.jpg,,,,,,,,,,,,,,,
189,327,Memory,3,,,,,,,00129931230fb.jpg,,,,,,,,,,,,,,,
190,327,Memory,3,,,,,,,sunaamsdyakblkfoydx.jpg,,,,,,,,,,,,,,,
191,327,Memory,3,,,,,,,00073931230fa.jpg,,,,,,,,,,,,,,,
192,327,Memory,3,,,,,,,00136931230fb.jpg,,,,,,,,,,,,,,,
193,327,Memory,3,,,,,,,sunajwqkfsykceonyig.jpg,,,,,,,,,,,,,,,
194,327,Memory,3,,,,,,,sunapqkpqdfvxlbqwyo.jpg,,,,,,,,,,,,,,,
195,327,Memory,3,,,,,,,00933960627fa.jpg,,,,,,,,,,,,,,,
196,327,Memory,3,,,,,,,sunbloeoiozwjjsiamp.jpg,,,,,,,,,,,,,,,
197,327,Memory,3,,,,,,,sunanaacmmosxrfwmvl.jpg,,,,,,,,,,,,,,,
198,327,Memory,3,,,,,,,sunaafbmtoniaasysgu.jpg,,,,,,,,,,,,,,,
199,327,Memory,3,,,,,,,sunagwzdbtlixdhgolm.jpg,,,,,,,,,,,,,,,
200,327,Presentation,4,00638941031fa_sunadfktsqjthoglcsm.jpg,00788941205fa_sunagountlxpzkytsmp.jpg,00638941031fa.jpg,sunadfktsqjthoglcsm.jpg,00788941205fa.jpg,sunagountlxpzkytsmp.jpg,,,>,Place,,,,,1,,,,,,,o
201,327,Presentation,4,00115931230fa_sunaakmxzhuceuiryah.jpg,00308940422fb_sunabwfvcqqidycwypa.jpg,00115931230fa.jpg,sunaakmxzhuceuiryah.jpg,00308940422fb.jpg,sunabwfvcqqidycwypa.jpg,,,>,Place,,,,,1,,,,,,,o
202,327,Presentation,4,00609940928fa_sunacycdoztxoluxjyk.jpg,00996960627fa_sunbpvgllfdejxcpjqp.jpg,00609940928fa.jpg,sunacycdoztxoluxjyk.jpg,00996960627fa.jpg,sunbpvgllfdejxcpjqp.jpg,,,>,Place,,,,,1,,,,,,,o
203,327,Presentation,4,00915960620fa_sunapileznnbbmrwoei.jpg,00313940422fa_sunabwjvmoaddlyxfjr.jpg,00915960620fa.jpg,sunapileznnbbmrwoei.jpg,00313940422fa.jpg,sunabwjvmoaddlyxfjr.jpg,,,<,Place,,,,,1,,,,,,,o
204,327,Presentation,4,00895960530fa_sunamczizlzavhzhpay.jpg,00634940928fa_sunadcphrizvfpljiqt.jpg,00895960530fa.jpg,sunamczizlzavhzhpay.jpg,00634940928fa.jpg,sunadcphrizvfpljiqt.jpg,,,<,Face,,,,,1,,,,,,,o
205,327,Presentation,4,00751960620fa_sunaezuszgtxnmsxdbk.jpg,00554940519fa_sunacfdkbsrughwqwtt.jpg,00751960620fa.jpg,sunaezuszgtxnmsxdbk.jpg,00554940519fa.jpg,sunacfdkbsrughwqwtt.jpg,,,<,Face,,,,,1,,,,,,,x
206,327,Presentation,4,00947960627fa_sunasmmcxdddtmtazwx.jpg,01002960627fb_sunbwaafjdebjzttuvq.jpg,00947960627fa.jpg,sunasmmcxdddtmtazwx.jpg,01002960627fb.jpg,sunbwaafjdebjzttuvq.jpg,,,<,Place,,,,,1,,,,,,,o
207,327,Presentation,4,00663941121fa_sunadnjjzohjhbohlwq.jpg,00859940307fa_sunaiycurtqsfkvcaso.jpg,00663941121fa.jpg,sunadnjjzohjhbohlwq.jpg,00859940307fa.jpg,sunaiycurtqsfkvcaso.jpg,,,>,Face,,,,,1,,,,,,,x
208,327,Presentation,4,00221940128fa_sunabcfpwlpolnutyju.jpg,00568940928fa_sunacsdhbbsybcyxnel.jpg,00221940128fa.jpg,sunabcfpwlpolnutyju.jpg,00568940928fa.jpg,sunacsdhbbsybcyxnel.jpg,,,<,Face,,,,,1,,,,,,,o
209,327,Presentation,4,00783941205fa_sunagjeesomrwjsfqie.jpg,00730960620fa_sunaekgzpfilgjxpeyq.jpg,00783941205fa.jpg,sunagjeesomrwjsfqie.jpg,00730960620fa.jpg,sunaekgzpfilgjxpeyq.jpg,,,>,Face,,,,,1,,,,,,,x
210,327,Memory,4,,,,,,,00819940307fa.jpg,,,,,,,,,,,,,,,
211,327,Memory,4,,,,,,,sunafvsxtzaizojicxx.jpg,,,,,,,,,,,,,,,
212,327,Memory,4,,,,,,,00221940128fa.jpg,,,,,,,,,,,,,,,
213,327,Memory,4,,,,,,,00915960620fa.jpg,,,,,,,,,,,,,,,
214,327,Memory,4,,,,,,,sunagjzcrjvmxzqzljx.jpg,,,,,,,,,,,,,,,
215,327,Memory,4,,,,,,,00949960627fb.jpg,,,,,,,,,,,,,,,
216,327,Memory,4,,,,,,,sunabcfpwlpolnutyju.jpg,,,,,,,,,,,,,,,
217,327,Memory,4,,,,,,,00859940307fa.jpg,,,,,,,,,,,,,,,
218,327,Memory,4,,,,,,,00119931230fb.jpg,,,,,,,,,,,,,,,
219,327,Memory,4,,,,,,,sunacsdhbbsybcyxnel.jpg,,,,,,,,,,,,,,,
220,327,Memory,4,,,,,,,sunasnqkkyhilqkxiqm.jpg,,,,,,,,,,,,,,,
221,327,Memory,4,,,,,,,sunaiycurtqsfkvcaso.jpg,,,,,,,,,,,,,,,
222,327,Memory,4,,,,,,,00751960620fa.jpg,,,,,,,,,,,,,,,
223,327,Memory,4,,,,,,,sunaakvmbftkrgqhjun.jpg,,,,,,,,,,,,,,,
224,327,Memory,4,,,,,,,sunahqldjibofgsfdgb.jpg,,,,,,,,,,,,,,,
225,327,Memory,4,,,,,,,sunapileznnbbmrwoei.jpg,,,,,,,,,,,,,,,
226,327,Memory,4,,,,,,,01009960627fa.jpg,,,,,,,,,,,,,,,
227,327,Memory,4,,,,,,,00922960627fa.jpg,,,,,,,,,,,,,,,
228,327,Memory,4,,,,,,,sunabjzyxcjnmztdonj.jpg,,,,,,,,,,,,,,,
229,327,Memory,4,,,,,,,00554940519fa.jpg,,,,,,,,,,,,,,,
230,327,Memory,4,,,,,,,00609940928fa.jpg,,,,,,,,,,,,,,,
231,327,Memory,4,,,,,,,00788941205fa.jpg,,,,,,,,,,,,,,,
232,327,Memory,4,,,,,,,sunadfktsqjthoglcsm.jpg,,,,,,,,,,,,,,,
233,327,Memory,4,,,,,,,sunacycdoztxoluxjyk.jpg,,,,,,,,,,,,,,,
234,327,Memory,4,,,,,,,sunapqkyghktgtosuuk.jpg,,,,,,,,,,,,,,,
235,327,Memory,4,,,,,,,00810941205fa.jpg,,,,,,,,,,,,,,,
236,327,Memory,4,,,,,,,sunbpvgllfdejxcpjqp.jpg,,,,,,,,,,,,,,,
237,327,Memory,4,,,,,,,00773960620fa.jpg,,,,,,,,,,,,,,,
238,327,Memory,4,,,,,,,sunakgbnzxmfohgehnu.jpg,,,,,,,,,,,,,,,
239,327,Memory,4,,,,,,,00638941031fa.jpg,,,,,,,,,,,,,,,
240,327,Memory,4,,,,,,,00264940128fb.jpg,,,,,,,,,,,,,,,
241,327,Memory,4,,,,,,,sunagountlxpzkytsmp.jpg,,,,,,,,,,,,,,,
242,327,Memory,4,,,,,,,sunaezuszgtxnmsxdbk.jpg,,,,,,,,,,,,,,,
243,327,Memory,4,,,,,,,sunahctntqrunhdxhtb.jpg,,,,,,,,,,,,,,,
244,327,Memory,4,,,,,,,00996960627fa.jpg,,,,,,,,,,,,,,,
245,327,Memory,4,,,,,,,00784941205fb.jpg,,,,,,,,,,,,,,,
246,327,Memory,4,,,,,,,sunbxzweleltykebgan.jpg,,,,,,,,,,,,,,,
247,327,Memory,4,,,,,,,sunacfdkbsrughwqwtt.jpg,,,,,,,,,,,,,,,
248,327,Memory,4,,,,,,,00568940928fa.jpg,,,,,,,,,,,,,,,
249,327,Memory,4,,,,,,,00878960530fa.jpg,,,,,,,,,,,,,,,
250,327,Presentation,5,00973960627fa_sunbbgtoeuzierkkajt.jpg,00803941205fa_sunagvxkjokqimstxpe.jpg,00973960627fa.jpg,sunbbgtoeuzierkkajt.jpg,00803941205fa.jpg,sunagvxkjokqimstxpe.jpg,,,>,Face,,,,,1,,,,,,,o
251,327,Presentation,5,00782941205fa_sunagfvluwixdsozaql.jpg,00745941205fa_sunaeouogqolxvggaoq.jpg,00782941205fa.jpg,sunagfvluwixdsozaql.jpg,00745941205fa.jpg,sunaeouogqolxvggaoq.jpg,,,>,Place,,,,,1,,,,,,,x
252,327,Presentation,5,00777941205fa_sunagcinxkccdtrjmlv.jpg,00771941205fa_sunafowswglhxcsufpo.jpg,00777941205fa.jpg,sunagcinxkccdtrjmlv.jpg,00771941205fa.jpg,sunafowswglhxcsufpo.jpg,,,<,Face,,,,,1,,,,,,,o
253,327,Presentation,5,00096931230fa_sunaaiqiqcggrskoqgy.jpg,00089931230fa_sunaagcpoejbuzyvddd.jpg,00096931230fa.jpg,sunaaiqiqcggrskoqgy.jpg,00089931230fa.jpg,sunaagcpoejbuzyvddd.jpg,,,<,Face,,,,,0,,,,,,,o
254,327,Presentation,5,00807941205fa_sunahawfngukizslzsd.jpg,00154931230fa_sunaauueuhhvklldjik.jpg,00807941205fa.jpg,sunahawfngukizslzsd.jpg,00154931230fa.jpg,sunaauueuhhvklldjik.jpg,,,>,Place,,,,,1,,,,,,,x
255,327,Presentation,5,00892960530fa_sunalntxqqadigcletd.jpg,00957960627fa_sunavhxgmgrqsaptynb.jpg,00892960530fa.jpg,sunalntxqqadigcletd.jpg,00957960627fa.jpg,sunavhxgmgrqsaptynb.jpg,,,>,Face,,,,,1,,,,,,,x
256,327,Presentation,5,00630941031fa_sunadakkdovnuzlycvp.jpg,00792941205fa_sunagsiwrmuixqgdimb.jpg,00630941031fa.jpg,sunadakkdovnuzlycvp.jpg,00792941205fa.jpg,sunagsiwrmuixqgdimb.jpg,,,>,Place,,,,,1,,,,,,,x
257,327,Presentation,5,01004960627fa_sunbwtlihsuptkrckid.jpg,00847940307fa_sunaivdjruhkrfywfed.jpg,01004960627fa.jpg,sunbwtlihsuptkrckid.jpg,00847940307fa.jpg,sunaivdjruhkrfywfed.jpg,,,<,Place,,,,,1,,,,,,,x
258,327,Presentation,5,00125931230fa_sunaalltyvjhbzhkmvg.jpg,00911960530fa_sunaooaqzputrowwbsw.jpg,00125931230fa.jpg,sunaalltyvjhbzhkmvg.jpg,00911960530fa.jpg,sunaooaqzputrowwbsw.jpg,,,<,Face,,,,,1,,,,,,,o
259,327,Presentation,5,00793941205fa_sunagtjwilqjvxohypn.jpg,00955960627fb_sunauburywlkjszngcq.jpg,00793941205fa.jpg,sunagtjwilqjvxohypn.jpg,00955960627fb.jpg,sunauburywlkjszngcq.jpg,,,<,Place,,,,,1,,,,,,,o
260,327,Memory,5,,,,,,,00957960627fa.jpg,,,,,,,,,,,,,,,
261,327,Memory,5,,,,,,,sunbondbduabvijnmch.jpg,,,,,,,,,,,,,,,
262,327,Memory,5,,,,,,,00266940128fb.jpg,,,,,,,,,,,,,,,
263,327,Memory,5,,,,,,,sunagfvluwixdsozaql.jpg,,,,,,,,,,,,,,,
264,327,Memory,5,,,,,,,sunaizeyhvjzknwjudw.jpg,,,,,,,,,,,,,,,
265,327,Memory,5,,,,,,,sunbwtlihsuptkrckid.jpg,,,,,,,,,,,,,,,
266,327,Memory,5,,,,,,,00766960620fa.jpg,,,,,,,,,,,,,,,
267,327,Memory,5,,,,,,,00829940307fa.jpg,,,,,,,,,,,,,,,
268,327,Memory,5,,,,,,,00847940307fa.jpg,,,,,,,,,,,,,,,
269,327,Memory,5,,,,,,,sunagsiwrmuixqgdimb.jpg,,,,,,,,,,,,,,,
270,327,Memory,5,,,,,,,00803941205fa.jpg,,,,,,,,,,,,,,,
271,327,Memory,5,,,,,,,sunabasphceswhwwqvv.jpg,,,,,,,,,,,,,,,
272,327,Memory,5,,,,,,,sunadakkdovnuzlycvp.jpg,,,,,,,,,,,,,,,
273,327,Memory,5,,,,,,,sunafowswglhxcsufpo.jpg,,,,,,,,,,,,,,,
274,327,Memory,5,,,,,,,00892960530fa.jpg,,,,,,,,,,,,,,,
275,327,Memory,5,,,,,,,sunaivdjruhkrfywfed.jpg,,,,,,,,,,,,,,,
276,327,Memory,5,,,,,,,sunakodkcslgqhqlgwl.jpg,,,,,,,,,,,,,,,
277,327,Memory,5,,,,,,,00305940422fa.jpg,,,,,,,,,,,,,,,
278,327,Memory,5,,,,,,,sunabtrnbvpppgczjim.jpg,,,,,,,,,,,,,,,
279,327,Memory,5,,,,,,,00782941205fa.jpg,,,,,,,,,,,,,,,
280,327,Memory,5,,,,,,,00630941031fa.jpg,,,,,,,,,,,,,,,
281,327,Memory,5,,,,,,,sunahwgbqkqcrwprgvh.jpg,,,,,,,,,,,,,,,
282,327,Memory,5,,,,,,,00807941205fa.jpg,,,,,,,,,,,,,,,
283,327,Memory,5,,,,,,,00884960530fa.jpg,,,,,,,,,,,,,,,
284,327,Memory,5,,,,,,,00123931230fb.jpg,,,,,,,,,,,,,,,
285,327,Memory,5,,,,,,,sunavhxgmgrqsaptynb.jpg,,,,,,,,,,,,,,,
286,327,Memory,5,,,,,,,00211940128fa.jpg,,,,,,,,,,,,,,,
287,327,Memory,5,,,,,,,sunabkngeblodihjvbk.jpg,,,,,,,,,,,,,,,
288,327,Memory,5,,,,,,,01004960627fa.jpg,,,,,,,,,,,,,,,
289,327,Memory,5,,,,,,,sunbvbrvgbpanfrawft.jpg,,,,,,,,,,,,,,,
290,327,Memory,5,,,,,,,00771941205fa.jpg,,,,,,,,,,,,,,,
291,327,Memory,5,,,,,,,00999960627fa.jpg,,,,,,,,,,,,,,,
292,327,Memory,5,,,,,,,sunafijbgncijwykrnl.jpg,,,,,,,,,,,,,,,
293,327,Memory,5,,,,,,,sunagvxkjokqimstxpe.jpg,,,,,,,,,,,,,,,
294,327,Memory,5,,,,,,,00989960627fa.jpg,,,,,,,,,,,,,,,
295,327,Memory,5,,,,,,,00792941205fa.jpg,,,,,,,,,,,,,,,
296,327,Memory,5,,,,,,,sunaalcrrdbjgdztbiz.jpg,,,,,,,,,,,,,,,
297,327,Memory,5,,,,,,,00860940307fa.jpg,,,,,,,,,,,,,,,
298,327,Memory,5,,,,,,,sunahawfngukizslzsd.jpg,,,,,,,,,,,,,,,
299,327,Memory,5,,,,,,,sunalntxqqadigcletd.jpg,,,,,,,,,,,,,,,
300,327,Presentation,6,00785941205fa_sunaglqunwuycxydmyu.jpg,00111931230fb_sunaakgekhjklxmvulj.jpg,00785941205fa.jpg,sunaglqunwuycxydmyu.jpg,00111931230fb.jpg,sunaakgekhjklxmvulj.jpg,,,<,Face,,,,,1,,,,,,,x
301,327,Presentation,6,01011960627fa_sundahdxwmcdluscvot.jpg,00260940128fa_sunabgfhvifeijihhjw.jpg,01011960627fa.jpg,sundahdxwmcdluscvot.jpg,00260940128fa.jpg,sunabgfhvifeijihhjw.jpg,,,<,Place,,,,,1,,,,,,,x
302,327,Presentation,6,00093931230fa_sunaahwnmtqsrhocysw.jpg,00762941201fa_sunafgzgbisbopcyslr.jpg,00093931230fa.jpg,sunaahwnmtqsrhocysw.jpg,00762941201fa.jpg,sunafgzgbisbopcyslr.jpg,,,<,Face,,,,,1,,,,,,,x
303,327,Presentation,6,00966960627fa_sunaygrtwrwfezqjizr.jpg,00967960627fa_sunbaejotfklekvpxcz.jpg,00966960627fa.jpg,sunaygrtwrwfezqjizr.jpg,00967960627fa.jpg,sunbaejotfklekvpxcz.jpg,,,>,Face,,,,,1,,,,,,,x
304,327,Presentation,6,00968960627fa_sunbagfpovqwbuexqdn.jpg,00979960627fa_sunbdycacjfaujxitbw.jpg,00968960627fa.jpg,sunbagfpovqwbuexqdn.jpg,00979960627fa.jpg,sunbdycacjfaujxitbw.jpg,,,>,Place,,,,,1,,,,,,,x
305,327,Presentation,6,00498960627fa_sunabzjxlmkwnwzimua.jpg,00543940519fa_sunacepzfrmtkiqonpy.jpg,00498960627fa.jpg,sunabzjxlmkwnwzimua.jpg,00543940519fa.jpg,sunacepzfrmtkiqonpy.jpg,,,<,Face,,,,,0,,,,,,,o
306,327,Presentation,6,00700941121fa_sunadsgmtznewzyasnk.jpg,00071940128fa_sunaaexpnawiehinlpy.jpg,00700941121fa.jpg,sunadsgmtznewzyasnk.jpg,00071940128fa.jpg,sunaaexpnawiehinlpy.jpg,,,<,Place,,,,,1,,,,,,,x
307,327,Presentation,6,00529940519fa_sunacbeefkxpymwevpk.jpg,00185940422fb_sunaawqdbpihmlbwyyn.jpg,00529940519fa.jpg,sunacbeefkxpymwevpk.jpg,00185940422fb.jpg,sunaawqdbpihmlbwyyn.jpg,,,>,Place,,,,,1,,,,,,,o
308,327,Presentation,6,00887960530_sunalcrtwiycqobgelp.jpg,00961960627fa_sunawotxrevnqvamsfp.jpg,00887960530.jpg,sunalcrtwiycqobgelp.jpg,00961960627fa.jpg,sunawotxrevnqvamsfp.jpg,,,>,Place,,,,,1,,,,,,,o
309,327,Presentation,6,00723941201fa_sunaedtgwjvvziytspa.jpg,00650941031fa_sunadikxpvqeabxrvvc.jpg,00723941201fa.jpg,sunaedtgwjvvziytspa.jpg,00650941031fa.jpg,sunadikxpvqeabxrvvc.jpg,,,>,Face,,,,,1,,,,,,,x
310,327,Memory,6,,,,,,,00774941201fa.jpg,,,,,,,,,,,,,,,
311,327,Memory,6,,,,,,,sunadikxpvqeabxrvvc.jpg,,,,,,,,,,,,,,,
312,327,Memory,6,,,,,,,sunabzjxlmkwnwzimua.jpg,,,,,,,,,,,,,,,
313,327,Memory,6,,,,,,,sunachtuarilwyqnvjx.jpg,,,,,,,,,,,,,,,
314,327,Memory,6,,,,,,,sunbdycacjfaujxitbw.jpg,,,,,,,,,,,,,,,
315,327,Memory,6,,,,,,,sunavspxmxubqaeidjt.jpg,,,,,,,,,,,,,,,
316,327,Memory,6,,,,,,,sundahdxwmcdluscvot.jpg,,,,,,,,,,,,,,,
317,327,Memory,6,,,,,,,00290940422fa.jpg,,,,,,,,,,,,,,,
318,327,Memory,6,,,,,,,sunadsgmtznewzyasnk.jpg,,,,,,,,,,,,,,,
319,327,Memory,6,,,,,,,00958960627fa.jpg,,,,,,,,,,,,,,,
320,327,Memory,6,,,,,,,00557940519fa.jpg,,,,,,,,,,,,,,,
321,327,Memory,6,,,,,,,00498960627fa.jpg,,,,,,,,,,,,,,,
322,327,Memory,6,,,,,,,00124931230fa.jpg,,,,,,,,,,,,,,,
323,327,Memory,6,,,,,,,sunadkazmlajmohnwfl.jpg,,,,,,,,,,,,,,,
324,327,Memory,6,,,,,,,01011960627fa.jpg,,,,,,,,,,,,,,,
325,327,Memory,6,,,,,,,00144931230fb.jpg,,,,,,,,,,,,,,,
326,327,Memory,6,,,,,,,00961960627fa.jpg,,,,,,,,,,,,,,,
327,327,Memory,6,,,,,,,00967960627fa.jpg,,,,,,,,,,,,,,,
328,327,Memory,6,,,,,,,sunaahwnmtqsrhocysw.jpg,,,,,,,,,,,,,,,
329,327,Memory,6,,,,,,,sunabqowuarvqqcnipn.jpg,,,,,,,,,,,,,,,
330,327,Memory,6,,,,,,,sunaalhlvzmjmitybdn.jpg,,,,,,,,,,,,,,,
331,327,Memory,6,,,,,,,00130931230fa.jpg,,,,,,,,,,,,,,,
332,327,Memory,6,,,,,,,sunawotxrevnqvamsfp.jpg,,,,,,,,,,,,,,,
333,327,Memory,6,,,,,,,sunaamvxnvouicstkjb.jpg,,,,,,,,,,,,,,,
334,327,Memory,6,,,,,,,sunbaejotfklekvpxcz.jpg,,,,,,,,,,,,,,,
335,327,Memory,6,,,,,,,sunafvtpfczkzopbgue.jpg,,,,,,,,,,,,,,,
336,327,Memory,6,,,,,,,00111931230fb.jpg,,,,,,,,,,,,,,,
337,327,Memory,6,,,,,,,00968960627fa.jpg,,,,,,,,,,,,,,,
338,327,Memory,6,,,,,,,sunaakgekhjklxmvulj.jpg,,,,,,,,,,,,,,,
339,327,Memory,6,,,,,,,sunaathajvxrgptwhoj.jpg,,,,,,,,,,,,,,,
340,327,Memory,6,,,,,,,sunaajqmsaavkmgbsth.jpg,,,,,,,,,,,,,,,
341,327,Memory,6,,,,,,,00662941121fa.jpg,,,,,,,,,,,,,,,
342,327,Memory,6,,,,,,,00979960627fa.jpg,,,,,,,,,,,,,,,
343,327,Memory,6,,,,,,,sunbagfpovqwbuexqdn.jpg,,,,,,,,,,,,,,,
344,327,Memory,6,,,,,,,00101931230fb.jpg,,,,,,,,,,,,,,,
345,327,Memory,6,,,,,,,00093931230fa.jpg,,,,,,,,,,,,,,,
346,327,Memory,6,,,,,,,00919960620fa.jpg,,,,,,,,,,,,,,,
347,327,Memory,6,,,,,,,sunapmfmzadmosuogaz.jpg,,,,,,,,,,,,,,,
348,327,Memory,6,,,,,,,00700941121fa.jpg,,,,,,,,,,,,,,,
349,327,Memory,6,,,,,,,00650941031fa.jpg,,,,,,,,,,,,,,,
350,327,Presentation,7,00925960627fa_sunapqwnqzxlsfvgsjm.jpg,00086931230fa_sunaafynehyrzpsoaml.jpg,00925960627fa.jpg,sunapqwnqzxlsfvgsjm.jpg,00086931230fa.jpg,sunaafynehyrzpsoaml.jpg,,,>,Face,,,,,1,,,,,,,o
351,327,Presentation,7,00292940422fb_sunabrjdpmoedcdjbpo.jpg,00982960627fa_sunbesrwkdsffeogeqq.jpg,00292940422fb.jpg,sunabrjdpmoedcdjbpo.jpg,00982960627fa.jpg,sunbesrwkdsffeogeqq.jpg,,,<,Face,,,,,1,,,,,,,o
352,327,Presentation,7,00796941205fa_sunaguchqqnrtodtezq.jpg,00959960627fa_sunavxokzybtomhbmvm.jpg,00796941205fa.jpg,sunaguchqqnrtodtezq.jpg,00959960627fa.jpg,sunavxokzybtomhbmvm.jpg,,,>,Face,,,,,1,,,,,,,o
353,327,Presentation,7,00267940128fb_sunablfqiwfqomjarht.jpg,00218940128fa_sunabbwggenhfbftyvi.jpg,00267940128fb.jpg,sunablfqiwfqomjarht.jpg,00218940128fa.jpg,sunabbwggenhfbftyvi.jpg,,,>,Place,,,,,1,,,,,,,x
354,327,Presentation,7,00913960530fa_sunaooffzffbhcpirmm.jpg,00944960627fa_sunasbbntuiheekqyaq.jpg,00913960530fa.jpg,sunaooffzffbhcpirmm.jpg,00944960627fa.jpg,sunasbbntuiheekqyaq.jpg,,,>,Place,,,,,1,,,,,,,o
355,327,Presentation,7,00140931230fb_sunaapllqyqlykszopd.jpg,00296940422fa_sunabrwnslxalcohfre.jpg,00140931230fb.jpg,sunaapllqyqlykszopd.jpg,00296940422fa.jpg,sunabrwnslxalcohfre.jpg,,,<,Face,,,,,1,,,,,,,o
356,327,Presentation,7,00227940128fa_sunabckqabszusgcykj.jpg,00780960530fa_sunagetqixeypsysbpn.jpg,00227940128fa.jpg,sunabckqabszusgcykj.jpg,00780960530fa.jpg,sunagetqixeypsysbpn.jpg,,,<,Place,,,,,1,,,,,,,x
357,327,Presentation,7,00778941205fa_sunagcthdfirrcawoic.jpg,00812941205fa_sunahgtbwgsmtqeodwh.jpg,00778941205fa.jpg,sunagcthdfirrcawoic.jpg,00812941205fa.jpg,sunahgtbwgsmtqeodwh.jpg,,,<,Face,,,,,1,,,,,,,x
358,327,Presentation,7,00314940422fa_sunabwmcbaxwioksdgw.jpg,00082931230fa_sunaafvitpexrpvumsa.jpg,00314940422fa.jpg,sunabwmcbaxwioksdgw.jpg,00082931230fa.jpg,sunaafvitpexrpvumsa.jpg,,,>,Place,,,,,0,,,,,,,x
359,327,Presentation,7,00122931230fa_sunaakxjfbrrequcjmx.jpg,00797960620fa_sunagufzbeteqdjxais.jpg,00122931230fa.jpg,sunaakxjfbrrequcjmx.jpg,00797960620fa.jpg,sunagufzbeteqdjxais.jpg,,,<,Place,,,,,1,,,,,,,x
360,327,Memory,7,,,,,,,sunaakxjfbrrequcjmx.jpg,,,,,,,,,,,,,,,
361,327,Memory,7,,,,,,,00122931230fa.jpg,,,,,,,,,,,,,,,
362,327,Memory,7,,,,,,,00267940128fb.jpg,,,,,,,,,,,,,,,
363,327,Memory,7,,,,,,,00314940422fa.jpg,,,,,,,,,,,,,,,
364,327,Memory,7,,,,,,,sunaatpkocdkocwxpkb.jpg,,,,,,,,,,,,,,,
365,327,Memory,7,,,,,,,sunalqmfgeadpqsyzpd.jpg,,,,,,,,,,,,,,,
366,327,Memory,7,,,,,,,00479940519fa.jpg,,,,,,,,,,,,,,,
367,327,Memory,7,,,,,,,sunacsaovnjezqwbykf.jpg,,,,,,,,,,,,,,,
368,327,Memory,7,,,,,,,00082931230fa.jpg,,,,,,,,,,,,,,,
369,327,Memory,7,,,,,,,00589940928fa.jpg,,,,,,,,,,,,,,,
370,327,Memory,7,,,,,,,00648941031fa.jpg,,,,,,,,,,,,,,,
371,327,Memory,7,,,,,,,sunabrjdpmoedcdjbpo.jpg,,,,,,,,,,,,,,,
372,327,Memory,7,,,,,,,sunaafynehyrzpsoaml.jpg,,,,,,,,,,,,,,,
373,327,Memory,7,,,,,,,sunabbwggenhfbftyvi.jpg,,,,,,,,,,,,,,,
374,327,Memory,7,,,,,,,sunacwggadqsfpovdjv.jpg,,,,,,,,,,,,,,,
375,327,Memory,7,,,,,,,00292940422fb.jpg,,,,,,,,,,,,,,,
376,327,Memory,7,,,,,,,sunaizgnnplsvajzhkc.jpg,,,,,,,,,,,,,,,
377,327,Memory,7,,,,,,,sunadfndyrtqqiasoig.jpg,,,,,,,,,,,,,,,
378,327,Memory,7,,,,,,,sunaauglwmctnkxyird.jpg,,,,,,,,,,,,,,,
379,327,Memory,7,,,,,,,00719941201fa.jpg,,,,,,,,,,,,,,,
380,327,Memory,7,,,,,,,sunabxsbfwjccqxxzxq.jpg,,,,,,,,,,,,,,,
381,327,Memory,7,,,,,,,00812941205fa.jpg,,,,,,,,,,,,,,,
382,327,Memory,7,,,,,,,00218940128fa.jpg,,,,,,,,,,,,,,,
383,327,Memory,7,,,,,,,00894960620fa.jpg,,,,,,,,,,,,,,,
384,327,Memory,7,,,,,,,sunadvithllcgmfxsrn.jpg,,,,,,,,,,,,,,,
385,327,Memory,7,,,,,,,00086931230fa.jpg,,,,,,,,,,,,,,,
386,327,Memory,7,,,,,,,sunabwmcbaxwioksdgw.jpg,,,,,,,,,,,,,,,
387,327,Memory,7,,,,,,,sunahgtbwgsmtqeodwh.jpg,,,,,,,,,,,,,,,
388,327,Memory,7,,,,,,,00982960627fa.jpg,,,,,,,,,,,,,,,
389,327,Memory,7,,,,,,,00149931230fa.jpg,,,,,,,,,,,,,,,
390,327,Memory,7,,,,,,,00778941205fa.jpg,,,,,,,,,,,,,,,
391,327,Memory,7,,,,,,,00147931230fb.jpg,,,,,,,,,,,,,,,
392,327,Memory,7,,,,,,,sunaffstbkappprzxnv.jpg,,,,,,,,,,,,,,,
393,327,Memory,7,,,,,,,00760960620fa.jpg,,,,,,,,,,,,,,,
394,327,Memory,7,,,,,,,sunaafvitpexrpvumsa.jpg,,,,,,,,,,,,,,,
395,327,Memory,7,,,,,,,00862940307fa.jpg,,,,,,,,,,,,,,,
396,327,Memory,7,,,,,,,sunablfqiwfqomjarht.jpg,,,,,,,,,,,,,,,
397,327,Memory,7,,,,,,,sunbesrwkdsffeogeqq.jpg,,,,,,,,,,,,,,,
398,327,Memory,7,,,,,,,00564941031fa.jpg,,,,,,,,,,,,,,,
399,327,Memory,7,,,,,,,sunagcthdfirrcawoic.jpg,,,,,,,,,,,,,,,
