,Subject,Trial Type,Run,Cued Composite,Uncued Composite,Cued Face,Cued Place,Uncued Face,Uncued Place,Memory Image,Category,Cued Side,Cued Category,Attention Reaction Time (s),Familiarity Reaction Time (s),Familiarity Rating,Attention Level,Cue Validity,Post Invalid Cue,Pre Invalid Cue,Attention Button,Rating History,Stimulus Onset,Stimulus End,Attention Probe
110,327,Memory,2,,,,,,,sunaaylzyqlqrsmfwif.jpg,,,,,1.138,1.0,,,,,,,1553697769.465592,1553697771.567176,
111,327,Memory,2,,,,,,,sunaaxjpzcnxligjtjq.jpg,,,,,1.783,3.0,,,,,,,1553697772.866765,1553697774.8538,
112,327,Memory,2,,,,,,,sunaaeowapdkwzqpgqr.jpg,,,,,1.137,2.0,,,,,,,1553697776.150854,1553697778.113723,
113,327,Memory,2,,,,,,,00827940307fa.jpg,,,,,1.342,1.0,,,,,,,1553697779.40223,1553697781.381606,
114,327,Memory,2,,,,,,,sunbwyuesflwdpqtgoy.jpg,,,,,1.189,3.0,,,,,,,1553697782.65237,1553697784.616329,
115,327,Memory,2,,,,,,,00288940422fa.jpg,,,,,1.641,2.0,,,,,,,1553697785.904431,1553697787.915655,
116,327,Memory,2,,,,,,,00969960627fa.jpg,,,,,0.875,2.0,,,,,,,1553697789.188738,1553697791.185041,
117,327,Memory,2,,,,,,,sunafvcflzhlqloapyo.jpg,,,,,0.985,1.0,,,,,,,1553697792.451023,1553697794.419603,
118,327,Memory,2,,,,,,,00131931230fb.jpg,,,,,1.173,3.0,,,,,,,1553697795.707095,1553697797.686158,
119,327,Memory,2,,,,,,,sunaangbuylfvckqqoo.jpg,,,,,1.203,2.0,,,,,,,1553697798.975399,1553697800.974155,
120,327,Memory,2,,,,,,,00898960530fa.jpg,,,,,0.982,1.0,,,,,,,1553697802.253875,1553697804.239193,
121,327,Memory,2,,,,,,,sunaajpqmulidejvjsr.jpg,,,,,1.136,1.0,,,,,,,1553697805.527529,1553697807.505628,
122,327,Memory,2,,,,,,,sunaeuzwggvibufclwf.jpg,,,,,0.704,1.0,,,,,,,1553697808.79496,1553697810.760891,
123,327,Memory,2,,,,,,,00750941201fa.jpg,,,,,1.638,1.0,,,,,,,1553697812.023775,1553697813.991987,
124,327,Memory,2,,,,,,,00815941205fa.jpg,,,,,1.34,1.0,,,,,,,1553697815.26337,1553697817.26709,
125,327,Memory,2,,,,,,,00752960620fa.jpg,,,,,1.407,1.0,,,,,,,1553697818.532373,1553697820.52764,
126,327,Memory,2,,,,,,,suncnkvbhypnivcohyx.jpg,,,,,1.431,2.0,,,,,,,1553697821.799279,1553697823.795423,
127,327,Memory,2,,,,,,,00985960627fa.jpg,,,,,0.985,1.0,,,,,,,1553697825.084202,1553697827.049075,
128,327,Memory,2,,,,,,,sunamkmeblgteyggink.jpg,,,,,1.634,4.0,,,,,,,1553697828.33483,1553697830.314511,
129,327,Memory,2,,,,,,,sunahiphsekjihkafsl.jpg,,,,,1.491,2.0,,,,,,,1553697831.568681,1553697833.537195,
130,327,Memory,2,,,,,,,00098931230fa.jpg,,,,,0.899,1.0,,,,,,,1553697834.786687,1553697836.750874,
131,327,Memory,2,,,,,,,sunaozisvwfbmlkfhzv.jpg,,,,,1.05,1.0,,,,,,,1553697838.020672,1553697840.017162,
132,327,Memory,2,,,,,,,sunahtfxgsrmkiulnwk.jpg,,,,,0.0,,,,,,,,1553697841.288946,1553697843.267744,
133,327,Memory,2,,,,,,,00076931230fa.jpg,,,,,0.0,,,,,,,,1553697844.573742,1553697846.558153,
134,327,Memory,2,,,,,,,00069931230fb.jpg,,,,,0.674,1.0,,,,,,,1553697847.818778,1553697849.787089,
135,327,Memory,2,,,,,,,00193940928fa.jpg,,,,,0.487,1.0,,,,,,,1553697851.03684,1553697853.012122,
136,327,Memory,2,,,,,,,00197940128fa.jpg,,,,,0.467,1.0,,,,,,,1553697854.293473,1553697856.26275,
137,327,Memory,2,,,,,,,sunabppokiyglaxpcha.jpg,,,,,1.002,2.0,,,,,,,1553697857.544471,1553697859.507527,
138,327,Memory,2,,,,,,,00773941201fa.jpg,,,,,1.989,1.0,,,,,,,1553697860.84484,1553697862.82839,
139,327,Memory,2,,,,,,,01005960627fa.jpg,,,,,0.0,,,,,,,,1553697864.096792,1553697866.092369,
140,327,Memory,2,,,,,,,00743941201fa.jpg,,,,,0.933,1.0,,,,,,,1553697867.346031,1553697869.310659,
141,327,Memory,2,,,,,,,sunbaoizrfijvhpnnjn.jpg,,,,,1.104,3.0,,,,,,,1553697870.564829,1553697872.527581,
142,327,Memory,2,,,,,,,01010960627fa.jpg,,,,,0.758,2.0,,,,,,,1553697873.799658,1553697875.831536,
143,327,Memory,2,,,,,,,sunaprnrbmgkomdbchr.jpg,,,,,1.307,3.0,,,,,,,1553697877.116608,1553697879.097448,
144,327,Memory,2,,,,,,,sunaafewhewbxmjiurz.jpg,,,,,1.631,3.0,,,,,,,1553697880.368606,1553697882.363677,
145,327,Memory,2,,,,,,,00929960627fa.jpg,,,,,0.898,2.0,,,,,,,1553697883.637011,1553697885.617125,
146,327,Memory,2,,,,,,,sunbgklxeqjhdbyfhhy.jpg,,,,,1.604,2.0,,,,,,,1553697886.869977,1553697888.832917,
147,327,Memory,2,,,,,,,00914960620fa.jpg,,,,,0.588,2.0,,,,,,,1553697890.083696,1553697892.057708,
148,327,Memory,2,,,,,,,sunafbwnojpqeyzssoe.jpg,,,,,1.426,3.0,,,,,,,1553697893.42251,1553697895.402255,
149,327,Memory,2,,,,,,,sunaeoghzrjarigmwua.jpg,,,,,1.069,1.0,,,,,,,1553697896.690729,1553697898.653671,
