,Subject,Trial Type,Run,Cued Composite,Uncued Composite,Cued Face,Cued Place,Uncued Face,Uncued Place,Memory Image,Category,Cued Side,Cued Category,Attention Reaction Time (s),Familiarity Reaction Time (s),Familiarity Rating,Attention Level,Cue Validity,Post Invalid Cue,Pre Invalid Cue,Attention Button,Rating History,Stimulus Onset,Stimulus End,Attention Probe
0,18,Presentation,0,00919960620fa_sunapmfmzadmosuogaz.jpg,00548940519fa_sunacerqowiaeoqkmsq.jpg,00919960620fa.jpg,sunapmfmzadmosuogaz.jpg,00548940519fa.jpg,sunacerqowiaeoqkmsq.jpg,,,<,Place,,,,,1,,,,,,,x
1,18,Presentation,0,00985960627fa_sunbgklxeqjhdbyfhhy.jpg,00145931230fb_sunaatjesvdupctftmn.jpg,00985960627fa.jpg,sunbgklxeqjhdbyfhhy.jpg,00145931230fb.jpg,sunaatjesvdupctftmn.jpg,,,>,Place,,,,,1,,,,,,,x
2,18,Presentation,0,00481940519fa_sunabxsuqbleluwczoy.jpg,00866940307fa_sunajbwkywmsqkldfml.jpg,00481940519fa.jpg,sunabxsuqbleluwczoy.jpg,00866940307fa.jpg,sunajbwkywmsqkldfml.jpg,,,>,Face,,,,,1,,,,,,,x
3,18,Presentation,0,00789960620fa_sunagpancjmxqfazssf.jpg,00218940128fa_sunabbwggenhfbftyvi.jpg,00789960620fa.jpg,sunagpancjmxqfazssf.jpg,00218940128fa.jpg,sunabbwggenhfbftyvi.jpg,,,>,Face,,,,,1,,,,,,,x
4,18,Presentation,0,00576941031fa_sunacvjlsylseoghjup.jpg,00794960620fa_sunagtqhhwxjeuxdebe.jpg,00576941031fa.jpg,sunacvjlsylseoghjup.jpg,00794960620fa.jpg,sunagtqhhwxjeuxdebe.jpg,,,<,Face,,,,,1,,,,,,,o
5,18,Presentation,0,00070940307fa_sunaaeplwsfslcbtojr.jpg,00723941201fa_sunaedtgwjvvziytspa.jpg,00070940307fa.jpg,sunaaeplwsfslcbtojr.jpg,00723941201fa.jpg,sunaedtgwjvvziytspa.jpg,,,>,Face,,,,,1,,,,,,,x
6,18,Presentation,0,00905960530fa_sunanmoqeyprjjjfxjt.jpg,00935960627fa_sunaqbmgkgqucajzrkp.jpg,00905960530fa.jpg,sunanmoqeyprjjjfxjt.jpg,00935960627fa.jpg,sunaqbmgkgqucajzrkp.jpg,,,>,Place,,,,,1,,,,,,,x
7,18,Presentation,0,00901960530fa_sunammbnoambmhdxdwd.jpg,00163931230fb_sunaavodbcpygkggnfp.jpg,00901960530fa.jpg,sunammbnoambmhdxdwd.jpg,00163931230fb.jpg,sunaavodbcpygkggnfp.jpg,,,<,Face,,,,,1,,,,,,,x
8,18,Presentation,0,00793941205fa_sunagtjwilqjvxohypn.jpg,00997960627fa_sunbtpilbhhbmhmeuzq.jpg,00793941205fa.jpg,sunagtjwilqjvxohypn.jpg,00997960627fa.jpg,sunbtpilbhhbmhmeuzq.jpg,,,<,Place,,,,,1,,,,,,,o
9,18,Presentation,0,00859940307fa_sunaiycurtqsfkvcaso.jpg,00925960627fa_sunapqwnqzxlsfvgsjm.jpg,00859940307fa.jpg,sunaiycurtqsfkvcaso.jpg,00925960627fa.jpg,sunapqwnqzxlsfvgsjm.jpg,,,<,Place,,,,,1,,,,,,,x
10,18,Memory,0,,,,,,,sunadikxpvqeabxrvvc.jpg,,,,,,,,,,,,,,,
11,18,Memory,0,,,,,,,sunaalltyvjhbzhkmvg.jpg,,,,,,,,,,,,,,,
12,18,Memory,0,,,,,,,sunbgklxeqjhdbyfhhy.jpg,,,,,,,,,,,,,,,
13,18,Memory,0,,,,,,,sunaahwnmtqsrhocysw.jpg,,,,,,,,,,,,,,,
14,18,Memory,0,,,,,,,sunaeuzwggvibufclwf.jpg,,,,,,,,,,,,,,,
15,18,Memory,0,,,,,,,00919960620fa.jpg,,,,,,,,,,,,,,,
16,18,Memory,0,,,,,,,sunaqbmgkgqucajzrkp.jpg,,,,,,,,,,,,,,,
17,18,Memory,0,,,,,,,sunaaylzyqlqrsmfwif.jpg,,,,,,,,,,,,,,,
18,18,Memory,0,,,,,,,sunaivflshbyfrfzhqb.jpg,,,,,,,,,,,,,,,
19,18,Memory,0,,,,,,,00093931230fa.jpg,,,,,,,,,,,,,,,
20,18,Memory,0,,,,,,,00825940307fa.jpg,,,,,,,,,,,,,,,
21,18,Memory,0,,,,,,,00985960627fa.jpg,,,,,,,,,,,,,,,
22,18,Memory,0,,,,,,,00997960627fa.jpg,,,,,,,,,,,,,,,
23,18,Memory,0,,,,,,,00859940307fa.jpg,,,,,,,,,,,,,,,
24,18,Memory,0,,,,,,,00773941201fa.jpg,,,,,,,,,,,,,,,
25,18,Memory,0,,,,,,,sunadpnqovzckyikrjo.jpg,,,,,,,,,,,,,,,
26,18,Memory,0,,,,,,,00750941201fa.jpg,,,,,,,,,,,,,,,
27,18,Memory,0,,,,,,,00676941121fa.jpg,,,,,,,,,,,,,,,
28,18,Memory,0,,,,,,,sunajbwkywmsqkldfml.jpg,,,,,,,,,,,,,,,
29,18,Memory,0,,,,,,,00723941201fa.jpg,,,,,,,,,,,,,,,
30,18,Memory,0,,,,,,,00197940128fa.jpg,,,,,,,,,,,,,,,
31,18,Memory,0,,,,,,,00070940307fa.jpg,,,,,,,,,,,,,,,
32,18,Memory,0,,,,,,,00935960627fa.jpg,,,,,,,,,,,,,,,
33,18,Memory,0,,,,,,,sunaedtgwjvvziytspa.jpg,,,,,,,,,,,,,,,
34,18,Memory,0,,,,,,,00125931230fa.jpg,,,,,,,,,,,,,,,
35,18,Memory,0,,,,,,,00548940519fa.jpg,,,,,,,,,,,,,,,
36,18,Memory,0,,,,,,,sunaaeplwsfslcbtojr.jpg,,,,,,,,,,,,,,,
37,18,Memory,0,,,,,,,00772941201fa.jpg,,,,,,,,,,,,,,,
38,18,Memory,0,,,,,,,sunafvcflzhlqloapyo.jpg,,,,,,,,,,,,,,,
39,18,Memory,0,,,,,,,00793941205fa.jpg,,,,,,,,,,,,,,,
40,18,Memory,0,,,,,,,sunagtjwilqjvxohypn.jpg,,,,,,,,,,,,,,,
41,18,Memory,0,,,,,,,00650941031fa.jpg,,,,,,,,,,,,,,,
42,18,Memory,0,,,,,,,sunafpfpiiujzoesnqg.jpg,,,,,,,,,,,,,,,
43,18,Memory,0,,,,,,,sunbtpilbhhbmhmeuzq.jpg,,,,,,,,,,,,,,,
44,18,Memory,0,,,,,,,00851940307fa.jpg,,,,,,,,,,,,,,,
45,18,Memory,0,,,,,,,sunaiycurtqsfkvcaso.jpg,,,,,,,,,,,,,,,
46,18,Memory,0,,,,,,,sunacerqowiaeoqkmsq.jpg,,,,,,,,,,,,,,,
47,18,Memory,0,,,,,,,sunapmfmzadmosuogaz.jpg,,,,,,,,,,,,,,,
48,18,Memory,0,,,,,,,sunahrltmuwbiehihpe.jpg,,,,,,,,,,,,,,,
49,18,Memory,0,,,,,,,00866940307fa.jpg,,,,,,,,,,,,,,,
50,18,Presentation,1,00129931230fb_sunaamsdyakblkfoydx.jpg,00210940128fb_sunabanoxjtqxamkucc.jpg,00129931230fb.jpg,sunaamsdyakblkfoydx.jpg,00210940128fb.jpg,sunabanoxjtqxamkucc.jpg,,,<,Place,,,,,1,,,,,,,x
51,18,Presentation,1,00751960620fa_sunaezuszgtxnmsxdbk.jpg,00571940928fa_sunacuatpqpqhyjhjqk.jpg,00751960620fa.jpg,sunaezuszgtxnmsxdbk.jpg,00571940928fa.jpg,sunacuatpqpqhyjhjqk.jpg,,,<,Face,,,,,0,,,,,,,o
52,18,Presentation,1,00131931230fb_sunaangbuylfvckqqoo.jpg,00796941205fa_sunaguchqqnrtodtezq.jpg,00131931230fb.jpg,sunaangbuylfvckqqoo.jpg,00796941205fa.jpg,sunaguchqqnrtodtezq.jpg,,,>,Face,,,,,1,,,,,,,x
53,18,Presentation,1,00766960620fa_sunafijbgncijwykrnl.jpg,00154931230fa_sunaauueuhhvklldjik.jpg,00766960620fa.jpg,sunafijbgncijwykrnl.jpg,00154931230fa.jpg,sunaauueuhhvklldjik.jpg,,,>,Face,,,,,1,,,,,,,o
54,18,Presentation,1,00564941031fa_sunacsaovnjezqwbykf.jpg,00967960627fa_sunbaejotfklekvpxcz.jpg,00564941031fa.jpg,sunacsaovnjezqwbykf.jpg,00967960627fa.jpg,sunbaejotfklekvpxcz.jpg,,,>,Place,,,,,1,,,,,,,o
55,18,Presentation,1,00194940128fb_sunaayehfdqcyxggsej.jpg,00854940307fa_sunaiwduelojtwaqeyh.jpg,00194940128fb.jpg,sunaayehfdqcyxggsej.jpg,00854940307fa.jpg,sunaiwduelojtwaqeyh.jpg,,,<,Place,,,,,1,,,,,,,o
56,18,Presentation,1,00313940422fa_sunabwjvmoaddlyxfjr.jpg,00694941121fa_sunadrmfzmstgdjdcod.jpg,00313940422fa.jpg,sunabwjvmoaddlyxfjr.jpg,00694941121fa.jpg,sunadrmfzmstgdjdcod.jpg,,,>,Face,,,,,0,,,,,,,x
57,18,Presentation,1,00902960530fa_sunanaacmmosxrfwmvl.jpg,00663941121fa_sunadnjjzohjhbohlwq.jpg,00902960530fa.jpg,sunanaacmmosxrfwmvl.jpg,00663941121fa.jpg,sunadnjjzohjhbohlwq.jpg,,,<,Place,,,,,1,,,,,,,x
58,18,Presentation,1,00479940519fa_sunabxsbfwjccqxxzxq.jpg,00133931230fa_sunaanlwnpqndclffxt.jpg,00479940519fa.jpg,sunabxsbfwjccqxxzxq.jpg,00133931230fa.jpg,sunaanlwnpqndclffxt.jpg,,,<,Face,,,,,1,,,,,,,o
59,18,Presentation,1,00812941205fa_sunahgtbwgsmtqeodwh.jpg,00082931230fa_sunaafvitpexrpvumsa.jpg,00812941205fa.jpg,sunahgtbwgsmtqeodwh.jpg,00082931230fa.jpg,sunaafvitpexrpvumsa.jpg,,,>,Place,,,,,0,,,,,,,o
60,18,Memory,1,,,,,,,sunagsiwrmuixqgdimb.jpg,,,,,,,,,,,,,,,
61,18,Memory,1,,,,,,,sunalcrtwiycqobgelp.jpg,,,,,,,,,,,,,,,
62,18,Memory,1,,,,,,,00129931230fb.jpg,,,,,,,,,,,,,,,
63,18,Memory,1,,,,,,,sunaanlwnpqndclffxt.jpg,,,,,,,,,,,,,,,
64,18,Memory,1,,,,,,,01010960627fa.jpg,,,,,,,,,,,,,,,
65,18,Memory,1,,,,,,,00082931230fa.jpg,,,,,,,,,,,,,,,
66,18,Memory,1,,,,,,,sunaauueuhhvklldjik.jpg,,,,,,,,,,,,,,,
67,18,Memory,1,,,,,,,sunbbxkanhzjgbwyxqs.jpg,,,,,,,,,,,,,,,
68,18,Memory,1,,,,,,,sunabwjvmoaddlyxfjr.jpg,,,,,,,,,,,,,,,
69,18,Memory,1,,,,,,,00133931230fa.jpg,,,,,,,,,,,,,,,
70,18,Memory,1,,,,,,,00154931230fa.jpg,,,,,,,,,,,,,,,
71,18,Memory,1,,,,,,,sunacxtcahkymosigud.jpg,,,,,,,,,,,,,,,
72,18,Memory,1,,,,,,,sunabyfxcxhdebvdyfd.jpg,,,,,,,,,,,,,,,
73,18,Memory,1,,,,,,,sunaayehfdqcyxggsej.jpg,,,,,,,,,,,,,,,
74,18,Memory,1,,,,,,,00766960620fa.jpg,,,,,,,,,,,,,,,
75,18,Memory,1,,,,,,,sunaauhozyxzeeqstxi.jpg,,,,,,,,,,,,,,,
76,18,Memory,1,,,,,,,sunaguchqqnrtodtezq.jpg,,,,,,,,,,,,,,,
77,18,Memory,1,,,,,,,sunaamsdyakblkfoydx.jpg,,,,,,,,,,,,,,,
78,18,Memory,1,,,,,,,00854940307fa.jpg,,,,,,,,,,,,,,,
79,18,Memory,1,,,,,,,00482940519fa.jpg,,,,,,,,,,,,,,,
80,18,Memory,1,,,,,,,00153931230fa.jpg,,,,,,,,,,,,,,,
81,18,Memory,1,,,,,,,sunaooaqzputrowwbsw.jpg,,,,,,,,,,,,,,,
82,18,Memory,1,,,,,,,00911960530fa.jpg,,,,,,,,,,,,,,,
83,18,Memory,1,,,,,,,00194940128fb.jpg,,,,,,,,,,,,,,,
84,18,Memory,1,,,,,,,00796941205fa.jpg,,,,,,,,,,,,,,,
85,18,Memory,1,,,,,,,sunafijbgncijwykrnl.jpg,,,,,,,,,,,,,,,
86,18,Memory,1,,,,,,,sunaezuszgtxnmsxdbk.jpg,,,,,,,,,,,,,,,
87,18,Memory,1,,,,,,,00858940307fa.jpg,,,,,,,,,,,,,,,
88,18,Memory,1,,,,,,,suncnkvbhypnivcohyx.jpg,,,,,,,,,,,,,,,
89,18,Memory,1,,,,,,,00792941205fa.jpg,,,,,,,,,,,,,,,
90,18,Memory,1,,,,,,,sunaixpqndlwhwjtjek.jpg,,,,,,,,,,,,,,,
91,18,Memory,1,,,,,,,00993960627fa.jpg,,,,,,,,,,,,,,,
92,18,Memory,1,,,,,,,00598941031fa.jpg,,,,,,,,,,,,,,,
93,18,Memory,1,,,,,,,sunaafvitpexrpvumsa.jpg,,,,,,,,,,,,,,,
94,18,Memory,1,,,,,,,00313940422fa.jpg,,,,,,,,,,,,,,,
95,18,Memory,1,,,,,,,sunaiwduelojtwaqeyh.jpg,,,,,,,,,,,,,,,
96,18,Memory,1,,,,,,,00887960530.jpg,,,,,,,,,,,,,,,
97,18,Memory,1,,,,,,,sunbprywzqxjcezkbch.jpg,,,,,,,,,,,,,,,
98,18,Memory,1,,,,,,,00751960620fa.jpg,,,,,,,,,,,,,,,
99,18,Memory,1,,,,,,,00977960627fa.jpg,,,,,,,,,,,,,,,
100,18,Presentation,2,00799941205fa_sunagutjvdvnhxejerz.jpg,00957960627fa_sunavhxgmgrqsaptynb.jpg,00799941205fa.jpg,sunagutjvdvnhxejerz.jpg,00957960627fa.jpg,sunavhxgmgrqsaptynb.jpg,,,>,Place,,,,,1,,,,,,,x
101,18,Presentation,2,00891960530fa_sunalkiibhqpxfamlll.jpg,00076931230fa_sunaafewhewbxmjiurz.jpg,00891960530fa.jpg,sunalkiibhqpxfamlll.jpg,00076931230fa.jpg,sunaafewhewbxmjiurz.jpg,,,<,Face,,,,,1,,,,,,,o
102,18,Presentation,2,00804960530fa_sunagwswhkvnsmuszlz.jpg,00969960627fa_sunbaoizrfijvhpnnjn.jpg,00804960530fa.jpg,sunagwswhkvnsmuszlz.jpg,00969960627fa.jpg,sunbaoizrfijvhpnnjn.jpg,,,<,Place,,,,,1,,,,,,,x
103,18,Presentation,2,00800941205fb_sunagvjurcwdbixvnyi.jpg,00742941201fa_sunaenwuebvlpdmntju.jpg,00800941205fb.jpg,sunagvjurcwdbixvnyi.jpg,00742941201fa.jpg,sunaenwuebvlpdmntju.jpg,,,<,Place,,,,,1,,,,,,,x
104,18,Presentation,2,00142931230fb_sunaapxkpvrhpjplsok.jpg,01011960627fa_sundahdxwmcdluscvot.jpg,00142931230fb.jpg,sunaapxkpvrhpjplsok.jpg,01011960627fa.jpg,sundahdxwmcdluscvot.jpg,,,>,Face,,,,,1,,,,,,,x
105,18,Presentation,2,00921960627fa_sunapqkpqdfvxlbqwyo.jpg,00988960627fa_sunbmaiocftdtvnzgap.jpg,00921960627fa.jpg,sunapqkpqdfvxlbqwyo.jpg,00988960627fa.jpg,sunbmaiocftdtvnzgap.jpg,,,>,Face,,,,,1,,,,,,,x
106,18,Presentation,2,00069931230fb_sunaaeowapdkwzqpgqr.jpg,00787960620fa_sunagoufulkpsxrmklt.jpg,00069931230fb.jpg,sunaaeowapdkwzqpgqr.jpg,00787960620fa.jpg,sunagoufulkpsxrmklt.jpg,,,<,Place,,,,,1,,,,,,,x
107,18,Presentation,2,00834940307fa_sunaibnpvhkdpdnzcnz.jpg,01003960627fb_sunbwdrdvsweerwsdrj.jpg,00834940307fa.jpg,sunaibnpvhkdpdnzcnz.jpg,01003960627fb.jpg,sunbwdrdvsweerwsdrj.jpg,,,>,Face,,,,,1,,,,,,,o
108,18,Presentation,2,00892960530fa_sunalntxqqadigcletd.jpg,00725941201fa_sunaefgzwiramypjvtd.jpg,00892960530fa.jpg,sunalntxqqadigcletd.jpg,00725941201fa.jpg,sunaefgzwiramypjvtd.jpg,,,>,Place,,,,,1,,,,,,,x
109,18,Presentation,2,00777941205fa_sunagcinxkccdtrjmlv.jpg,00543940519fa_sunacepzfrmtkiqonpy.jpg,00777941205fa.jpg,sunagcinxkccdtrjmlv.jpg,00543940519fa.jpg,sunacepzfrmtkiqonpy.jpg,,,<,Face,,,,,1,,,,,,,o
110,18,Memory,2,,,,,,,sunawotxrevnqvamsfp.jpg,,,,,,,,,,,,,,,
111,18,Memory,2,,,,,,,00086931230fa.jpg,,,,,,,,,,,,,,,
112,18,Memory,2,,,,,,,00142931230fb.jpg,,,,,,,,,,,,,,,
113,18,Memory,2,,,,,,,sunagoufulkpsxrmklt.jpg,,,,,,,,,,,,,,,
114,18,Memory,2,,,,,,,00787960620fa.jpg,,,,,,,,,,,,,,,
115,18,Memory,2,,,,,,,00098931230fa.jpg,,,,,,,,,,,,,,,
116,18,Memory,2,,,,,,,sunaajpqmulidejvjsr.jpg,,,,,,,,,,,,,,,
117,18,Memory,2,,,,,,,00149931230fa.jpg,,,,,,,,,,,,,,,
118,18,Memory,2,,,,,,,00921960627fa.jpg,,,,,,,,,,,,,,,
119,18,Memory,2,,,,,,,sunaauglwmctnkxyird.jpg,,,,,,,,,,,,,,,
120,18,Memory,2,,,,,,,00800941205fb.jpg,,,,,,,,,,,,,,,
121,18,Memory,2,,,,,,,01011960627fa.jpg,,,,,,,,,,,,,,,
122,18,Memory,2,,,,,,,sunaafewhewbxmjiurz.jpg,,,,,,,,,,,,,,,
123,18,Memory,2,,,,,,,00749941201fa.jpg,,,,,,,,,,,,,,,
124,18,Memory,2,,,,,,,sunavhxgmgrqsaptynb.jpg,,,,,,,,,,,,,,,
125,18,Memory,2,,,,,,,00903960620fa.jpg,,,,,,,,,,,,,,,
126,18,Memory,2,,,,,,,00532960627fa.jpg,,,,,,,,,,,,,,,
127,18,Memory,2,,,,,,,sunagcinxkccdtrjmlv.jpg,,,,,,,,,,,,,,,
128,18,Memory,2,,,,,,,00076931230fa.jpg,,,,,,,,,,,,,,,
129,18,Memory,2,,,,,,,00957960627fa.jpg,,,,,,,,,,,,,,,
130,18,Memory,2,,,,,,,00777941205fa.jpg,,,,,,,,,,,,,,,
131,18,Memory,2,,,,,,,sunamkmeblgteyggink.jpg,,,,,,,,,,,,,,,
132,18,Memory,2,,,,,,,00720960620fa.jpg,,,,,,,,,,,,,,,
133,18,Memory,2,,,,,,,sunagvjurcwdbixvnyi.jpg,,,,,,,,,,,,,,,
134,18,Memory,2,,,,,,,sundahdxwmcdluscvot.jpg,,,,,,,,,,,,,,,
135,18,Memory,2,,,,,,,sunaeuvjbmdpknaqqaj.jpg,,,,,,,,,,,,,,,
136,18,Memory,2,,,,,,,sunapqkpqdfvxlbqwyo.jpg,,,,,,,,,,,,,,,
137,18,Memory,2,,,,,,,sunaafynehyrzpsoaml.jpg,,,,,,,,,,,,,,,
138,18,Memory,2,,,,,,,00979960627fa.jpg,,,,,,,,,,,,,,,
139,18,Memory,2,,,,,,,00988960627fa.jpg,,,,,,,,,,,,,,,
140,18,Memory,2,,,,,,,sunbdycacjfaujxitbw.jpg,,,,,,,,,,,,,,,
141,18,Memory,2,,,,,,,00834940307fa.jpg,,,,,,,,,,,,,,,
142,18,Memory,2,,,,,,,sunaccdtpgenvcbcbcf.jpg,,,,,,,,,,,,,,,
143,18,Memory,2,,,,,,,sunaibnpvhkdpdnzcnz.jpg,,,,,,,,,,,,,,,
144,18,Memory,2,,,,,,,00898960530fa.jpg,,,,,,,,,,,,,,,
145,18,Memory,2,,,,,,,sunbmaiocftdtvnzgap.jpg,,,,,,,,,,,,,,,
146,18,Memory,2,,,,,,,sunanainkqdvktzoxyl.jpg,,,,,,,,,,,,,,,
147,18,Memory,2,,,,,,,00961960627fa.jpg,,,,,,,,,,,,,,,
148,18,Memory,2,,,,,,,sunaapxkpvrhpjplsok.jpg,,,,,,,,,,,,,,,
149,18,Memory,2,,,,,,,sunaecpkgfewqqreqwe.jpg,,,,,,,,,,,,,,,
150,18,Presentation,3,00557940519fa_sunachtuarilwyqnvjx.jpg,00753941201fa_sunafcofuuzebuadceo.jpg,00557940519fa.jpg,sunachtuarilwyqnvjx.jpg,00753941201fa.jpg,sunafcofuuzebuadceo.jpg,,,<,Place,,,,,1,,,,,,,o
151,18,Presentation,3,00914960620fa_sunaozisvwfbmlkfhzv.jpg,00308940422fb_sunabwfvcqqidycwypa.jpg,00914960620fa.jpg,sunaozisvwfbmlkfhzv.jpg,00308940422fb.jpg,sunabwfvcqqidycwypa.jpg,,,>,Face,,,,,1,,,,,,,o
152,18,Presentation,3,00102931230fa_sunaajspcoepticvplv.jpg,00158931230fb_sunaavchcbptaerhcfy.jpg,00102931230fa.jpg,sunaajspcoepticvplv.jpg,00158931230fb.jpg,sunaavchcbptaerhcfy.jpg,,,<,Place,,,,,1,,,,,,,o
153,18,Presentation,3,00949960627fb_sunasnqkkyhilqkxiqm.jpg,00185940422fb_sunaawqdbpihmlbwyyn.jpg,00949960627fb.jpg,sunasnqkkyhilqkxiqm.jpg,00185940422fb.jpg,sunaawqdbpihmlbwyyn.jpg,,,>,Face,,,,,1,,,,,,,o
154,18,Presentation,3,00762941201fa_sunafgzgbisbopcyslr.jpg,00880960530fa_sunakmnfgklupjijsgf.jpg,00762941201fa.jpg,sunafgzgbisbopcyslr.jpg,00880960530fa.jpg,sunakmnfgklupjijsgf.jpg,,,<,Face,,,,,1,,,,,,,x
155,18,Presentation,3,00968960627fa_sunbagfpovqwbuexqdn.jpg,00290940422fa_sunabqowuarvqqcnipn.jpg,00968960627fa.jpg,sunbagfpovqwbuexqdn.jpg,00290940422fa.jpg,sunabqowuarvqqcnipn.jpg,,,<,Place,,,,,1,,,,,,,o
156,18,Presentation,3,00839940307fa_sunaipyohrqlwngaqif.jpg,00061931230fb_sunaaekxzjzrfgtkwjf.jpg,00839940307fa.jpg,sunaipyohrqlwngaqif.jpg,00061931230fb.jpg,sunaaekxzjzrfgtkwjf.jpg,,,>,Place,,,,,1,,,,,,,o
157,18,Presentation,3,00807941205fa_sunahawfngukizslzsd.jpg,00965960627fa_sunaydywdmvlfddbxbk.jpg,00807941205fa.jpg,sunahawfngukizslzsd.jpg,00965960627fa.jpg,sunaydywdmvlfddbxbk.jpg,,,<,Face,,,,,1,,,,,,,x
158,18,Presentation,3,00929960627fa_sunaprnrbmgkomdbchr.jpg,00235940128fb_sunabclssnoeuigtawp.jpg,00929960627fa.jpg,sunaprnrbmgkomdbchr.jpg,00235940128fb.jpg,sunabclssnoeuigtawp.jpg,,,>,Place,,,,,1,,,,,,,o
159,18,Presentation,3,00096931230fa_sunaaiqiqcggrskoqgy.jpg,00111931230fb_sunaakgekhjklxmvulj.jpg,00096931230fa.jpg,sunaaiqiqcggrskoqgy.jpg,00111931230fb.jpg,sunaakgekhjklxmvulj.jpg,,,>,Face,,,,,1,,,,,,,x
160,18,Memory,3,,,,,,,sunauburywlkjszngcq.jpg,,,,,,,,,,,,,,,
161,18,Memory,3,,,,,,,00529940519fa.jpg,,,,,,,,,,,,,,,
162,18,Memory,3,,,,,,,00102931230fa.jpg,,,,,,,,,,,,,,,
163,18,Memory,3,,,,,,,sunaprnrbmgkomdbchr.jpg,,,,,,,,,,,,,,,
164,18,Memory,3,,,,,,,00101931230fb.jpg,,,,,,,,,,,,,,,
165,18,Memory,3,,,,,,,sunabclssnoeuigtawp.jpg,,,,,,,,,,,,,,,
166,18,Memory,3,,,,,,,00308940422fb.jpg,,,,,,,,,,,,,,,
167,18,Memory,3,,,,,,,sunaajqmsaavkmgbsth.jpg,,,,,,,,,,,,,,,
168,18,Memory,3,,,,,,,00809960620fa.jpg,,,,,,,,,,,,,,,
169,18,Memory,3,,,,,,,sunahbvlpavurqoxdeq.jpg,,,,,,,,,,,,,,,
170,18,Memory,3,,,,,,,00290940422fa.jpg,,,,,,,,,,,,,,,
171,18,Memory,3,,,,,,,00959960627fa.jpg,,,,,,,,,,,,,,,
172,18,Memory,3,,,,,,,00955960627fb.jpg,,,,,,,,,,,,,,,
173,18,Memory,3,,,,,,,00779941205fa.jpg,,,,,,,,,,,,,,,
174,18,Memory,3,,,,,,,00965960627fa.jpg,,,,,,,,,,,,,,,
175,18,Memory,3,,,,,,,sunbagfpovqwbuexqdn.jpg,,,,,,,,,,,,,,,
176,18,Memory,3,,,,,,,sunagdzlvkqtpnfxfcg.jpg,,,,,,,,,,,,,,,
177,18,Memory,3,,,,,,,00557940519fa.jpg,,,,,,,,,,,,,,,
178,18,Memory,3,,,,,,,00968960627fa.jpg,,,,,,,,,,,,,,,
179,18,Memory,3,,,,,,,sunafcofuuzebuadceo.jpg,,,,,,,,,,,,,,,
180,18,Memory,3,,,,,,,sunabwfvcqqidycwypa.jpg,,,,,,,,,,,,,,,
181,18,Memory,3,,,,,,,00775941205fa.jpg,,,,,,,,,,,,,,,
182,18,Memory,3,,,,,,,00753941201fa.jpg,,,,,,,,,,,,,,,
183,18,Memory,3,,,,,,,00816941205fa.jpg,,,,,,,,,,,,,,,
184,18,Memory,3,,,,,,,sunacbeefkxpymwevpk.jpg,,,,,,,,,,,,,,,
185,18,Memory,3,,,,,,,sunahmhrncocyhsjpxk.jpg,,,,,,,,,,,,,,,
186,18,Memory,3,,,,,,,sunachtuarilwyqnvjx.jpg,,,,,,,,,,,,,,,
187,18,Memory,3,,,,,,,sunaozisvwfbmlkfhzv.jpg,,,,,,,,,,,,,,,
188,18,Memory,3,,,,,,,00559940519fa.jpg,,,,,,,,,,,,,,,
189,18,Memory,3,,,,,,,sunaydywdmvlfddbxbk.jpg,,,,,,,,,,,,,,,
190,18,Memory,3,,,,,,,sunabqowuarvqqcnipn.jpg,,,,,,,,,,,,,,,
191,18,Memory,3,,,,,,,sunaajspcoepticvplv.jpg,,,,,,,,,,,,,,,
192,18,Memory,3,,,,,,,sunavxokzybtomhbmvm.jpg,,,,,,,,,,,,,,,
193,18,Memory,3,,,,,,,00914960620fa.jpg,,,,,,,,,,,,,,,
194,18,Memory,3,,,,,,,sunafvwfsmqkjrutjta.jpg,,,,,,,,,,,,,,,
195,18,Memory,3,,,,,,,sunacjkmnpawfzbyvae.jpg,,,,,,,,,,,,,,,
196,18,Memory,3,,,,,,,00235940128fb.jpg,,,,,,,,,,,,,,,
197,18,Memory,3,,,,,,,sunabtlfmiwtljmoues.jpg,,,,,,,,,,,,,,,
198,18,Memory,3,,,,,,,00929960627fa.jpg,,,,,,,,,,,,,,,
199,18,Memory,3,,,,,,,00302940422fa.jpg,,,,,,,,,,,,,,,
200,18,Presentation,4,00126931230fb_sunaamdjwemxpmmtypi.jpg,00127931230fa_sunaampvucecsfbdafn.jpg,00126931230fb.jpg,sunaamdjwemxpmmtypi.jpg,00127931230fa.jpg,sunaampvucecsfbdafn.jpg,,,>,Face,,,,,0,,,,,,,x
201,18,Presentation,4,00746941201fa_sunaetydippjxikifsb.jpg,00868960307fa_sunajjxttslobudoqbv.jpg,00746941201fa.jpg,sunaetydippjxikifsb.jpg,00868960307fa.jpg,sunajjxttslobudoqbv.jpg,,,<,Face,,,,,1,,,,,,,o
202,18,Presentation,4,00741941201fa_sunaemcowdozyphwknd.jpg,00805941205fa_sunagwzdbtlixdhgolm.jpg,00741941201fa.jpg,sunaemcowdozyphwknd.jpg,00805941205fa.jpg,sunagwzdbtlixdhgolm.jpg,,,>,Place,,,,,1,,,,,,,x
203,18,Presentation,4,00908960530fa_sunanwjjyqqwzqrqagd.jpg,00958960627fa_sunavspxmxubqaeidjt.jpg,00908960530fa.jpg,sunanwjjyqqwzqrqagd.jpg,00958960627fa.jpg,sunavspxmxubqaeidjt.jpg,,,>,Face,,,,,1,,,,,,,o
204,18,Presentation,4,00745941205fa_sunaeouogqolxvggaoq.jpg,00983960627fa_sunbfyvfqiimvdaxlqn.jpg,00745941205fa.jpg,sunaeouogqolxvggaoq.jpg,00983960627fa.jpg,sunbfyvfqiimvdaxlqn.jpg,,,>,Face,,,,,1,,,,,,,o
205,18,Presentation,4,00136931230fb_sunaanptmsknhirrzed.jpg,00752960620fa_sunafbwnojpqeyzssoe.jpg,00136931230fb.jpg,sunaanptmsknhirrzed.jpg,00752960620fa.jpg,sunafbwnojpqeyzssoe.jpg,,,<,Place,,,,,1,,,,,,,o
206,18,Presentation,4,00822940307fa_sunahqrxievfeusiqlt.jpg,00936960627fa_sunaqgjuuwvdcyiccjt.jpg,00822940307fa.jpg,sunahqrxievfeusiqlt.jpg,00936960627fa.jpg,sunaqgjuuwvdcyiccjt.jpg,,,<,Place,,,,,1,,,,,,,o
207,18,Presentation,4,00184940128fa_sunaavtbadenwnzeutj.jpg,00743941201fa_sunaeoghzrjarigmwua.jpg,00184940128fa.jpg,sunaavtbadenwnzeutj.jpg,00743941201fa.jpg,sunaeoghzrjarigmwua.jpg,,,<,Place,,,,,1,,,,,,,o
208,18,Presentation,4,00193940928fa_sunaaxjpzcnxligjtjq.jpg,00952960627fa_sunathzzbcwjykldrem.jpg,00193940928fa.jpg,sunaaxjpzcnxligjtjq.jpg,00952960627fa.jpg,sunathzzbcwjykldrem.jpg,,,>,Place,,,,,1,,,,,,,x
209,18,Presentation,4,00271940422fa_sunabmbnddafmywtjjj.jpg,00931960627fa_sunaptrqvaooxfvktvw.jpg,00271940422fa.jpg,sunabmbnddafmywtjjj.jpg,00931960627fa.jpg,sunaptrqvaooxfvktvw.jpg,,,<,Face,,,,,1,,,,,,,o
210,18,Memory,4,,,,,,,sunabkngeblodihjvbk.jpg,,,,,,,,,,,,,,,
211,18,Memory,4,,,,,,,00952960627fa.jpg,,,,,,,,,,,,,,,
212,18,Memory,4,,,,,,,sunahqrxievfeusiqlt.jpg,,,,,,,,,,,,,,,
213,18,Memory,4,,,,,,,00882960530fa.jpg,,,,,,,,,,,,,,,
214,18,Memory,4,,,,,,,00266940128fb.jpg,,,,,,,,,,,,,,,
215,18,Memory,4,,,,,,,00630941031fa.jpg,,,,,,,,,,,,,,,
216,18,Memory,4,,,,,,,00633940928fa.jpg,,,,,,,,,,,,,,,
217,18,Memory,4,,,,,,,sunadbhmrgrrpyzglxs.jpg,,,,,,,,,,,,,,,
218,18,Memory,4,,,,,,,sunadakkdovnuzlycvp.jpg,,,,,,,,,,,,,,,
219,18,Memory,4,,,,,,,00983960627fa.jpg,,,,,,,,,,,,,,,
220,18,Memory,4,,,,,,,sunasbbntuiheekqyaq.jpg,,,,,,,,,,,,,,,
221,18,Memory,4,,,,,,,sunadfktsqjthoglcsm.jpg,,,,,,,,,,,,,,,
222,18,Memory,4,,,,,,,00193940928fa.jpg,,,,,,,,,,,,,,,
223,18,Memory,4,,,,,,,00638941031fa.jpg,,,,,,,,,,,,,,,
224,18,Memory,4,,,,,,,00209940128fb.jpg,,,,,,,,,,,,,,,
225,18,Memory,4,,,,,,,sunaknlirqjqiwbbeeg.jpg,,,,,,,,,,,,,,,
226,18,Memory,4,,,,,,,sunaavtbadenwnzeutj.jpg,,,,,,,,,,,,,,,
227,18,Memory,4,,,,,,,sunaptrqvaooxfvktvw.jpg,,,,,,,,,,,,,,,
228,18,Memory,4,,,,,,,00936960627fa.jpg,,,,,,,,,,,,,,,
229,18,Memory,4,,,,,,,sunaeouogqolxvggaoq.jpg,,,,,,,,,,,,,,,
230,18,Memory,4,,,,,,,00743941201fa.jpg,,,,,,,,,,,,,,,
231,18,Memory,4,,,,,,,00092931230fa.jpg,,,,,,,,,,,,,,,
232,18,Memory,4,,,,,,,sunaanptmsknhirrzed.jpg,,,,,,,,,,,,,,,
233,18,Memory,4,,,,,,,00822940307fa.jpg,,,,,,,,,,,,,,,
234,18,Memory,4,,,,,,,00184940128fa.jpg,,,,,,,,,,,,,,,
235,18,Memory,4,,,,,,,sunagountlxpzkytsmp.jpg,,,,,,,,,,,,,,,
236,18,Memory,4,,,,,,,sunbfyvfqiimvdaxlqn.jpg,,,,,,,,,,,,,,,
237,18,Memory,4,,,,,,,sunaqgjuuwvdcyiccjt.jpg,,,,,,,,,,,,,,,
238,18,Memory,4,,,,,,,sunabaergayifsgacxt.jpg,,,,,,,,,,,,,,,
239,18,Memory,4,,,,,,,sunaaheqzstzxuadglu.jpg,,,,,,,,,,,,,,,
240,18,Memory,4,,,,,,,00147931230fb.jpg,,,,,,,,,,,,,,,
241,18,Memory,4,,,,,,,sunathzzbcwjykldrem.jpg,,,,,,,,,,,,,,,
242,18,Memory,4,,,,,,,00136931230fb.jpg,,,,,,,,,,,,,,,
243,18,Memory,4,,,,,,,sunaaxjpzcnxligjtjq.jpg,,,,,,,,,,,,,,,
244,18,Memory,4,,,,,,,00745941205fa.jpg,,,,,,,,,,,,,,,
245,18,Memory,4,,,,,,,00788941205fa.jpg,,,,,,,,,,,,,,,
246,18,Memory,4,,,,,,,00931960627fa.jpg,,,,,,,,,,,,,,,
247,18,Memory,4,,,,,,,00944960627fa.jpg,,,,,,,,,,,,,,,
248,18,Memory,4,,,,,,,sunaatpkocdkocwxpkb.jpg,,,,,,,,,,,,,,,
249,18,Memory,4,,,,,,,sunaeoghzrjarigmwua.jpg,,,,,,,,,,,,,,,
250,18,Presentation,5,00081941031fa_sunaaftlyfudyzuhqzf.jpg,00906960530fa_sunantryfbloeaomfta.jpg,00081941031fa.jpg,sunaaftlyfudyzuhqzf.jpg,00906960530fa.jpg,sunantryfbloeaomfta.jpg,,,>,Face,,,,,1,,,,,,,x
251,18,Presentation,5,00191940128fb_sunaawsdjisukbbginm.jpg,00857940307fa_sunaiwfobocrruqznsv.jpg,00191940128fb.jpg,sunaawsdjisukbbginm.jpg,00857940307fa.jpg,sunaiwfobocrruqznsv.jpg,,,<,Face,,,,,1,,,,,,,o
252,18,Presentation,5,00819940307fa_sunahqldjibofgsfdgb.jpg,00791941205fa_sunagrmyoovzukhxmlo.jpg,00819940307fa.jpg,sunahqldjibofgsfdgb.jpg,00791941205fa.jpg,sunagrmyoovzukhxmlo.jpg,,,<,Face,,,,,1,,,,,,,o
253,18,Presentation,5,00810941205fa_sunahctntqrunhdxhtb.jpg,00305940422fa_sunabtrnbvpppgczjim.jpg,00810941205fa.jpg,sunahctntqrunhdxhtb.jpg,00305940422fa.jpg,sunabtrnbvpppgczjim.jpg,,,<,Place,,,,,1,,,,,,,x
254,18,Presentation,5,00963960627fa_sunayaepykrqvenaqqy.jpg,00080931230fb_sunaafjszryxyavjzln.jpg,00963960627fa.jpg,sunayaepykrqvenaqqy.jpg,00080931230fb.jpg,sunaafjszryxyavjzln.jpg,,,>,Place,,,,,1,,,,,,,o
255,18,Presentation,5,00783941205fa_sunagjeesomrwjsfqie.jpg,00700941121fa_sunadsgmtznewzyasnk.jpg,00783941205fa.jpg,sunagjeesomrwjsfqie.jpg,00700941121fa.jpg,sunadsgmtznewzyasnk.jpg,,,>,Face,,,,,1,,,,,,,x
256,18,Presentation,5,00786941205fa_sunagmhildamktmqjss.jpg,00598940928fa_sunacxeheuiigkcgquf.jpg,00786941205fa.jpg,sunagmhildamktmqjss.jpg,00598940928fa.jpg,sunacxeheuiigkcgquf.jpg,,,>,Place,,,,,1,,,,,,,o
257,18,Presentation,5,00785941205fa_sunaglqunwuycxydmyu.jpg,00267940128fb_sunablfqiwfqomjarht.jpg,00785941205fa.jpg,sunaglqunwuycxydmyu.jpg,00267940128fb.jpg,sunablfqiwfqomjarht.jpg,,,<,Face,,,,,1,,,,,,,x
258,18,Presentation,5,00835940307fa_sunaijsqpvodplbwxkf.jpg,00829940307fa_sunahwgbqkqcrwprgvh.jpg,00835940307fa.jpg,sunaijsqpvodplbwxkf.jpg,00829940307fa.jpg,sunahwgbqkqcrwprgvh.jpg,,,<,Place,,,,,1,,,,,,,x
259,18,Presentation,5,00811960530fa_sunahedfrhtcwpneund.jpg,00065931230fb_sunaaemixhfquhnxxlm.jpg,00811960530fa.jpg,sunahedfrhtcwpneund.jpg,00065931230fb.jpg,sunaaemixhfquhnxxlm.jpg,,,>,Place,,,,,1,,,,,,,o
260,18,Memory,5,,,,,,,sunahedfrhtcwpneund.jpg,,,,,,,,,,,,,,,
261,18,Memory,5,,,,,,,00245940128fa.jpg,,,,,,,,,,,,,,,
262,18,Memory,5,,,,,,,00829940307fa.jpg,,,,,,,,,,,,,,,
263,18,Memory,5,,,,,,,00989960627fa.jpg,,,,,,,,,,,,,,,
264,18,Memory,5,,,,,,,00922960627fa.jpg,,,,,,,,,,,,,,,
265,18,Memory,5,,,,,,,00191940128fb.jpg,,,,,,,,,,,,,,,
266,18,Memory,5,,,,,,,00963960627fa.jpg,,,,,,,,,,,,,,,
267,18,Memory,5,,,,,,,sunahwgbqkqcrwprgvh.jpg,,,,,,,,,,,,,,,
268,18,Memory,5,,,,,,,sunaaehaikpckyjsety.jpg,,,,,,,,,,,,,,,
269,18,Memory,5,,,,,,,sunaawsdjisukbbginm.jpg,,,,,,,,,,,,,,,
270,18,Memory,5,,,,,,,00938960627fa.jpg,,,,,,,,,,,,,,,
271,18,Memory,5,,,,,,,00857940307fa.jpg,,,,,,,,,,,,,,,
272,18,Memory,5,,,,,,,sunaqyylsngywqzwfmx.jpg,,,,,,,,,,,,,,,
273,18,Memory,5,,,,,,,sunablfqiwfqomjarht.jpg,,,,,,,,,,,,,,,
274,18,Memory,5,,,,,,,00095931230fa.jpg,,,,,,,,,,,,,,,
275,18,Memory,5,,,,,,,00060931230fa.jpg,,,,,,,,,,,,,,,
276,18,Memory,5,,,,,,,00305940422fa.jpg,,,,,,,,,,,,,,,
277,18,Memory,5,,,,,,,sunayaepykrqvenaqqy.jpg,,,,,,,,,,,,,,,
278,18,Memory,5,,,,,,,sunahqldjibofgsfdgb.jpg,,,,,,,,,,,,,,,
279,18,Memory,5,,,,,,,00063931230fa.jpg,,,,,,,,,,,,,,,
280,18,Memory,5,,,,,,,sunapqkyghktgtosuuk.jpg,,,,,,,,,,,,,,,
281,18,Memory,5,,,,,,,sunabtrnbvpppgczjim.jpg,,,,,,,,,,,,,,,
282,18,Memory,5,,,,,,,00267940128fb.jpg,,,,,,,,,,,,,,,
283,18,Memory,5,,,,,,,sunaiwfobocrruqznsv.jpg,,,,,,,,,,,,,,,
284,18,Memory,5,,,,,,,sunabeyhmxodahoieyk.jpg,,,,,,,,,,,,,,,
285,18,Memory,5,,,,,,,00780960530fa.jpg,,,,,,,,,,,,,,,
286,18,Memory,5,,,,,,,sunadfndyrtqqiasoig.jpg,,,,,,,,,,,,,,,
287,18,Memory,5,,,,,,,sunarpsxqkduedrrzyi.jpg,,,,,,,,,,,,,,,
288,18,Memory,5,,,,,,,00811960530fa.jpg,,,,,,,,,,,,,,,
289,18,Memory,5,,,,,,,00819940307fa.jpg,,,,,,,,,,,,,,,
290,18,Memory,5,,,,,,,sunagetqixeypsysbpn.jpg,,,,,,,,,,,,,,,
291,18,Memory,5,,,,,,,sunadsgmtznewzyasnk.jpg,,,,,,,,,,,,,,,
292,18,Memory,5,,,,,,,sunaaelyvurpntclgau.jpg,,,,,,,,,,,,,,,
293,18,Memory,5,,,,,,,sunbondbduabvijnmch.jpg,,,,,,,,,,,,,,,
294,18,Memory,5,,,,,,,00700941121fa.jpg,,,,,,,,,,,,,,,
295,18,Memory,5,,,,,,,00783941205fa.jpg,,,,,,,,,,,,,,,
296,18,Memory,5,,,,,,,sunagjeesomrwjsfqie.jpg,,,,,,,,,,,,,,,
297,18,Memory,5,,,,,,,00943960627fa.jpg,,,,,,,,,,,,,,,
298,18,Memory,5,,,,,,,sunaahzooisqkwlxwoz.jpg,,,,,,,,,,,,,,,
299,18,Memory,5,,,,,,,00648941031fa.jpg,,,,,,,,,,,,,,,
300,18,Presentation,6,00116931230fa_sunaakqepfoeqomfgxf.jpg,00705960530fa_sunaduslxfzlbxlllnz.jpg,00116931230fa.jpg,sunaakqepfoeqomfgxf.jpg,00705960530fa.jpg,sunaduslxfzlbxlllnz.jpg,,,>,Face,,,,,1,,,,,,,o
301,18,Presentation,6,00773960620fa_sunafvsxtzaizojicxx.jpg,00270940422fb_sunabllobxadqcyttej.jpg,00773960620fa.jpg,sunafvsxtzaizojicxx.jpg,00270940422fb.jpg,sunabllobxadqcyttej.jpg,,,>,Place,,,,,1,,,,,,,x
302,18,Presentation,6,00966960627fa_sunaygrtwrwfezqjizr.jpg,00112931230fa_sunaakjaacuzulqckgl.jpg,00966960627fa.jpg,sunaygrtwrwfezqjizr.jpg,00112931230fa.jpg,sunaakjaacuzulqckgl.jpg,,,<,Place,,,,,1,,,,,,,o
303,18,Presentation,6,00774941201fa_sunafvtpfczkzopbgue.jpg,00647941031fa_sunadflbrkckmepztql.jpg,00774941201fa.jpg,sunafvtpfczkzopbgue.jpg,00647941031fa.jpg,sunadflbrkckmepztql.jpg,,,>,Place,,,,,1,,,,,,,x
304,18,Presentation,6,01007960627fa_sunbxarcshsnqsefemx.jpg,00818940307fa_sunahpblecxtmuzkmxb.jpg,01007960627fa.jpg,sunbxarcshsnqsefemx.jpg,00818940307fa.jpg,sunahpblecxtmuzkmxb.jpg,,,>,Place,,,,,1,,,,,,,x
305,18,Presentation,6,00562941031fa_sunacjnahdmqfnjfwqx.jpg,01000960627fa_sunbvzmgrdvaakxusbu.jpg,00562941031fa.jpg,sunacjnahdmqfnjfwqx.jpg,01000960627fa.jpg,sunbvzmgrdvaakxusbu.jpg,,,<,Place,,,,,1,,,,,,,o
306,18,Presentation,6,00162931230fb_sunaavjinpnkappuonm.jpg,00894960620fa_sunalqmfgeadpqsyzpd.jpg,00162931230fb.jpg,sunaavjinpnkappuonm.jpg,00894960620fa.jpg,sunalqmfgeadpqsyzpd.jpg,,,<,Face,,,,,1,,,,,,,x
307,18,Presentation,6,00630940928fa_sunaczwgyukesaajxnx.jpg,00937960627fa_sunaqsolmfydodnakub.jpg,00630940928fa.jpg,sunaczwgyukesaajxnx.jpg,00937960627fa.jpg,sunaqsolmfydodnakub.jpg,,,<,Face,,,,,1,,,,,,,o
308,18,Presentation,6,00926960627Fa_sunapqwoeotxshkukbh.jpg,00770941201fa_sunaflojskatpeqyzqp.jpg,00926960627Fa.jpg,sunapqwoeotxshkukbh.jpg,00770941201fa.jpg,sunaflojskatpeqyzqp.jpg,,,>,Face,,,,,0,,,,,,,x
309,18,Presentation,6,00797960620fa_sunagufzbeteqdjxais.jpg,00933960627fa_sunapwjkcxdaeqehfql.jpg,00797960620fa.jpg,sunagufzbeteqdjxais.jpg,00933960627fa.jpg,sunapwjkcxdaeqehfql.jpg,,,<,Face,,,,,1,,,,,,,x
310,18,Memory,6,,,,,,,sunapwjkcxdaeqehfql.jpg,,,,,,,,,,,,,,,
311,18,Memory,6,,,,,,,sunaagcpoejbuzyvddd.jpg,,,,,,,,,,,,,,,
312,18,Memory,6,,,,,,,sunafvsxtzaizojicxx.jpg,,,,,,,,,,,,,,,
313,18,Memory,6,,,,,,,sunafhmnhsdurlvddpw.jpg,,,,,,,,,,,,,,,
314,18,Memory,6,,,,,,,sunaczwgyukesaajxnx.jpg,,,,,,,,,,,,,,,
315,18,Memory,6,,,,,,,00062931230fb.jpg,,,,,,,,,,,,,,,
316,18,Memory,6,,,,,,,01002960627fb.jpg,,,,,,,,,,,,,,,
317,18,Memory,6,,,,,,,sunahpblecxtmuzkmxb.jpg,,,,,,,,,,,,,,,
318,18,Memory,6,,,,,,,sunalqmfgeadpqsyzpd.jpg,,,,,,,,,,,,,,,
319,18,Memory,6,,,,,,,00162931230fb.jpg,,,,,,,,,,,,,,,
320,18,Memory,6,,,,,,,sunaddsaeicthrfbkhe.jpg,,,,,,,,,,,,,,,
321,18,Memory,6,,,,,,,00211940128fa.jpg,,,,,,,,,,,,,,,
322,18,Memory,6,,,,,,,00869940307fa.jpg,,,,,,,,,,,,,,,
323,18,Memory,6,,,,,,,sunaygrtwrwfezqjizr.jpg,,,,,,,,,,,,,,,
324,18,Memory,6,,,,,,,00966960627fa.jpg,,,,,,,,,,,,,,,
325,18,Memory,6,,,,,,,sunbxarcshsnqsefemx.jpg,,,,,,,,,,,,,,,
326,18,Memory,6,,,,,,,sunajxpkuhbizeveguy.jpg,,,,,,,,,,,,,,,
327,18,Memory,6,,,,,,,00894960620fa.jpg,,,,,,,,,,,,,,,
328,18,Memory,6,,,,,,,00630940928fa.jpg,,,,,,,,,,,,,,,
329,18,Memory,6,,,,,,,sunbwaafjdebjzttuvq.jpg,,,,,,,,,,,,,,,
330,18,Memory,6,,,,,,,00581940928fa.jpg,,,,,,,,,,,,,,,
331,18,Memory,6,,,,,,,sunaaelotvjgibjtjhs.jpg,,,,,,,,,,,,,,,
332,18,Memory,6,,,,,,,00763941205fa.jpg,,,,,,,,,,,,,,,
333,18,Memory,6,,,,,,,01007960627fa.jpg,,,,,,,,,,,,,,,
334,18,Memory,6,,,,,,,sunaavjinpnkappuonm.jpg,,,,,,,,,,,,,,,
335,18,Memory,6,,,,,,,sunabasphceswhwwqvv.jpg,,,,,,,,,,,,,,,
336,18,Memory,6,,,,,,,00705960530fa.jpg,,,,,,,,,,,,,,,
337,18,Memory,6,,,,,,,sunaduslxfzlbxlllnz.jpg,,,,,,,,,,,,,,,
338,18,Memory,6,,,,,,,00635941031fa.jpg,,,,,,,,,,,,,,,
339,18,Memory,6,,,,,,,00864940307fa.jpg,,,,,,,,,,,,,,,
340,18,Memory,6,,,,,,,sunacvzhvcksnwqcqbw.jpg,,,,,,,,,,,,,,,
341,18,Memory,6,,,,,,,00877960530fa.jpg,,,,,,,,,,,,,,,
342,18,Memory,6,,,,,,,00818940307fa.jpg,,,,,,,,,,,,,,,
343,18,Memory,6,,,,,,,00112931230fa.jpg,,,,,,,,,,,,,,,
344,18,Memory,6,,,,,,,sunajawzbrlrwafowen.jpg,,,,,,,,,,,,,,,
345,18,Memory,6,,,,,,,00089931230fa.jpg,,,,,,,,,,,,,,,
346,18,Memory,6,,,,,,,00933960627fa.jpg,,,,,,,,,,,,,,,
347,18,Memory,6,,,,,,,sunaakjaacuzulqckgl.jpg,,,,,,,,,,,,,,,
348,18,Memory,6,,,,,,,00773960620fa.jpg,,,,,,,,,,,,,,,
349,18,Memory,6,,,,,,,sunajoveqhiprwqgoco.jpg,,,,,,,,,,,,,,,
350,18,Presentation,7,00314940422fa_sunabwmcbaxwioksdgw.jpg,00264940128fb_sunabjzyxcjnmztdonj.jpg,00314940422fa.jpg,sunabwmcbaxwioksdgw.jpg,00264940128fb.jpg,sunabjzyxcjnmztdonj.jpg,,,>,Place,,,,,0,,,,,,,o
351,18,Presentation,7,00119931230fb_sunaakvmbftkrgqhjun.jpg,00996960627fa_sunbpvgllfdejxcpjqp.jpg,00119931230fb.jpg,sunaakvmbftkrgqhjun.jpg,00996960627fa.jpg,sunbpvgllfdejxcpjqp.jpg,,,>,Face,,,,,0,,,,,,,x
352,18,Presentation,7,00778941205fa_sunagcthdfirrcawoic.jpg,00915960620fa_sunapileznnbbmrwoei.jpg,00778941205fa.jpg,sunagcthdfirrcawoic.jpg,00915960620fa.jpg,sunapileznnbbmrwoei.jpg,,,<,Face,,,,,0,,,,,,,o
353,18,Presentation,7,00239940128fa_sunabctlikybqabezjv.jpg,00123931230fb_sunaalcrrdbjgdztbiz.jpg,00239940128fa.jpg,sunabctlikybqabezjv.jpg,00123931230fb.jpg,sunaalcrrdbjgdztbiz.jpg,,,<,Face,,,,,1,,,,,,,x
354,18,Presentation,7,00263940128fb_sunabjuovqvyfuzvqwt.jpg,00728941205fa_sunaejnvnpltdmhbcsi.jpg,00263940128fb.jpg,sunabjuovqvyfuzvqwt.jpg,00728941205fa.jpg,sunaejnvnpltdmhbcsi.jpg,,,>,Face,,,,,1,,,,,,,o
355,18,Presentation,7,00292940422fb_sunabrjdpmoedcdjbpo.jpg,00288940422fa_sunabppokiyglaxpcha.jpg,00292940422fb.jpg,sunabrjdpmoedcdjbpo.jpg,00288940422fa.jpg,sunabppokiyglaxpcha.jpg,,,<,Place,,,,,1,,,,,,,o
356,18,Presentation,7,00120931230fa_sunaakxgygjfqrzpyoz.jpg,00306940422fa_sunabueyoajufbkraki.jpg,00120931230fa.jpg,sunaakxgygjfqrzpyoz.jpg,00306940422fa.jpg,sunabueyoajufbkraki.jpg,,,<,Place,,,,,1,,,,,,,x
357,18,Presentation,7,00885960530fa_sunakwlvxjpddialozd.jpg,00631940928fa_sunadbdqzigzwipuipr.jpg,00885960530fa.jpg,sunakwlvxjpddialozd.jpg,00631940928fa.jpg,sunadbdqzigzwipuipr.jpg,,,<,Place,,,,,1,,,,,,,x
358,18,Presentation,7,00862940307fa_sunaizgnnplsvajzhkc.jpg,00803941205fa_sunagvxkjokqimstxpe.jpg,00862940307fa.jpg,sunaizgnnplsvajzhkc.jpg,00803941205fa.jpg,sunagvxkjokqimstxpe.jpg,,,>,Face,,,,,1,,,,,,,o
359,18,Presentation,7,00077931230fb_sunaafgqutfaishsxyu.jpg,00971960627fa_sunbbegcweqnetpdlrh.jpg,00077931230fb.jpg,sunaafgqutfaishsxyu.jpg,00971960627fa.jpg,sunbbegcweqnetpdlrh.jpg,,,>,Place,,,,,1,,,,,,,o
360,18,Memory,7,,,,,,,00120931230fa.jpg,,,,,,,,,,,,,,,
361,18,Memory,7,,,,,,,00314940422fa.jpg,,,,,,,,,,,,,,,
362,18,Memory,7,,,,,,,sunagtumacdlmciqamz.jpg,,,,,,,,,,,,,,,
363,18,Memory,7,,,,,,,00790941205fa.jpg,,,,,,,,,,,,,,,
364,18,Memory,7,,,,,,,sunaakxgygjfqrzpyoz.jpg,,,,,,,,,,,,,,,
365,18,Memory,7,,,,,,,sunbloeoiozwjjsiamp.jpg,,,,,,,,,,,,,,,
366,18,Memory,7,,,,,,,00978960627fa.jpg,,,,,,,,,,,,,,,
367,18,Memory,7,,,,,,,sunagvxkjokqimstxpe.jpg,,,,,,,,,,,,,,,
368,18,Memory,7,,,,,,,00795941205fa.jpg,,,,,,,,,,,,,,,
369,18,Memory,7,,,,,,,00119931230fb.jpg,,,,,,,,,,,,,,,
370,18,Memory,7,,,,,,,00996960627fa.jpg,,,,,,,,,,,,,,,
371,18,Memory,7,,,,,,,sunbpvgllfdejxcpjqp.jpg,,,,,,,,,,,,,,,
372,18,Memory,7,,,,,,,00900960530fa.jpg,,,,,,,,,,,,,,,
373,18,Memory,7,,,,,,,sunabwmcbaxwioksdgw.jpg,,,,,,,,,,,,,,,
374,18,Memory,7,,,,,,,sunaakmxzhuceuiryah.jpg,,,,,,,,,,,,,,,
375,18,Memory,7,,,,,,,sunaakvmbftkrgqhjun.jpg,,,,,,,,,,,,,,,
376,18,Memory,7,,,,,,,sunapileznnbbmrwoei.jpg,,,,,,,,,,,,,,,
377,18,Memory,7,,,,,,,00073931230fa.jpg,,,,,,,,,,,,,,,
378,18,Memory,7,,,,,,,00115931230fa.jpg,,,,,,,,,,,,,,,
379,18,Memory,7,,,,,,,sunacsdhbbsybcyxnel.jpg,,,,,,,,,,,,,,,
380,18,Memory,7,,,,,,,sunahtfxgsrmkiulnwk.jpg,,,,,,,,,,,,,,,
381,18,Memory,7,,,,,,,sunbddbivbptlrlauhy.jpg,,,,,,,,,,,,,,,
382,18,Memory,7,,,,,,,sunaafbmtoniaasysgu.jpg,,,,,,,,,,,,,,,
383,18,Memory,7,,,,,,,sunaafgqutfaishsxyu.jpg,,,,,,,,,,,,,,,
384,18,Memory,7,,,,,,,00885960530fa.jpg,,,,,,,,,,,,,,,
385,18,Memory,7,,,,,,,sunagpjzsbltchlwvou.jpg,,,,,,,,,,,,,,,
386,18,Memory,7,,,,,,,00077931230fb.jpg,,,,,,,,,,,,,,,
387,18,Memory,7,,,,,,,sunbbegcweqnetpdlrh.jpg,,,,,,,,,,,,,,,
388,18,Memory,7,,,,,,,00568940928fa.jpg,,,,,,,,,,,,,,,
389,18,Memory,7,,,,,,,00827940307fa.jpg,,,,,,,,,,,,,,,
390,18,Memory,7,,,,,,,00198940128fb.jpg,,,,,,,,,,,,,,,
391,18,Memory,7,,,,,,,00915960620fa.jpg,,,,,,,,,,,,,,,
392,18,Memory,7,,,,,,,sunamlotskmmsjeogby.jpg,,,,,,,,,,,,,,,
393,18,Memory,7,,,,,,,00306940422fa.jpg,,,,,,,,,,,,,,,
394,18,Memory,7,,,,,,,00987960627fa.jpg,,,,,,,,,,,,,,,
395,18,Memory,7,,,,,,,00971960627fa.jpg,,,,,,,,,,,,,,,
396,18,Memory,7,,,,,,,sunaazezcsunmhttzxz.jpg,,,,,,,,,,,,,,,
397,18,Memory,7,,,,,,,00803941205fa.jpg,,,,,,,,,,,,,,,
398,18,Memory,7,,,,,,,sunakwlvxjpddialozd.jpg,,,,,,,,,,,,,,,
399,18,Memory,7,,,,,,,sunabueyoajufbkraki.jpg,,,,,,,,,,,,,,,
