,Subject,Trial Type,Run,Cued Composite,Uncued Composite,Cued Face,Cued Place,Uncued Face,Uncued Place,Memory Image,Category,Cued Side,Cued Category,Attention Reaction Time (s),Familiarity Reaction Time (s),Familiarity Rating,Attention Level,Cue Validity,Post Invalid Cue,Pre Invalid Cue,Attention Button,Rating History,Stimulus Onset,Stimulus End,Attention Probe
0,9,Presentation,0,00062931230fb_sunaaelotvjgibjtjhs.jpg,00829940307fa_sunahwgbqkqcrwprgvh.jpg,00062931230fb.jpg,sunaaelotvjgibjtjhs.jpg,00829940307fa.jpg,sunahwgbqkqcrwprgvh.jpg,,,>,Place,,,,,1,,,,,,,x
1,9,Presentation,0,00198940128fb_sunaazezcsunmhttzxz.jpg,00564941031fa_sunacsaovnjezqwbykf.jpg,00198940128fb.jpg,sunaazezcsunmhttzxz.jpg,00564941031fa.jpg,sunacsaovnjezqwbykf.jpg,,,>,Place,,,,,1,,,,,,,x
2,9,Presentation,0,00267940128fb_sunablfqiwfqomjarht.jpg,00260940128fa_sunabgfhvifeijihhjw.jpg,00267940128fb.jpg,sunablfqiwfqomjarht.jpg,00260940128fa.jpg,sunabgfhvifeijihhjw.jpg,,,>,Place,,,,,1,,,,,,,o
3,9,Presentation,0,00968960627fa_sunbagfpovqwbuexqdn.jpg,00636941031fa_sunaddtdkycxbqlpfqa.jpg,00968960627fa.jpg,sunbagfpovqwbuexqdn.jpg,00636941031fa.jpg,sunaddtdkycxbqlpfqa.jpg,,,>,Place,,,,,1,,,,,,,o
4,9,Presentation,0,00098931230fa_sunaajpqmulidejvjsr.jpg,00245940128fa_sunabeyhmxodahoieyk.jpg,00098931230fa.jpg,sunaajpqmulidejvjsr.jpg,00245940128fa.jpg,sunabeyhmxodahoieyk.jpg,,,>,Place,,,,,1,,,,,,,o
5,9,Presentation,0,00876960620fa_sunajwqkfsykceonyig.jpg,00760960620fa_sunaffstbkappprzxnv.jpg,00876960620fa.jpg,sunajwqkfsykceonyig.jpg,00760960620fa.jpg,sunaffstbkappprzxnv.jpg,,,>,Place,,,,,1,,,,,,,o
6,9,Presentation,0,00638941031fa_sunadfktsqjthoglcsm.jpg,00700941121fa_sunadsgmtznewzyasnk.jpg,00638941031fa.jpg,sunadfktsqjthoglcsm.jpg,00700941121fa.jpg,sunadsgmtznewzyasnk.jpg,,,>,Place,,,,,1,,,,,,,x
7,9,Presentation,0,00598941031fa_sunacxtcahkymosigud.jpg,00754941201fa_sunaffgsyyvoqdlkmnk.jpg,00598941031fa.jpg,sunacxtcahkymosigud.jpg,00754941201fa.jpg,sunaffgsyyvoqdlkmnk.jpg,,,>,Place,,,,,1,,,,,,,x
8,9,Presentation,0,01007960627fa_sunbxarcshsnqsefemx.jpg,00847940307fa_sunaivdjruhkrfywfed.jpg,01007960627fa.jpg,sunbxarcshsnqsefemx.jpg,00847940307fa.jpg,sunaivdjruhkrfywfed.jpg,,,>,Place,,,,,1,,,,,,,o
9,9,Presentation,0,00949960627fb_sunasnqkkyhilqkxiqm.jpg,00564940928fa_sunacmpqqfbsvlzinzl.jpg,00949960627fb.jpg,sunasnqkkyhilqkxiqm.jpg,00564940928fa.jpg,sunacmpqqfbsvlzinzl.jpg,,,>,Place,,,,,1,,,,,,,o
10,9,Memory,0,,,,,,,sunaffgsyyvoqdlkmnk.jpg,,,,,,,,,,,,,,,
11,9,Memory,0,,,,,,,sunabeyhmxodahoieyk.jpg,,,,,,,,,,,,,,,
12,9,Memory,0,,,,,,,00564941031fa.jpg,,,,,,,,,,,,,,,
13,9,Memory,0,,,,,,,sunaajpqmulidejvjsr.jpg,,,,,,,,,,,,,,,
14,9,Memory,0,,,,,,,sunacsaovnjezqwbykf.jpg,,,,,,,,,,,,,,,
15,9,Memory,0,,,,,,,00847940307fa.jpg,,,,,,,,,,,,,,,
16,9,Memory,0,,,,,,,sunaawqdbpihmlbwyyn.jpg,,,,,,,,,,,,,,,
17,9,Memory,0,,,,,,,00073931230fa.jpg,,,,,,,,,,,,,,,
18,9,Memory,0,,,,,,,sunasnqkkyhilqkxiqm.jpg,,,,,,,,,,,,,,,
19,9,Memory,0,,,,,,,00062931230fb.jpg,,,,,,,,,,,,,,,
20,9,Memory,0,,,,,,,00949960627fb.jpg,,,,,,,,,,,,,,,
21,9,Memory,0,,,,,,,00968960627fa.jpg,,,,,,,,,,,,,,,
22,9,Memory,0,,,,,,,00574940928fa.jpg,,,,,,,,,,,,,,,
23,9,Memory,0,,,,,,,00185940422fb.jpg,,,,,,,,,,,,,,,
24,9,Memory,0,,,,,,,00564940928fa.jpg,,,,,,,,,,,,,,,
25,9,Memory,0,,,,,,,sunacmpqqfbsvlzinzl.jpg,,,,,,,,,,,,,,,
26,9,Memory,0,,,,,,,00098931230fa.jpg,,,,,,,,,,,,,,,
27,9,Memory,0,,,,,,,00925960627fa.jpg,,,,,,,,,,,,,,,
28,9,Memory,0,,,,,,,sunbvzmgrdvaakxusbu.jpg,,,,,,,,,,,,,,,
29,9,Memory,0,,,,,,,sunapqwnqzxlsfvgsjm.jpg,,,,,,,,,,,,,,,
30,9,Memory,0,,,,,,,01000960627fa.jpg,,,,,,,,,,,,,,,
31,9,Memory,0,,,,,,,sunagjeesomrwjsfqie.jpg,,,,,,,,,,,,,,,
32,9,Memory,0,,,,,,,sunaaelotvjgibjtjhs.jpg,,,,,,,,,,,,,,,
33,9,Memory,0,,,,,,,sunaahedjlmtqekgyvj.jpg,,,,,,,,,,,,,,,
34,9,Memory,0,,,,,,,sunajwqkfsykceonyig.jpg,,,,,,,,,,,,,,,
35,9,Memory,0,,,,,,,sunaafbmtoniaasysgu.jpg,,,,,,,,,,,,,,,
36,9,Memory,0,,,,,,,00245940128fa.jpg,,,,,,,,,,,,,,,
37,9,Memory,0,,,,,,,sunaathajvxrgptwhoj.jpg,,,,,,,,,,,,,,,
38,9,Memory,0,,,,,,,00218940128fa.jpg,,,,,,,,,,,,,,,
39,9,Memory,0,,,,,,,sunacvbrcejzwmcgnoq.jpg,,,,,,,,,,,,,,,
40,9,Memory,0,,,,,,,00144931230fb.jpg,,,,,,,,,,,,,,,
41,9,Memory,0,,,,,,,sunaivdjruhkrfywfed.jpg,,,,,,,,,,,,,,,
42,9,Memory,0,,,,,,,sunbagfpovqwbuexqdn.jpg,,,,,,,,,,,,,,,
43,9,Memory,0,,,,,,,sunaiozxhxgtfrmoagh.jpg,,,,,,,,,,,,,,,
44,9,Memory,0,,,,,,,00838940307fa.jpg,,,,,,,,,,,,,,,
45,9,Memory,0,,,,,,,sunabbwggenhfbftyvi.jpg,,,,,,,,,,,,,,,
46,9,Memory,0,,,,,,,00783941205fa.jpg,,,,,,,,,,,,,,,
47,9,Memory,0,,,,,,,00090931230fa.jpg,,,,,,,,,,,,,,,
48,9,Memory,0,,,,,,,00876960620fa.jpg,,,,,,,,,,,,,,,
49,9,Memory,0,,,,,,,00754941201fa.jpg,,,,,,,,,,,,,,,
50,9,Presentation,1,00858940307fa_sunaixpqndlwhwjtjek.jpg,00989960627fa_sunbondbduabvijnmch.jpg,00858940307fa.jpg,sunaixpqndlwhwjtjek.jpg,00989960627fa.jpg,sunbondbduabvijnmch.jpg,,,>,Place,,,,,1,,,,,,,x
51,9,Presentation,1,00482940519fa_sunabyfxcxhdebvdyfd.jpg,00077931230fb_sunaafgqutfaishsxyu.jpg,00482940519fa.jpg,sunabyfxcxhdebvdyfd.jpg,00077931230fb.jpg,sunaafgqutfaishsxyu.jpg,,,>,Place,,,,,1,,,,,,,x
52,9,Presentation,1,00841940307fa_sunaisiwfgppimtnmxl.jpg,00787960620fa_sunagoufulkpsxrmklt.jpg,00841940307fa.jpg,sunaisiwfgppimtnmxl.jpg,00787960620fa.jpg,sunagoufulkpsxrmklt.jpg,,,>,Place,,,,,1,,,,,,,o
53,9,Presentation,1,00871940307_sunajrujcsdxmfbssmc.jpg,00096931230fa_sunaaiqiqcggrskoqgy.jpg,00871940307.jpg,sunajrujcsdxmfbssmc.jpg,00096931230fa.jpg,sunaaiqiqcggrskoqgy.jpg,,,>,Place,,,,,1,,,,,,,o
54,9,Presentation,1,00109931230fa_sunaajuzribjrizdshh.jpg,00761960627fa_sunafgdqbclkwfocdhg.jpg,00109931230fa.jpg,sunaajuzribjrizdshh.jpg,00761960627fa.jpg,sunafgdqbclkwfocdhg.jpg,,,>,Place,,,,,1,,,,,,,o
55,9,Presentation,1,00694941121fa_sunadrmfzmstgdjdcod.jpg,00854940307fa_sunaiwduelojtwaqeyh.jpg,00694941121fa.jpg,sunadrmfzmstgdjdcod.jpg,00854940307fa.jpg,sunaiwduelojtwaqeyh.jpg,,,>,Place,,,,,1,,,,,,,x
56,9,Presentation,1,00900960530fa_sunamlotskmmsjeogby.jpg,00985960627fa_sunbgklxeqjhdbyfhhy.jpg,00900960530fa.jpg,sunamlotskmmsjeogby.jpg,00985960627fa.jpg,sunbgklxeqjhdbyfhhy.jpg,,,>,Place,,,,,1,,,,,,,o
57,9,Presentation,1,00878960530fa_sunakgbnzxmfohgehnu.jpg,00081941031fa_sunaaftlyfudyzuhqzf.jpg,00878960530fa.jpg,sunakgbnzxmfohgehnu.jpg,00081941031fa.jpg,sunaaftlyfudyzuhqzf.jpg,,,>,Place,,,,,1,,,,,,,o
58,9,Presentation,1,00540940519fa_sunacdnquypmsshhsbk.jpg,00571940928fa_sunacuatpqpqhyjhjqk.jpg,00540940519fa.jpg,sunacdnquypmsshhsbk.jpg,00571940928fa.jpg,sunacuatpqpqhyjhjqk.jpg,,,>,Place,,,,,1,,,,,,,o
59,9,Presentation,1,00294940422fb_sunabrlndkruqokhury.jpg,00633940928fa_sunadbhmrgrrpyzglxs.jpg,00294940422fb.jpg,sunabrlndkruqokhury.jpg,00633940928fa.jpg,sunadbhmrgrrpyzglxs.jpg,,,>,Place,,,,,0,,,,,,,x
60,9,Memory,1,,,,,,,sunaixpqndlwhwjtjek.jpg,,,,,,,,,,,,,,,
61,9,Memory,1,,,,,,,sunapqwoeotxshkukbh.jpg,,,,,,,,,,,,,,,
62,9,Memory,1,,,,,,,sunakwlvxjpddialozd.jpg,,,,,,,,,,,,,,,
63,9,Memory,1,,,,,,,sunapmfmzadmosuogaz.jpg,,,,,,,,,,,,,,,
64,9,Memory,1,,,,,,,00122931230fa.jpg,,,,,,,,,,,,,,,
65,9,Memory,1,,,,,,,00983960627fa.jpg,,,,,,,,,,,,,,,
66,9,Memory,1,,,,,,,00952960627fa.jpg,,,,,,,,,,,,,,,
67,9,Memory,1,,,,,,,sunajrujcsdxmfbssmc.jpg,,,,,,,,,,,,,,,
68,9,Memory,1,,,,,,,sunagoufulkpsxrmklt.jpg,,,,,,,,,,,,,,,
69,9,Memory,1,,,,,,,00787960620fa.jpg,,,,,,,,,,,,,,,
70,9,Memory,1,,,,,,,sunafhmnhsdurlvddpw.jpg,,,,,,,,,,,,,,,
71,9,Memory,1,,,,,,,sunabyfxcxhdebvdyfd.jpg,,,,,,,,,,,,,,,
72,9,Memory,1,,,,,,,sunafvtpfczkzopbgue.jpg,,,,,,,,,,,,,,,
73,9,Memory,1,,,,,,,sunaakxjfbrrequcjmx.jpg,,,,,,,,,,,,,,,
74,9,Memory,1,,,,,,,00919960620fa.jpg,,,,,,,,,,,,,,,
75,9,Memory,1,,,,,,,00841940307fa.jpg,,,,,,,,,,,,,,,
76,9,Memory,1,,,,,,,sunbfyvfqiimvdaxlqn.jpg,,,,,,,,,,,,,,,
77,9,Memory,1,,,,,,,00763941205fa.jpg,,,,,,,,,,,,,,,
78,9,Memory,1,,,,,,,sunaafgqutfaishsxyu.jpg,,,,,,,,,,,,,,,
79,9,Memory,1,,,,,,,sunaaiqiqcggrskoqgy.jpg,,,,,,,,,,,,,,,
80,9,Memory,1,,,,,,,00871940307.jpg,,,,,,,,,,,,,,,
81,9,Memory,1,,,,,,,sunacuatpqpqhyjhjqk.jpg,,,,,,,,,,,,,,,
82,9,Memory,1,,,,,,,00125931230fa.jpg,,,,,,,,,,,,,,,
83,9,Memory,1,,,,,,,sunaisiwfgppimtnmxl.jpg,,,,,,,,,,,,,,,
84,9,Memory,1,,,,,,,00885960530fa.jpg,,,,,,,,,,,,,,,
85,9,Memory,1,,,,,,,00633940928fa.jpg,,,,,,,,,,,,,,,
86,9,Memory,1,,,,,,,sunadbhmrgrrpyzglxs.jpg,,,,,,,,,,,,,,,
87,9,Memory,1,,,,,,,sunaaheqzstzxuadglu.jpg,,,,,,,,,,,,,,,
88,9,Memory,1,,,,,,,00092931230fa.jpg,,,,,,,,,,,,,,,
89,9,Memory,1,,,,,,,sunaalltyvjhbzhkmvg.jpg,,,,,,,,,,,,,,,
90,9,Memory,1,,,,,,,00926960627Fa.jpg,,,,,,,,,,,,,,,
91,9,Memory,1,,,,,,,00774941201fa.jpg,,,,,,,,,,,,,,,
92,9,Memory,1,,,,,,,00077931230fb.jpg,,,,,,,,,,,,,,,
93,9,Memory,1,,,,,,,00571940928fa.jpg,,,,,,,,,,,,,,,
94,9,Memory,1,,,,,,,00482940519fa.jpg,,,,,,,,,,,,,,,
95,9,Memory,1,,,,,,,00694941121fa.jpg,,,,,,,,,,,,,,,
96,9,Memory,1,,,,,,,sunadrmfzmstgdjdcod.jpg,,,,,,,,,,,,,,,
97,9,Memory,1,,,,,,,00858940307fa.jpg,,,,,,,,,,,,,,,
98,9,Memory,1,,,,,,,00096931230fa.jpg,,,,,,,,,,,,,,,
99,9,Memory,1,,,,,,,sunathzzbcwjykldrem.jpg,,,,,,,,,,,,,,,
100,9,Presentation,2,00770941201fa_sunaflojskatpeqyzqp.jpg,00635941031fa_sunaddsaeicthrfbkhe.jpg,00770941201fa.jpg,sunaflojskatpeqyzqp.jpg,00635941031fa.jpg,sunaddsaeicthrfbkhe.jpg,,,<,Face,,,,,0,,,,,,,x
101,9,Presentation,2,00903960620fa_sunanainkqdvktzoxyl.jpg,00089931230fa_sunaagcpoejbuzyvddd.jpg,00903960620fa.jpg,sunanainkqdvktzoxyl.jpg,00089931230fa.jpg,sunaagcpoejbuzyvddd.jpg,,,<,Face,,,,,1,,,,,,,o
102,9,Presentation,2,00811960530fa_sunahedfrhtcwpneund.jpg,00728941205fa_sunaejnvnpltdmhbcsi.jpg,00811960530fa.jpg,sunahedfrhtcwpneund.jpg,00728941205fa.jpg,sunaejnvnpltdmhbcsi.jpg,,,<,Face,,,,,1,,,,,,,x
103,9,Presentation,2,00209940128fb_sunabaergayifsgacxt.jpg,00101931230fb_sunaajqmsaavkmgbsth.jpg,00209940128fb.jpg,sunabaergayifsgacxt.jpg,00101931230fb.jpg,sunaajqmsaavkmgbsth.jpg,,,<,Face,,,,,1,,,,,,,x
104,9,Presentation,2,00116931230fa_sunaakqepfoeqomfgxf.jpg,00747941201fa_sunaeutbrtswvsozxyk.jpg,00116931230fa.jpg,sunaakqepfoeqomfgxf.jpg,00747941201fa.jpg,sunaeutbrtswvsozxyk.jpg,,,<,Face,,,,,1,,,,,,,o
105,9,Presentation,2,00676941121fa_sunadpnqovzckyikrjo.jpg,00163931230fb_sunaavodbcpygkggnfp.jpg,00676941121fa.jpg,sunadpnqovzckyikrjo.jpg,00163931230fb.jpg,sunaavodbcpygkggnfp.jpg,,,<,Face,,,,,1,,,,,,,o
106,9,Presentation,2,00947960627fa_sunasmmcxdddtmtazwx.jpg,00276940422fa_sunabmytpyhsgigllxu.jpg,00947960627fa.jpg,sunasmmcxdddtmtazwx.jpg,00276940422fa.jpg,sunabmytpyhsgigllxu.jpg,,,<,Face,,,,,0,,,,,,,o
107,9,Presentation,2,00839940307fa_sunaipyohrqlwngaqif.jpg,00670941121fa_sunadochqcucscehsgk.jpg,00839940307fa.jpg,sunaipyohrqlwngaqif.jpg,00670941121fa.jpg,sunadochqcucscehsgk.jpg,,,<,Face,,,,,1,,,,,,,o
108,9,Presentation,2,00061931230fb_sunaaekxzjzrfgtkwjf.jpg,00102931230fa_sunaajspcoepticvplv.jpg,00061931230fb.jpg,sunaaekxzjzrfgtkwjf.jpg,00102931230fa.jpg,sunaajspcoepticvplv.jpg,,,<,Face,,,,,1,,,,,,,x
109,9,Presentation,2,00768941205fa_sunafkmnlytenlsywia.jpg,00082931230fa_sunaafvitpexrpvumsa.jpg,00768941205fa.jpg,sunafkmnlytenlsywia.jpg,00082931230fa.jpg,sunaafvitpexrpvumsa.jpg,,,<,Face,,,,,0,,,,,,,x
110,9,Memory,2,,,,,,,00839940307fa.jpg,,,,,,,,,,,,,,,
111,9,Memory,2,,,,,,,00270940422fb.jpg,,,,,,,,,,,,,,,
112,9,Memory,2,,,,,,,00119931230fb.jpg,,,,,,,,,,,,,,,
113,9,Memory,2,,,,,,,sunaejnvnpltdmhbcsi.jpg,,,,,,,,,,,,,,,
114,9,Memory,2,,,,,,,00082931230fa.jpg,,,,,,,,,,,,,,,
115,9,Memory,2,,,,,,,sunaakvmbftkrgqhjun.jpg,,,,,,,,,,,,,,,
116,9,Memory,2,,,,,,,sunaipyohrqlwngaqif.jpg,,,,,,,,,,,,,,,
117,9,Memory,2,,,,,,,00481940519fa.jpg,,,,,,,,,,,,,,,
118,9,Memory,2,,,,,,,00728941205fa.jpg,,,,,,,,,,,,,,,
119,9,Memory,2,,,,,,,00163931230fb.jpg,,,,,,,,,,,,,,,
120,9,Memory,2,,,,,,,sunajawzbrlrwafowen.jpg,,,,,,,,,,,,,,,
121,9,Memory,2,,,,,,,sunabllobxadqcyttej.jpg,,,,,,,,,,,,,,,
122,9,Memory,2,,,,,,,00498960627fa.jpg,,,,,,,,,,,,,,,
123,9,Memory,2,,,,,,,sunaagcpoejbuzyvddd.jpg,,,,,,,,,,,,,,,
124,9,Memory,2,,,,,,,sunaafvitpexrpvumsa.jpg,,,,,,,,,,,,,,,
125,9,Memory,2,,,,,,,sunaavodbcpygkggnfp.jpg,,,,,,,,,,,,,,,
126,9,Memory,2,,,,,,,sunaeutbrtswvsozxyk.jpg,,,,,,,,,,,,,,,
127,9,Memory,2,,,,,,,01005960627fa.jpg,,,,,,,,,,,,,,,
128,9,Memory,2,,,,,,,sunadpnqovzckyikrjo.jpg,,,,,,,,,,,,,,,
129,9,Memory,2,,,,,,,sunaaekxzjzrfgtkwjf.jpg,,,,,,,,,,,,,,,
130,9,Memory,2,,,,,,,00762941201fa.jpg,,,,,,,,,,,,,,,
131,9,Memory,2,,,,,,,00955960627fb.jpg,,,,,,,,,,,,,,,
132,9,Memory,2,,,,,,,sunbwyuesflwdpqtgoy.jpg,,,,,,,,,,,,,,,
133,9,Memory,2,,,,,,,00947960627fa.jpg,,,,,,,,,,,,,,,
134,9,Memory,2,,,,,,,00676941121fa.jpg,,,,,,,,,,,,,,,
135,9,Memory,2,,,,,,,00895960530fa.jpg,,,,,,,,,,,,,,,
136,9,Memory,2,,,,,,,sunabxsuqbleluwczoy.jpg,,,,,,,,,,,,,,,
137,9,Memory,2,,,,,,,00747941201fa.jpg,,,,,,,,,,,,,,,
138,9,Memory,2,,,,,,,sunamczizlzavhzhpay.jpg,,,,,,,,,,,,,,,
139,9,Memory,2,,,,,,,sunauburywlkjszngcq.jpg,,,,,,,,,,,,,,,
140,9,Memory,2,,,,,,,sunagcthdfirrcawoic.jpg,,,,,,,,,,,,,,,
141,9,Memory,2,,,,,,,00864940307fa.jpg,,,,,,,,,,,,,,,
142,9,Memory,2,,,,,,,00089931230fa.jpg,,,,,,,,,,,,,,,
143,9,Memory,2,,,,,,,sunafgzgbisbopcyslr.jpg,,,,,,,,,,,,,,,
144,9,Memory,2,,,,,,,00209940128fb.jpg,,,,,,,,,,,,,,,
145,9,Memory,2,,,,,,,sunabaergayifsgacxt.jpg,,,,,,,,,,,,,,,
146,9,Memory,2,,,,,,,00061931230fb.jpg,,,,,,,,,,,,,,,
147,9,Memory,2,,,,,,,00778941205fa.jpg,,,,,,,,,,,,,,,
148,9,Memory,2,,,,,,,sunasmmcxdddtmtazwx.jpg,,,,,,,,,,,,,,,
149,9,Memory,2,,,,,,,sunabzjxlmkwnwzimua.jpg,,,,,,,,,,,,,,,
150,9,Presentation,3,00631940928fa_sunadbdqzigzwipuipr.jpg,00984960627fa_sunbfzchmomnvzhbxdg.jpg,00631940928fa.jpg,sunadbdqzigzwipuipr.jpg,00984960627fa.jpg,sunbfzchmomnvzhbxdg.jpg,,,<,Place,,,,,1,,,,,,,x
151,9,Presentation,3,00727941205fa_sunaeisnjeetzmkbuad.jpg,00870940307fa_sunajrgtewnualfcerj.jpg,00727941205fa.jpg,sunaeisnjeetzmkbuad.jpg,00870940307fa.jpg,sunajrgtewnualfcerj.jpg,,,<,Place,,,,,1,,,,,,,o
152,9,Presentation,3,00901960530fa_sunammbnoambmhdxdwd.jpg,00982960627fa_sunbesrwkdsffeogeqq.jpg,00901960530fa.jpg,sunammbnoambmhdxdwd.jpg,00982960627fa.jpg,sunbesrwkdsffeogeqq.jpg,,,<,Place,,,,,0,,,,,,,x
153,9,Presentation,3,00766960620fa_sunafijbgncijwykrnl.jpg,00742941201fa_sunaenwuebvlpdmntju.jpg,00766960620fa.jpg,sunafijbgncijwykrnl.jpg,00742941201fa.jpg,sunaenwuebvlpdmntju.jpg,,,<,Place,,,,,1,,,,,,,o
154,9,Presentation,3,00800941205fb_sunagvjurcwdbixvnyi.jpg,01003960627fb_sunbwdrdvsweerwsdrj.jpg,00800941205fb.jpg,sunagvjurcwdbixvnyi.jpg,01003960627fb.jpg,sunbwdrdvsweerwsdrj.jpg,,,<,Place,,,,,1,,,,,,,x
155,9,Presentation,3,00562941031fa_sunacjnahdmqfnjfwqx.jpg,00634940928fa_sunadcphrizvfpljiqt.jpg,00562941031fa.jpg,sunacjnahdmqfnjfwqx.jpg,00634940928fa.jpg,sunadcphrizvfpljiqt.jpg,,,<,Place,,,,,1,,,,,,,o
156,9,Presentation,3,00915960620fa_sunapileznnbbmrwoei.jpg,00816941205fa_sunahmhrncocyhsjpxk.jpg,00915960620fa.jpg,sunapileznnbbmrwoei.jpg,00816941205fa.jpg,sunahmhrncocyhsjpxk.jpg,,,<,Place,,,,,1,,,,,,,x
157,9,Presentation,3,00969960627fa_sunbaoizrfijvhpnnjn.jpg,00938960627fa_sunaqyylsngywqzwfmx.jpg,00969960627fa.jpg,sunbaoizrfijvhpnnjn.jpg,00938960627fa.jpg,sunaqyylsngywqzwfmx.jpg,,,<,Place,,,,,1,,,,,,,x
158,9,Presentation,3,00775941205fa_sunafvwfsmqkjrutjta.jpg,00911960530fa_sunaooaqzputrowwbsw.jpg,00775941205fa.jpg,sunafvwfsmqkjrutjta.jpg,00911960530fa.jpg,sunaooaqzputrowwbsw.jpg,,,<,Place,,,,,1,,,,,,,o
159,9,Presentation,3,00154931230fa_sunaauueuhhvklldjik.jpg,00931960627fa_sunaptrqvaooxfvktvw.jpg,00154931230fa.jpg,sunaauueuhhvklldjik.jpg,00931960627fa.jpg,sunaptrqvaooxfvktvw.jpg,,,<,Place,,,,,1,,,,,,,x
160,9,Memory,3,,,,,,,00742941201fa.jpg,,,,,,,,,,,,,,,
161,9,Memory,3,,,,,,,00901960530fa.jpg,,,,,,,,,,,,,,,
162,9,Memory,3,,,,,,,sunbwdrdvsweerwsdrj.jpg,,,,,,,,,,,,,,,
163,9,Memory,3,,,,,,,sunbesrwkdsffeogeqq.jpg,,,,,,,,,,,,,,,
164,9,Memory,3,,,,,,,00935960627fa.jpg,,,,,,,,,,,,,,,
165,9,Memory,3,,,,,,,sunafcofuuzebuadceo.jpg,,,,,,,,,,,,,,,
166,9,Memory,3,,,,,,,00766960620fa.jpg,,,,,,,,,,,,,,,
167,9,Memory,3,,,,,,,sunaanptmsknhirrzed.jpg,,,,,,,,,,,,,,,
168,9,Memory,3,,,,,,,sunabasphceswhwwqvv.jpg,,,,,,,,,,,,,,,
169,9,Memory,3,,,,,,,00753941201fa.jpg,,,,,,,,,,,,,,,
170,9,Memory,3,,,,,,,sunacjnahdmqfnjfwqx.jpg,,,,,,,,,,,,,,,
171,9,Memory,3,,,,,,,sunaenwuebvlpdmntju.jpg,,,,,,,,,,,,,,,
172,9,Memory,3,,,,,,,00959960627fa.jpg,,,,,,,,,,,,,,,
173,9,Memory,3,,,,,,,sunavxokzybtomhbmvm.jpg,,,,,,,,,,,,,,,
174,9,Memory,3,,,,,,,sunafijbgncijwykrnl.jpg,,,,,,,,,,,,,,,
175,9,Memory,3,,,,,,,sunaqbmgkgqucajzrkp.jpg,,,,,,,,,,,,,,,
176,9,Memory,3,,,,,,,sunammbnoambmhdxdwd.jpg,,,,,,,,,,,,,,,
177,9,Memory,3,,,,,,,01003960627fb.jpg,,,,,,,,,,,,,,,
178,9,Memory,3,,,,,,,sunbaoizrfijvhpnnjn.jpg,,,,,,,,,,,,,,,
179,9,Memory,3,,,,,,,00154931230fa.jpg,,,,,,,,,,,,,,,
180,9,Memory,3,,,,,,,sunaalcrrdbjgdztbiz.jpg,,,,,,,,,,,,,,,
181,9,Memory,3,,,,,,,sunaapllqyqlykszopd.jpg,,,,,,,,,,,,,,,
182,9,Memory,3,,,,,,,00969960627fa.jpg,,,,,,,,,,,,,,,
183,9,Memory,3,,,,,,,00071940128fa.jpg,,,,,,,,,,,,,,,
184,9,Memory,3,,,,,,,sunadcphrizvfpljiqt.jpg,,,,,,,,,,,,,,,
185,9,Memory,3,,,,,,,00562941031fa.jpg,,,,,,,,,,,,,,,
186,9,Memory,3,,,,,,,00211940128fa.jpg,,,,,,,,,,,,,,,
187,9,Memory,3,,,,,,,sunaaexpnawiehinlpy.jpg,,,,,,,,,,,,,,,
188,9,Memory,3,,,,,,,sunaauueuhhvklldjik.jpg,,,,,,,,,,,,,,,
189,9,Memory,3,,,,,,,00938960627fa.jpg,,,,,,,,,,,,,,,
190,9,Memory,3,,,,,,,00140931230fb.jpg,,,,,,,,,,,,,,,
191,9,Memory,3,,,,,,,00982960627fa.jpg,,,,,,,,,,,,,,,
192,9,Memory,3,,,,,,,00914960620fa.jpg,,,,,,,,,,,,,,,
193,9,Memory,3,,,,,,,00123931230fb.jpg,,,,,,,,,,,,,,,
194,9,Memory,3,,,,,,,00634940928fa.jpg,,,,,,,,,,,,,,,
195,9,Memory,3,,,,,,,sunaguchqqnrtodtezq.jpg,,,,,,,,,,,,,,,
196,9,Memory,3,,,,,,,00136931230fb.jpg,,,,,,,,,,,,,,,
197,9,Memory,3,,,,,,,sunaozisvwfbmlkfhzv.jpg,,,,,,,,,,,,,,,
198,9,Memory,3,,,,,,,00796941205fa.jpg,,,,,,,,,,,,,,,
199,9,Memory,3,,,,,,,sunaqyylsngywqzwfmx.jpg,,,,,,,,,,,,,,,
200,9,Presentation,4,00868960307fa_sunajjxttslobudoqbv.jpg,00112931230fa_sunaakjaacuzulqckgl.jpg,00868960307fa.jpg,sunajjxttslobudoqbv.jpg,00112931230fa.jpg,sunaakjaacuzulqckgl.jpg,,,<,Face,,,,,0,,,,,,,o
201,9,Presentation,4,00086931230fa_sunaafynehyrzpsoaml.jpg,00193940928fa_sunaaxjpzcnxligjtjq.jpg,00086931230fa.jpg,sunaafynehyrzpsoaml.jpg,00193940928fa.jpg,sunaaxjpzcnxligjtjq.jpg,,,<,Face,,,,,1,,,,,,,x
202,9,Presentation,4,00937960627fa_sunaqsolmfydodnakub.jpg,00675941121fa_sunadoxcchtmsxewsau.jpg,00937960627fa.jpg,sunaqsolmfydodnakub.jpg,00675941121fa.jpg,sunadoxcchtmsxewsau.jpg,,,<,Face,,,,,1,,,,,,,o
203,9,Presentation,4,00750941201fa_sunaeuzwggvibufclwf.jpg,00554940519fa_sunacfdkbsrughwqwtt.jpg,00750941201fa.jpg,sunaeuzwggvibufclwf.jpg,00554940519fa.jpg,sunacfdkbsrughwqwtt.jpg,,,<,Face,,,,,1,,,,,,,x
204,9,Presentation,4,01004960627fa_sunbwtlihsuptkrckid.jpg,00214940128fa_sunabbafjowbzcvbucc.jpg,01004960627fa.jpg,sunbwtlihsuptkrckid.jpg,00214940128fa.jpg,sunabbafjowbzcvbucc.jpg,,,<,Face,,,,,1,,,,,,,x
205,9,Presentation,4,00936960627fa_sunaqgjuuwvdcyiccjt.jpg,00705960530fa_sunaduslxfzlbxlllnz.jpg,00936960627fa.jpg,sunaqgjuuwvdcyiccjt.jpg,00705960530fa.jpg,sunaduslxfzlbxlllnz.jpg,,,<,Face,,,,,1,,,,,,,o
206,9,Presentation,4,00944960627fa_sunasbbntuiheekqyaq.jpg,00787941205fa_sunagmwxxwymwojbvgi.jpg,00944960627fa.jpg,sunasbbntuiheekqyaq.jpg,00787941205fa.jpg,sunagmwxxwymwojbvgi.jpg,,,<,Face,,,,,1,,,,,,,x
207,9,Presentation,4,00730960620fa_sunaekgzpfilgjxpeyq.jpg,00953960627fa_sunatstrpjxhvtbaczf.jpg,00730960620fa.jpg,sunaekgzpfilgjxpeyq.jpg,00953960627fa.jpg,sunatstrpjxhvtbaczf.jpg,,,<,Face,,,,,1,,,,,,,x
208,9,Presentation,4,00921960627fa_sunapqkpqdfvxlbqwyo.jpg,00866940307fa_sunajbwkywmsqkldfml.jpg,00921960627fa.jpg,sunapqkpqdfvxlbqwyo.jpg,00866940307fa.jpg,sunajbwkywmsqkldfml.jpg,,,<,Face,,,,,1,,,,,,,x
209,9,Presentation,4,00971960627fa_sunbbegcweqnetpdlrh.jpg,00227940128fa_sunabckqabszusgcykj.jpg,00971960627fa.jpg,sunbbegcweqnetpdlrh.jpg,00227940128fa.jpg,sunabckqabszusgcykj.jpg,,,<,Face,,,,,1,,,,,,,x
210,9,Memory,4,,,,,,,00581940928fa.jpg,,,,,,,,,,,,,,,
211,9,Memory,4,,,,,,,00973960627fa.jpg,,,,,,,,,,,,,,,
212,9,Memory,4,,,,,,,sunatstrpjxhvtbaczf.jpg,,,,,,,,,,,,,,,
213,9,Memory,4,,,,,,,sunaqsolmfydodnakub.jpg,,,,,,,,,,,,,,,
214,9,Memory,4,,,,,,,00730960620fa.jpg,,,,,,,,,,,,,,,
215,9,Memory,4,,,,,,,00227940128fa.jpg,,,,,,,,,,,,,,,
216,9,Memory,4,,,,,,,sunaekgzpfilgjxpeyq.jpg,,,,,,,,,,,,,,,
217,9,Memory,4,,,,,,,00944960627fa.jpg,,,,,,,,,,,,,,,
218,9,Memory,4,,,,,,,sunbbegcweqnetpdlrh.jpg,,,,,,,,,,,,,,,
219,9,Memory,4,,,,,,,sunasbbntuiheekqyaq.jpg,,,,,,,,,,,,,,,
220,9,Memory,4,,,,,,,sunacvzhvcksnwqcqbw.jpg,,,,,,,,,,,,,,,
221,9,Memory,4,,,,,,,00971960627fa.jpg,,,,,,,,,,,,,,,
222,9,Memory,4,,,,,,,sunabckqabszusgcykj.jpg,,,,,,,,,,,,,,,
223,9,Memory,4,,,,,,,sunajbwkywmsqkldfml.jpg,,,,,,,,,,,,,,,
224,9,Memory,4,,,,,,,00112931230fa.jpg,,,,,,,,,,,,,,,
225,9,Memory,4,,,,,,,00787941205fa.jpg,,,,,,,,,,,,,,,
226,9,Memory,4,,,,,,,00158931230fb.jpg,,,,,,,,,,,,,,,
227,9,Memory,4,,,,,,,00063931230fa.jpg,,,,,,,,,,,,,,,
228,9,Memory,4,,,,,,,00891960530fa.jpg,,,,,,,,,,,,,,,
229,9,Memory,4,,,,,,,00999960627fa.jpg,,,,,,,,,,,,,,,
230,9,Memory,4,,,,,,,sunaeuzwggvibufclwf.jpg,,,,,,,,,,,,,,,
231,9,Memory,4,,,,,,,sunbvbrvgbpanfrawft.jpg,,,,,,,,,,,,,,,
232,9,Memory,4,,,,,,,00937960627fa.jpg,,,,,,,,,,,,,,,
233,9,Memory,4,,,,,,,00866940307fa.jpg,,,,,,,,,,,,,,,
234,9,Memory,4,,,,,,,sunaaemixhfquhnxxlm.jpg,,,,,,,,,,,,,,,
235,9,Memory,4,,,,,,,00750941201fa.jpg,,,,,,,,,,,,,,,
236,9,Memory,4,,,,,,,00296940422fa.jpg,,,,,,,,,,,,,,,
237,9,Memory,4,,,,,,,sunalkiibhqpxfamlll.jpg,,,,,,,,,,,,,,,
238,9,Memory,4,,,,,,,sunaloffvbvysigxent.jpg,,,,,,,,,,,,,,,
239,9,Memory,4,,,,,,,sunaavchcbptaerhcfy.jpg,,,,,,,,,,,,,,,
240,9,Memory,4,,,,,,,sunaamsdyakblkfoydx.jpg,,,,,,,,,,,,,,,
241,9,Memory,4,,,,,,,00129931230fb.jpg,,,,,,,,,,,,,,,
242,9,Memory,4,,,,,,,00953960627fa.jpg,,,,,,,,,,,,,,,
243,9,Memory,4,,,,,,,00893960530Fa.jpg,,,,,,,,,,,,,,,
244,9,Memory,4,,,,,,,sunbbgtoeuzierkkajt.jpg,,,,,,,,,,,,,,,
245,9,Memory,4,,,,,,,sunaaelyvurpntclgau.jpg,,,,,,,,,,,,,,,
246,9,Memory,4,,,,,,,sunagmwxxwymwojbvgi.jpg,,,,,,,,,,,,,,,
247,9,Memory,4,,,,,,,sunabrwnslxalcohfre.jpg,,,,,,,,,,,,,,,
248,9,Memory,4,,,,,,,sunaakjaacuzulqckgl.jpg,,,,,,,,,,,,,,,
249,9,Memory,4,,,,,,,00065931230fb.jpg,,,,,,,,,,,,,,,
250,9,Presentation,5,00988960627fa_sunbmaiocftdtvnzgap.jpg,00725941201fa_sunaefgzwiramypjvtd.jpg,00988960627fa.jpg,sunbmaiocftdtvnzgap.jpg,00725941201fa.jpg,sunaefgzwiramypjvtd.jpg,,,>,Face,,,,,1,,,,,,,o
251,9,Presentation,5,00262940128fa_sunabizydfotqddlnjp.jpg,00744941201fa_sunaeomlfaabhpswasy.jpg,00262940128fa.jpg,sunabizydfotqddlnjp.jpg,00744941201fa.jpg,sunaeomlfaabhpswasy.jpg,,,>,Face,,,,,1,,,,,,,o
252,9,Presentation,5,00979960627fa_sunbdycacjfaujxitbw.jpg,00147931230fb_sunaatpkocdkocwxpkb.jpg,00979960627fa.jpg,sunbdycacjfaujxitbw.jpg,00147931230fb.jpg,sunaatpkocdkocwxpkb.jpg,,,>,Face,,,,,1,,,,,,,o
253,9,Presentation,5,00559940519fa_sunacjkmnpawfzbyvae.jpg,00795941205fa_sunagtumacdlmciqamz.jpg,00559940519fa.jpg,sunacjkmnpawfzbyvae.jpg,00795941205fa.jpg,sunagtumacdlmciqamz.jpg,,,>,Face,,,,,1,,,,,,,o
254,9,Presentation,5,00799941205fa_sunagutjvdvnhxejerz.jpg,00264940128fb_sunabjzyxcjnmztdonj.jpg,00799941205fa.jpg,sunagutjvdvnhxejerz.jpg,00264940128fb.jpg,sunabjzyxcjnmztdonj.jpg,,,>,Face,,,,,1,,,,,,,x
255,9,Presentation,5,00095931230fa_sunaahzooisqkwlxwoz.jpg,00771941205fa_sunafowswglhxcsufpo.jpg,00095931230fa.jpg,sunaahzooisqkwlxwoz.jpg,00771941205fa.jpg,sunafowswglhxcsufpo.jpg,,,>,Face,,,,,1,,,,,,,o
256,9,Presentation,5,00292940422fb_sunabrjdpmoedcdjbpo.jpg,00859940307fa_sunaiycurtqsfkvcaso.jpg,00292940422fb.jpg,sunabrjdpmoedcdjbpo.jpg,00859940307fa.jpg,sunaiycurtqsfkvcaso.jpg,,,>,Face,,,,,1,,,,,,,x
257,9,Presentation,5,00313940422fa_sunabwjvmoaddlyxfjr.jpg,00773960620fa_sunafvsxtzaizojicxx.jpg,00313940422fa.jpg,sunabwjvmoaddlyxfjr.jpg,00773960620fa.jpg,sunafvsxtzaizojicxx.jpg,,,>,Face,,,,,1,,,,,,,x
258,9,Presentation,5,00902960530fa_sunanaacmmosxrfwmvl.jpg,00942960627fa_sunarfdklgdnjgeqfjg.jpg,00902960530fa.jpg,sunanaacmmosxrfwmvl.jpg,00942960627fa.jpg,sunarfdklgdnjgeqfjg.jpg,,,>,Face,,,,,1,,,,,,,x
259,9,Presentation,5,00648941031fa_sunadfndyrtqqiasoig.jpg,00239940128fa_sunabctlikybqabezjv.jpg,00648941031fa.jpg,sunadfndyrtqqiasoig.jpg,00239940128fa.jpg,sunabctlikybqabezjv.jpg,,,>,Face,,,,,1,,,,,,,x
260,9,Memory,5,,,,,,,sunbmaiocftdtvnzgap.jpg,,,,,,,,,,,,,,,
261,9,Memory,5,,,,,,,sunaefgzwiramypjvtd.jpg,,,,,,,,,,,,,,,
262,9,Memory,5,,,,,,,00648941031fa.jpg,,,,,,,,,,,,,,,
263,9,Memory,5,,,,,,,00822940307fa.jpg,,,,,,,,,,,,,,,
264,9,Memory,5,,,,,,,sunadfndyrtqqiasoig.jpg,,,,,,,,,,,,,,,
265,9,Memory,5,,,,,,,sunagtumacdlmciqamz.jpg,,,,,,,,,,,,,,,
266,9,Memory,5,,,,,,,sunbdycacjfaujxitbw.jpg,,,,,,,,,,,,,,,
267,9,Memory,5,,,,,,,00848940307fa.jpg,,,,,,,,,,,,,,,
268,9,Memory,5,,,,,,,sunahawfngukizslzsd.jpg,,,,,,,,,,,,,,,
269,9,Memory,5,,,,,,,00797960620fa.jpg,,,,,,,,,,,,,,,
270,9,Memory,5,,,,,,,00725941201fa.jpg,,,,,,,,,,,,,,,
271,9,Memory,5,,,,,,,00942960627fa.jpg,,,,,,,,,,,,,,,
272,9,Memory,5,,,,,,,sunaemcowdozyphwknd.jpg,,,,,,,,,,,,,,,
273,9,Memory,5,,,,,,,00262940128fa.jpg,,,,,,,,,,,,,,,
274,9,Memory,5,,,,,,,sunarfdklgdnjgeqfjg.jpg,,,,,,,,,,,,,,,
275,9,Memory,5,,,,,,,00208940128fa.jpg,,,,,,,,,,,,,,,
276,9,Memory,5,,,,,,,sunbasypfgzjtomktmu.jpg,,,,,,,,,,,,,,,
277,9,Memory,5,,,,,,,00589940928fa.jpg,,,,,,,,,,,,,,,
278,9,Memory,5,,,,,,,sunabwjvmoaddlyxfjr.jpg,,,,,,,,,,,,,,,
279,9,Memory,5,,,,,,,sunahqrxievfeusiqlt.jpg,,,,,,,,,,,,,,,
280,9,Memory,5,,,,,,,00795941205fa.jpg,,,,,,,,,,,,,,,
281,9,Memory,5,,,,,,,sunacwggadqsfpovdjv.jpg,,,,,,,,,,,,,,,
282,9,Memory,5,,,,,,,00744941201fa.jpg,,,,,,,,,,,,,,,
283,9,Memory,5,,,,,,,sunaivdylrawbmhryfp.jpg,,,,,,,,,,,,,,,
284,9,Memory,5,,,,,,,sunaafewhewbxmjiurz.jpg,,,,,,,,,,,,,,,
285,9,Memory,5,,,,,,,sunaeomlfaabhpswasy.jpg,,,,,,,,,,,,,,,
286,9,Memory,5,,,,,,,00807941205fa.jpg,,,,,,,,,,,,,,,
287,9,Memory,5,,,,,,,00988960627fa.jpg,,,,,,,,,,,,,,,
288,9,Memory,5,,,,,,,00076931230fa.jpg,,,,,,,,,,,,,,,
289,9,Memory,5,,,,,,,sunabizydfotqddlnjp.jpg,,,,,,,,,,,,,,,
290,9,Memory,5,,,,,,,00313940422fa.jpg,,,,,,,,,,,,,,,
291,9,Memory,5,,,,,,,00979960627fa.jpg,,,,,,,,,,,,,,,
292,9,Memory,5,,,,,,,00239940128fa.jpg,,,,,,,,,,,,,,,
293,9,Memory,5,,,,,,,00741941201fa.jpg,,,,,,,,,,,,,,,
294,9,Memory,5,,,,,,,sunaazzyhbvqjpmazjq.jpg,,,,,,,,,,,,,,,
295,9,Memory,5,,,,,,,sunaiwfobocrruqznsv.jpg,,,,,,,,,,,,,,,
296,9,Memory,5,,,,,,,00970960627fa.jpg,,,,,,,,,,,,,,,
297,9,Memory,5,,,,,,,sunagufzbeteqdjxais.jpg,,,,,,,,,,,,,,,
298,9,Memory,5,,,,,,,sunabctlikybqabezjv.jpg,,,,,,,,,,,,,,,
299,9,Memory,5,,,,,,,00857940307fa.jpg,,,,,,,,,,,,,,,
300,9,Presentation,6,00794960620fa_sunagtqhhwxjeuxdebe.jpg,00791941205fa_sunagrmyoovzukhxmlo.jpg,00794960620fa.jpg,sunagtqhhwxjeuxdebe.jpg,00791941205fa.jpg,sunagrmyoovzukhxmlo.jpg,,,<,Place,,,,,1,,,,,,,o
301,9,Presentation,6,00977960627fa_sunbbxkanhzjgbwyxqs.jpg,00819940307fa_sunahqldjibofgsfdgb.jpg,00977960627fa.jpg,sunbbxkanhzjgbwyxqs.jpg,00819940307fa.jpg,sunahqldjibofgsfdgb.jpg,,,<,Place,,,,,1,,,,,,,x
302,9,Presentation,6,00235940128fb_sunabclssnoeuigtawp.jpg,00887960530_sunalcrtwiycqobgelp.jpg,00235940128fb.jpg,sunabclssnoeuigtawp.jpg,00887960530.jpg,sunalcrtwiycqobgelp.jpg,,,<,Place,,,,,0,,,,,,,x
303,9,Presentation,6,01010960627fa_suncnkvbhypnivcohyx.jpg,00266940128fb_sunabkngeblodihjvbk.jpg,01010960627fa.jpg,suncnkvbhypnivcohyx.jpg,00266940128fb.jpg,sunabkngeblodihjvbk.jpg,,,<,Place,,,,,1,,,,,,,o
304,9,Presentation,6,00898960530fa_sunamkmeblgteyggink.jpg,00548940519fa_sunacerqowiaeoqkmsq.jpg,00898960530fa.jpg,sunamkmeblgteyggink.jpg,00548940519fa.jpg,sunacerqowiaeoqkmsq.jpg,,,<,Place,,,,,1,,,,,,,x
305,9,Presentation,6,00958960627fa_sunavspxmxubqaeidjt.jpg,00532960627fa_sunaccdtpgenvcbcbcf.jpg,00958960627fa.jpg,sunavspxmxubqaeidjt.jpg,00532960627fa.jpg,sunaccdtpgenvcbcbcf.jpg,,,<,Place,,,,,1,,,,,,,x
306,9,Presentation,6,00779941205fa_sunagdzlvkqtpnfxfcg.jpg,00751960620fa_sunaezuszgtxnmsxdbk.jpg,00779941205fa.jpg,sunagdzlvkqtpnfxfcg.jpg,00751960620fa.jpg,sunaezuszgtxnmsxdbk.jpg,,,<,Place,,,,,1,,,,,,,o
307,9,Presentation,6,00960960627fa_sunawksfbacycuhbrsc.jpg,00568940928fa_sunacsdhbbsybcyxnel.jpg,00960960627fa.jpg,sunawksfbacycuhbrsc.jpg,00568940928fa.jpg,sunacsdhbbsybcyxnel.jpg,,,<,Place,,,,,1,,,,,,,o
308,9,Presentation,6,00720960620fa_sunaecpkgfewqqreqwe.jpg,00987960627fa_sunbloeoiozwjjsiamp.jpg,00720960620fa.jpg,sunaecpkgfewqqreqwe.jpg,00987960627fa.jpg,sunbloeoiozwjjsiamp.jpg,,,<,Place,,,,,1,,,,,,,o
309,9,Presentation,6,00142931230fb_sunaapxkpvrhpjplsok.jpg,00786941205fa_sunagmhildamktmqjss.jpg,00142931230fb.jpg,sunaapxkpvrhpjplsok.jpg,00786941205fa.jpg,sunagmhildamktmqjss.jpg,,,<,Place,,,,,1,,,,,,,o
310,9,Memory,6,,,,,,,00972960627fa.jpg,,,,,,,,,,,,,,,
311,9,Memory,6,,,,,,,sunaapxkpvrhpjplsok.jpg,,,,,,,,,,,,,,,
312,9,Memory,6,,,,,,,sunaafjszryxyavjzln.jpg,,,,,,,,,,,,,,,
313,9,Memory,6,,,,,,,sunaezuszgtxnmsxdbk.jpg,,,,,,,,,,,,,,,
314,9,Memory,6,,,,,,,sunagtqhhwxjeuxdebe.jpg,,,,,,,,,,,,,,,
315,9,Memory,6,,,,,,,sunacvjlsylseoghjup.jpg,,,,,,,,,,,,,,,
316,9,Memory,6,,,,,,,00993960627fa.jpg,,,,,,,,,,,,,,,
317,9,Memory,6,,,,,,,sunabzuqsrgcsonqlkz.jpg,,,,,,,,,,,,,,,
318,9,Memory,6,,,,,,,sunahqldjibofgsfdgb.jpg,,,,,,,,,,,,,,,
319,9,Memory,6,,,,,,,sunaetydippjxikifsb.jpg,,,,,,,,,,,,,,,
320,9,Memory,6,,,,,,,00130931230fa.jpg,,,,,,,,,,,,,,,
321,9,Memory,6,,,,,,,00505960627fa.jpg,,,,,,,,,,,,,,,
322,9,Memory,6,,,,,,,00532960627fa.jpg,,,,,,,,,,,,,,,
323,9,Memory,6,,,,,,,00149931230fa.jpg,,,,,,,,,,,,,,,
324,9,Memory,6,,,,,,,sunaamvxnvouicstkjb.jpg,,,,,,,,,,,,,,,
325,9,Memory,6,,,,,,,00794960620fa.jpg,,,,,,,,,,,,,,,
326,9,Memory,6,,,,,,,00751960620fa.jpg,,,,,,,,,,,,,,,
327,9,Memory,6,,,,,,,00819940307fa.jpg,,,,,,,,,,,,,,,
328,9,Memory,6,,,,,,,sunabclssnoeuigtawp.jpg,,,,,,,,,,,,,,,
329,9,Memory,6,,,,,,,00235940128fb.jpg,,,,,,,,,,,,,,,
330,9,Memory,6,,,,,,,sunawksfbacycuhbrsc.jpg,,,,,,,,,,,,,,,
331,9,Memory,6,,,,,,,sunaauglwmctnkxyird.jpg,,,,,,,,,,,,,,,
332,9,Memory,6,,,,,,,sunaatjesvdupctftmn.jpg,,,,,,,,,,,,,,,
333,9,Memory,6,,,,,,,00746941201fa.jpg,,,,,,,,,,,,,,,
334,9,Memory,6,,,,,,,sunagmhildamktmqjss.jpg,,,,,,,,,,,,,,,
335,9,Memory,6,,,,,,,00576941031fa.jpg,,,,,,,,,,,,,,,
336,9,Memory,6,,,,,,,00162931230fb.jpg,,,,,,,,,,,,,,,
337,9,Memory,6,,,,,,,00960960627fa.jpg,,,,,,,,,,,,,,,
338,9,Memory,6,,,,,,,suncnkvbhypnivcohyx.jpg,,,,,,,,,,,,,,,
339,9,Memory,6,,,,,,,sunaavjinpnkappuonm.jpg,,,,,,,,,,,,,,,
340,9,Memory,6,,,,,,,00080931230fb.jpg,,,,,,,,,,,,,,,
341,9,Memory,6,,,,,,,00548940519fa.jpg,,,,,,,,,,,,,,,
342,9,Memory,6,,,,,,,00142931230fb.jpg,,,,,,,,,,,,,,,
343,9,Memory,6,,,,,,,00145931230fb.jpg,,,,,,,,,,,,,,,
344,9,Memory,6,,,,,,,sunaccdtpgenvcbcbcf.jpg,,,,,,,,,,,,,,,
345,9,Memory,6,,,,,,,00786941205fa.jpg,,,,,,,,,,,,,,,
346,9,Memory,6,,,,,,,sunbbfqwjpdxniyhies.jpg,,,,,,,,,,,,,,,
347,9,Memory,6,,,,,,,01010960627fa.jpg,,,,,,,,,,,,,,,
348,9,Memory,6,,,,,,,sunacerqowiaeoqkmsq.jpg,,,,,,,,,,,,,,,
349,9,Memory,6,,,,,,,sunbprywzqxjcezkbch.jpg,,,,,,,,,,,,,,,
350,9,Presentation,7,00191940128fb_sunaawsdjisukbbginm.jpg,00773941201fa_sunafvcflzhlqloapyo.jpg,00191940128fb.jpg,sunaawsdjisukbbginm.jpg,00773941201fa.jpg,sunafvcflzhlqloapyo.jpg,,,>,Face,,,,,1,,,,,,,x
351,9,Presentation,7,00271940422fa_sunabmbnddafmywtjjj.jpg,00976960627fa_sunbbhqyyzmsxhsbjmp.jpg,00271940422fa.jpg,sunabmbnddafmywtjjj.jpg,00976960627fa.jpg,sunbbhqyyzmsxhsbjmp.jpg,,,>,Face,,,,,1,,,,,,,o
352,9,Presentation,7,00288940422fa_sunabppokiyglaxpcha.jpg,00827940307fa_sunahtfxgsrmkiulnwk.jpg,00288940422fa.jpg,sunabppokiyglaxpcha.jpg,00827940307fa.jpg,sunahtfxgsrmkiulnwk.jpg,,,>,Face,,,,,1,,,,,,,o
353,9,Presentation,7,00543940519fa_sunacepzfrmtkiqonpy.jpg,00963960627fa_sunayaepykrqvenaqqy.jpg,00543940519fa.jpg,sunacepzfrmtkiqonpy.jpg,00963960627fa.jpg,sunayaepykrqvenaqqy.jpg,,,>,Face,,,,,1,,,,,,,o
354,9,Presentation,7,00790941205fa_sunagpjzsbltchlwvou.jpg,00745941205fa_sunaeouogqolxvggaoq.jpg,00790941205fa.jpg,sunagpjzsbltchlwvou.jpg,00745941205fa.jpg,sunaeouogqolxvggaoq.jpg,,,>,Face,,,,,0,,,,,,,x
355,9,Presentation,7,00302940422fa_sunabtlfmiwtljmoues.jpg,00805941205fa_sunagwzdbtlixdhgolm.jpg,00302940422fa.jpg,sunabtlfmiwtljmoues.jpg,00805941205fa.jpg,sunagwzdbtlixdhgolm.jpg,,,>,Face,,,,,1,,,,,,,x
356,9,Presentation,7,00308940422fb_sunabwfvcqqidycwypa.jpg,00146960620fb_sunaatpeezlljqaxlhj.jpg,00308940422fb.jpg,sunabwfvcqqidycwypa.jpg,00146960620fb.jpg,sunaatpeezlljqaxlhj.jpg,,,>,Face,,,,,1,,,,,,,o
357,9,Presentation,7,00986960627fa_sunbgzjryivyczuvkvm.jpg,00115931230fa_sunaakmxzhuceuiryah.jpg,00986960627fa.jpg,sunbgzjryivyczuvkvm.jpg,00115931230fa.jpg,sunaakmxzhuceuiryah.jpg,,,>,Face,,,,,1,,,,,,,x
358,9,Presentation,7,01207940128fa_sundbixjudsgeuuehrn.jpg,00943960627fa_sunarpsxqkduedrrzyi.jpg,01207940128fa.jpg,sundbixjudsgeuuehrn.jpg,00943960627fa.jpg,sunarpsxqkduedrrzyi.jpg,,,>,Face,,,,,1,,,,,,,o
359,9,Presentation,7,00197940128fa_sunaaylzyqlqrsmfwif.jpg,00097931230fa_sunaajayojuslbbnneg.jpg,00197940128fa.jpg,sunaaylzyqlqrsmfwif.jpg,00097931230fa.jpg,sunaajayojuslbbnneg.jpg,,,>,Face,,,,,1,,,,,,,x
360,9,Memory,7,,,,,,,sunabcuurugvxwparpk.jpg,,,,,,,,,,,,,,,
361,9,Memory,7,,,,,,,00950960627fa.jpg,,,,,,,,,,,,,,,
362,9,Memory,7,,,,,,,sunacepzfrmtkiqonpy.jpg,,,,,,,,,,,,,,,
363,9,Memory,7,,,,,,,00943960627fa.jpg,,,,,,,,,,,,,,,
364,9,Memory,7,,,,,,,sunagwswhkvnsmuszlz.jpg,,,,,,,,,,,,,,,
365,9,Memory,7,,,,,,,sunaaehaikpckyjsety.jpg,,,,,,,,,,,,,,,
366,9,Memory,7,,,,,,,sunabwfvcqqidycwypa.jpg,,,,,,,,,,,,,,,
367,9,Memory,7,,,,,,,sunarpsxqkduedrrzyi.jpg,,,,,,,,,,,,,,,
368,9,Memory,7,,,,,,,sunafvcflzhlqloapyo.jpg,,,,,,,,,,,,,,,
369,9,Memory,7,,,,,,,sunahbvlpavurqoxdeq.jpg,,,,,,,,,,,,,,,
370,9,Memory,7,,,,,,,00242940128fa.jpg,,,,,,,,,,,,,,,
371,9,Memory,7,,,,,,,00894960620fa.jpg,,,,,,,,,,,,,,,
372,9,Memory,7,,,,,,,00804960530fa.jpg,,,,,,,,,,,,,,,
373,9,Memory,7,,,,,,,sunalqmfgeadpqsyzpd.jpg,,,,,,,,,,,,,,,
374,9,Memory,7,,,,,,,sunaakmxzhuceuiryah.jpg,,,,,,,,,,,,,,,
375,9,Memory,7,,,,,,,sunaatpeezlljqaxlhj.jpg,,,,,,,,,,,,,,,
376,9,Memory,7,,,,,,,00809960620fa.jpg,,,,,,,,,,,,,,,
377,9,Memory,7,,,,,,,00543940519fa.jpg,,,,,,,,,,,,,,,
378,9,Memory,7,,,,,,,sunabtlfmiwtljmoues.jpg,,,,,,,,,,,,,,,
379,9,Memory,7,,,,,,,01207940128fa.jpg,,,,,,,,,,,,,,,
380,9,Memory,7,,,,,,,00127931230fa.jpg,,,,,,,,,,,,,,,
381,9,Memory,7,,,,,,,00773941201fa.jpg,,,,,,,,,,,,,,,
382,9,Memory,7,,,,,,,00115931230fa.jpg,,,,,,,,,,,,,,,
383,9,Memory,7,,,,,,,sunaawsdjisukbbginm.jpg,,,,,,,,,,,,,,,
384,9,Memory,7,,,,,,,00191940128fb.jpg,,,,,,,,,,,,,,,
385,9,Memory,7,,,,,,,sundbixjudsgeuuehrn.jpg,,,,,,,,,,,,,,,
386,9,Memory,7,,,,,,,00529940519fa.jpg,,,,,,,,,,,,,,,
387,9,Memory,7,,,,,,,00308940422fb.jpg,,,,,,,,,,,,,,,
388,9,Memory,7,,,,,,,sunadnjjzohjhbohlwq.jpg,,,,,,,,,,,,,,,
389,9,Memory,7,,,,,,,00963960627fa.jpg,,,,,,,,,,,,,,,
390,9,Memory,7,,,,,,,00146960620fb.jpg,,,,,,,,,,,,,,,
391,9,Memory,7,,,,,,,sunacbeefkxpymwevpk.jpg,,,,,,,,,,,,,,,
392,9,Memory,7,,,,,,,00060931230fa.jpg,,,,,,,,,,,,,,,
393,9,Memory,7,,,,,,,00663941121fa.jpg,,,,,,,,,,,,,,,
394,9,Memory,7,,,,,,,sunasrjlmglmjzbmqxb.jpg,,,,,,,,,,,,,,,
395,9,Memory,7,,,,,,,sunaampvucecsfbdafn.jpg,,,,,,,,,,,,,,,
396,9,Memory,7,,,,,,,sunaavtbadenwnzeutj.jpg,,,,,,,,,,,,,,,
397,9,Memory,7,,,,,,,00302940422fa.jpg,,,,,,,,,,,,,,,
398,9,Memory,7,,,,,,,sunayaepykrqvenaqqy.jpg,,,,,,,,,,,,,,,
399,9,Memory,7,,,,,,,00184940128fa.jpg,,,,,,,,,,,,,,,
