,Subject,Trial Type,Run,Cued Composite,Uncued Composite,Cued Face,Cued Place,Uncued Face,Uncued Place,Memory Image,Category,Cued Side,Cued Category,Attention Reaction Time (s),Familiarity Reaction Time (s),Familiarity Rating,Attention Level,Cue Validity,Post Invalid Cue,Pre Invalid Cue,Attention Button,Rating History,Stimulus Onset,Stimulus End,Attention Probe
360,18,Memory,7,,,,,,,01010960627fa.jpg,,,,,1.754,3.0,,,,,,,1539210189.85866,1539210191.908675,
361,18,Memory,7,,,,,,,00663941121fa.jpg,,,,,0.937,2.0,,,,,,,1539210193.292748,1539210195.277803,
362,18,Memory,7,,,,,,,sunaazzyhbvqjpmazjq.jpg,,,,,0.82,3.0,,,,,,,1539210196.527027,1539210198.511101,
363,18,Memory,7,,,,,,,sunbloeoiozwjjsiamp.jpg,,,,,0.82,3.0,,,,,,,1539210199.762008,1539210201.745118,
364,18,Memory,7,,,,,,,sunaefgzwiramypjvtd.jpg,,,,,0.688,2.0,,,,,,,1539210203.012191,1539210204.997431,
365,18,Memory,7,,,,,,,sunahuynahneraqftyz.jpg,,,,,1.087,3.0,,,,,,,1539210206.247439,1539210208.230523,
366,18,Memory,7,,,,,,,00887960530.jpg,,,,,1.053,2.0,,,,,,,1539210209.481768,1539210211.465998,
367,18,Memory,7,,,,,,,00144931230fb.jpg,,,,,0.938,2.0,,,,,,,1539210212.731936,1539210214.717904,
368,18,Memory,7,,,,,,,sunabckqabszusgcykj.jpg,,,,,0.953,3.0,,,,,,,1539210215.983909,1539210217.967979,
369,18,Memory,7,,,,,,,sunaakvmbftkrgqhjun.jpg,,,,,1.103,3.0,,,,,,,1539210219.218373,1539210221.202458,
370,18,Memory,7,,,,,,,00071941031fa.jpg,,,,,1.22,2.0,,,,,,,1539210222.468393,1539210224.453321,
371,18,Memory,7,,,,,,,00725941201fa.jpg,,,,,0.737,1.0,,,,,,,1539210225.720774,1539210227.703505,
372,18,Memory,7,,,,,,,00208940128fa.jpg,,,,,1.02,2.0,,,,,,,1539210228.955629,1539210230.938867,
373,18,Memory,7,,,,,,,sunakodkcslgqhqlgwl.jpg,,,,,1.136,2.0,,,,,,,1539210232.204964,1539210234.189912,
374,18,Memory,7,,,,,,,suncnkvbhypnivcohyx.jpg,,,,,1.086,3.0,,,,,,,1539210235.440265,1539210237.424343,
375,18,Memory,7,,,,,,,00218940128fa.jpg,,,,,0.802,3.0,,,,,,,1539210238.675522,1539210240.659139,
376,18,Memory,7,,,,,,,00779941205fa.jpg,,,,,1.354,2.0,,,,,,,1539210241.908304,1539210243.893723,
377,18,Memory,7,,,,,,,sunagwswhkvnsmuszlz.jpg,,,,,1.404,4.0,,,,,,,1539210245.15989,1539210247.143648,
378,18,Memory,7,,,,,,,00670941121fa.jpg,,,,,0.77,3.0,,,,,,,1539210248.393844,1539210250.37795,
379,18,Memory,7,,,,,,,sunagdzlvkqtpnfxfcg.jpg,,,,,1.436,2.0,,,,,,,1539210251.628869,1539210253.613166,
380,18,Memory,7,,,,,,,sunagmhildamktmqjss.jpg,,,,,1.219,1.0,,,,,,,1539210254.863185,1539210256.84719,
381,18,Memory,7,,,,,,,sunacmpqqfbsvlzinzl.jpg,,,,,1.004,2.0,,,,,,,1539210258.113409,1539210260.098295,
382,18,Memory,7,,,,,,,00949960627fb.jpg,,,,,1.437,3.0,,,,,,,1539210261.365372,1539210263.349313,
383,18,Memory,7,,,,,,,00828940307fa.jpg,,,,,0.97,2.0,,,,,,,1539210264.616894,1539210266.600536,
384,18,Memory,7,,,,,,,sunasnqkkyhilqkxiqm.jpg,,,,,1.037,2.0,,,,,,,1539210267.850724,1539210269.835005,
385,18,Memory,7,,,,,,,00786941205fa.jpg,,,,,1.304,2.0,,,,,,,1539210271.101847,1539210273.086012,
386,18,Memory,7,,,,,,,00804960530fa.jpg,,,,,1.587,3.0,,,,,,,1539210274.336203,1539210276.320128,
387,18,Memory,7,,,,,,,sunaathajvxrgptwhoj.jpg,,,,,1.237,2.0,,,,,,,1539210277.570451,1539210279.554458,
388,18,Memory,7,,,,,,,sunalcrtwiycqobgelp.jpg,,,,,1.386,4.0,,,,,,,1539210280.805491,1539210282.787835,
389,18,Memory,7,,,,,,,sunaqsolmfydodnakub.jpg,,,,,1.187,2.0,,,,,,,1539210284.039561,1539210286.022966,
390,18,Memory,7,,,,,,,00227940128fa.jpg,,,,,0.902,2.0,,,,,,,1539210287.272844,1539210289.257961,
391,18,Memory,7,,,,,,,sunabbwggenhfbftyvi.jpg,,,,,1.653,2.0,,,,,,,1539210290.541944,1539210292.525396,
392,18,Memory,7,,,,,,,sunadochqcucscehsgk.jpg,,,,,0.953,3.0,,,,,,,1539210293.775548,1539210295.759196,
393,18,Memory,7,,,,,,,00884960530fa.jpg,,,,,0.936,2.0,,,,,,,1539210297.026591,1539210299.011734,
394,18,Memory,7,,,,,,,00937960627fa.jpg,,,,,1.953,2.0,,,,,,,1539210300.26151,1539210302.244823,
395,18,Memory,7,,,,,,,00119931230fb.jpg,,,,,0.671,2.0,,,,,,,1539210303.511809,1539210305.495774,
396,18,Memory,7,,,,,,,sunaaexqbtdswxrqjvz.jpg,,,,,1.337,3.0,,,,,,,1539210306.746893,1539210308.731191,
397,18,Memory,7,,,,,,,sunadnjjzohjhbohlwq.jpg,,,,,1.02,3.0,,,,,,,1539210309.981256,1539210311.965077,
398,18,Memory,7,,,,,,,00564940928fa.jpg,,,,,0.904,3.0,,,,,,,1539210313.231281,1539210315.216532,
399,18,Memory,7,,,,,,,00987960627fa.jpg,,,,,0.97,2.0,,,,,,,1539210316.482464,1539210318.465781,
