,Subject,Trial Type,Run,Cued Composite,Uncued Composite,Cued Face,Cued Place,Uncued Face,Uncued Place,Memory Image,Category,Cued Side,Cued Category,Attention Response Time (s),Familiarity Reaction Time (s),Familiarity Rating,Attention Level,Cue Validity,Post Invalid Cue,Pre Invalid Cue,Attention Button,Rating History,Stimulus Onset,Stimulus End,Attention Probe
0,2,Presentation,0,00197940128fa_sunaaylzyqlqrsmfwif.jpg,00630941031fa_sunadakkdovnuzlycvp.jpg,,,,,,,<,Place,,,,,1,,,,,,,x
1,2,Presentation,0,00874940307fa_sunajtrfunvzdfticna.jpg,00797960620fa_sunagufzbeteqdjxais.jpg,,,,,,,>,Face,,,,,1,,,,,,,o
2,2,Presentation,0,00210940128fb_sunabanoxjtqxamkucc.jpg,00909960530_sunaobtizabegtwfwul.jpg,,,,,,,<,Face,,,,,1,,,,,,,o
3,2,Presentation,0,00978960627fa_sunbddbivbptlrlauhy.jpg,00209940128fb_sunabaergayifsgacxt.jpg,,,,,,,<,Place,,,,,1,,,,,,,x
4,2,Presentation,0,00126931230fb_sunaamdjwemxpmmtypi.jpg,00119931230fb_sunaakvmbftkrgqhjun.jpg,,,,,,,>,Face,,,,,1,,,,,,,o
5,2,Presentation,0,00146960620fb_sunaatpeezlljqaxlhj.jpg,00971960627fa_sunbbegcweqnetpdlrh.jpg,,,,,,,>,Place,,,,,1,,,,,,,o
6,2,Presentation,0,00894960620fa_sunalqmfgeadpqsyzpd.jpg,00092931230fa_sunaaheqzstzxuadglu.jpg,,,,,,,<,Face,,,,,1,,,,,,,o
7,2,Presentation,0,00794960620fa_sunagtqhhwxjeuxdebe.jpg,00158931230fb_sunaavchcbptaerhcfy.jpg,,,,,,,<,Place,,,,,1,,,,,,,o
8,2,Presentation,0,00760960620fa_sunaffstbkappprzxnv.jpg,00943960627fa_sunarpsxqkduedrrzyi.jpg,,,,,,,>,Place,,,,,1,,,,,,,o
9,2,Presentation,0,00647941031fa_sunadflbrkckmepztql.jpg,00939960627fa_sunarceibpcyacbmfga.jpg,,,,,,,>,Face,,,,,1,,,,,,,x
10,2,Memory,0,,,,,,,00631940928fa.jpg,,,,,,,,,,,,,,,
11,2,Memory,0,,,,,,,sunatstrpjxhvtbaczf.jpg,,,,,,,,,,,,,,,
12,2,Memory,0,,,,,,,sunafgdqbclkwfocdhg.jpg,,,,,,,,,,,,,,,
13,2,Memory,0,,,,,,,sunaobtizabegtwfwul.jpg,,,,,,,,,,,,,,,
14,2,Memory,0,,,,,,,00782941205fa.jpg,,,,,,,,,,,,,,,
15,2,Memory,0,,,,,,,sunaffstbkappprzxnv.jpg,,,,,,,,,,,,,,,
16,2,Memory,0,,,,,,,sunadbdqzigzwipuipr.jpg,,,,,,,,,,,,,,,
17,2,Memory,0,,,,,,,00751960620fa.jpg,,,,,,,,,,,,,,,
18,2,Memory,0,,,,,,,00761960627fa.jpg,,,,,,,,,,,,,,,
19,2,Memory,0,,,,,,,sunabasphceswhwwqvv.jpg,,,,,,,,,,,,,,,
20,2,Memory,0,,,,,,,sunadflbrkckmepztql.jpg,,,,,,,,,,,,,,,
21,2,Memory,0,,,,,,,sunacerqowiaeoqkmsq.jpg,,,,,,,,,,,,,,,
22,2,Memory,0,,,,,,,00211940128fa.jpg,,,,,,,,,,,,,,,
23,2,Memory,0,,,,,,,00647941031fa.jpg,,,,,,,,,,,,,,,
24,2,Memory,0,,,,,,,00953960627fa.jpg,,,,,,,,,,,,,,,
25,2,Memory,0,,,,,,,00193940928fa.jpg,,,,,,,,,,,,,,,
26,2,Memory,0,,,,,,,00794960620fa.jpg,,,,,,,,,,,,,,,
27,2,Memory,0,,,,,,,sunaygrtwrwfezqjizr.jpg,,,,,,,,,,,,,,,
28,2,Memory,0,,,,,,,sunagtqhhwxjeuxdebe.jpg,,,,,,,,,,,,,,,
29,2,Memory,0,,,,,,,sunagdzlvkqtpnfxfcg.jpg,,,,,,,,,,,,,,,
30,2,Memory,0,,,,,,,00909960530.jpg,,,,,,,,,,,,,,,
31,2,Memory,0,,,,,,,sunagufzbeteqdjxais.jpg,,,,,,,,,,,,,,,
32,2,Memory,0,,,,,,,00874940307fa.jpg,,,,,,,,,,,,,,,
33,2,Memory,0,,,,,,,sunarpsxqkduedrrzyi.jpg,,,,,,,,,,,,,,,
34,2,Memory,0,,,,,,,sunagfvluwixdsozaql.jpg,,,,,,,,,,,,,,,
35,2,Memory,0,,,,,,,00797960620fa.jpg,,,,,,,,,,,,,,,
36,2,Memory,0,,,,,,,00779941205fa.jpg,,,,,,,,,,,,,,,
37,2,Memory,0,,,,,,,sunbddbivbptlrlauhy.jpg,,,,,,,,,,,,,,,
38,2,Memory,0,,,,,,,00760960620fa.jpg,,,,,,,,,,,,,,,
39,2,Memory,0,,,,,,,sunaaxjpzcnxligjtjq.jpg,,,,,,,,,,,,,,,
40,2,Memory,0,,,,,,,sunaakvmbftkrgqhjun.jpg,,,,,,,,,,,,,,,
41,2,Memory,0,,,,,,,00966960627fa.jpg,,,,,,,,,,,,,,,
42,2,Memory,0,,,,,,,sunaaheqzstzxuadglu.jpg,,,,,,,,,,,,,,,
43,2,Memory,0,,,,,,,00978960627fa.jpg,,,,,,,,,,,,,,,
44,2,Memory,0,,,,,,,00943960627fa.jpg,,,,,,,,,,,,,,,
45,2,Memory,0,,,,,,,sunajtrfunvzdfticna.jpg,,,,,,,,,,,,,,,
46,2,Memory,0,,,,,,,00548940519fa.jpg,,,,,,,,,,,,,,,
47,2,Memory,0,,,,,,,sunaezuszgtxnmsxdbk.jpg,,,,,,,,,,,,,,,
48,2,Memory,0,,,,,,,00092931230fa.jpg,,,,,,,,,,,,,,,
49,2,Memory,0,,,,,,,00119931230fb.jpg,,,,,,,,,,,,,,,
50,2,Presentation,1,00987960627fa_sunbloeoiozwjjsiamp.jpg,00884960530fa_sunakodkcslgqhqlgwl.jpg,,,,,,,>,Face,,,,,1,,,,,,,o
51,2,Presentation,1,00129931230fb_sunaamsdyakblkfoydx.jpg,00557940519fa_sunachtuarilwyqnvjx.jpg,,,,,,,<,Face,,,,,1,,,,,,,o
52,2,Presentation,1,00841940307fa_sunaisiwfgppimtnmxl.jpg,00812941205fa_sunahgtbwgsmtqeodwh.jpg,,,,,,,>,Place,,,,,1,,,,,,,o
53,2,Presentation,1,00507940519fa_sunacacflqoyxhsqzhe.jpg,00080931230fb_sunaafjszryxyavjzln.jpg,,,,,,,<,Face,,,,,1,,,,,,,x
54,2,Presentation,1,00060931230fa_sunaaehaikpckyjsety.jpg,00290940422fa_sunabqowuarvqqcnipn.jpg,,,,,,,<,Place,,,,,0,,,,,,,o
55,2,Presentation,1,00122931230fa_sunaakxjfbrrequcjmx.jpg,00791941205fa_sunagrmyoovzukhxmlo.jpg,,,,,,,>,Place,,,,,1,,,,,,,o
56,2,Presentation,1,00609940928fa_sunacycdoztxoluxjyk.jpg,00957960627fa_sunavhxgmgrqsaptynb.jpg,,,,,,,<,Face,,,,,1,,,,,,,x
57,2,Presentation,1,00264940128fb_sunabjzyxcjnmztdonj.jpg,00969960627fa_sunbaoizrfijvhpnnjn.jpg,,,,,,,>,Face,,,,,1,,,,,,,x
58,2,Presentation,1,00807941205fa_sunahawfngukizslzsd.jpg,00944960627fa_sunasbbntuiheekqyaq.jpg,,,,,,,>,Place,,,,,0,,,,,,,o
59,2,Presentation,1,00778941205fa_sunagcthdfirrcawoic.jpg,00777941205fa_sunagcinxkccdtrjmlv.jpg,,,,,,,<,Place,,,,,1,,,,,,,o
60,2,Memory,1,,,,,,,sunasbbntuiheekqyaq.jpg,,,,,,,,,,,,,,,
61,2,Memory,1,,,,,,,sunaamsdyakblkfoydx.jpg,,,,,,,,,,,,,,,
62,2,Memory,1,,,,,,,00796941205fa.jpg,,,,,,,,,,,,,,,
63,2,Memory,1,,,,,,,00267940128fb.jpg,,,,,,,,,,,,,,,
64,2,Memory,1,,,,,,,sunaahzooisqkwlxwoz.jpg,,,,,,,,,,,,,,,
65,2,Memory,1,,,,,,,sunaguchqqnrtodtezq.jpg,,,,,,,,,,,,,,,
66,2,Memory,1,,,,,,,sunabzuqsrgcsonqlkz.jpg,,,,,,,,,,,,,,,
67,2,Memory,1,,,,,,,00944960627fa.jpg,,,,,,,,,,,,,,,
68,2,Memory,1,,,,,,,00129931230fb.jpg,,,,,,,,,,,,,,,
69,2,Memory,1,,,,,,,sunacacflqoyxhsqzhe.jpg,,,,,,,,,,,,,,,
70,2,Memory,1,,,,,,,00505960627fa.jpg,,,,,,,,,,,,,,,
71,2,Memory,1,,,,,,,sunaiwfobocrruqznsv.jpg,,,,,,,,,,,,,,,
72,2,Memory,1,,,,,,,00957960627fa.jpg,,,,,,,,,,,,,,,
73,2,Memory,1,,,,,,,sunagvxkjokqimstxpe.jpg,,,,,,,,,,,,,,,
74,2,Memory,1,,,,,,,sunavhxgmgrqsaptynb.jpg,,,,,,,,,,,,,,,
75,2,Memory,1,,,,,,,sunacycdoztxoluxjyk.jpg,,,,,,,,,,,,,,,
76,2,Memory,1,,,,,,,sunaaehaikpckyjsety.jpg,,,,,,,,,,,,,,,
77,2,Memory,1,,,,,,,00507940519fa.jpg,,,,,,,,,,,,,,,
78,2,Memory,1,,,,,,,00803941205fa.jpg,,,,,,,,,,,,,,,
79,2,Memory,1,,,,,,,sunaazezcsunmhttzxz.jpg,,,,,,,,,,,,,,,
80,2,Memory,1,,,,,,,00557940519fa.jpg,,,,,,,,,,,,,,,
81,2,Memory,1,,,,,,,00969960627fa.jpg,,,,,,,,,,,,,,,
82,2,Memory,1,,,,,,,00125931230fa.jpg,,,,,,,,,,,,,,,
83,2,Memory,1,,,,,,,sunbaoizrfijvhpnnjn.jpg,,,,,,,,,,,,,,,
84,2,Memory,1,,,,,,,00198940128fb.jpg,,,,,,,,,,,,,,,
85,2,Memory,1,,,,,,,sunabjzyxcjnmztdonj.jpg,,,,,,,,,,,,,,,
86,2,Memory,1,,,,,,,00060931230fa.jpg,,,,,,,,,,,,,,,
87,2,Memory,1,,,,,,,00264940128fb.jpg,,,,,,,,,,,,,,,
88,2,Memory,1,,,,,,,00095931230fa.jpg,,,,,,,,,,,,,,,
89,2,Memory,1,,,,,,,sunablfqiwfqomjarht.jpg,,,,,,,,,,,,,,,
90,2,Memory,1,,,,,,,00191940128fb.jpg,,,,,,,,,,,,,,,
91,2,Memory,1,,,,,,,sunaawsdjisukbbginm.jpg,,,,,,,,,,,,,,,
92,2,Memory,1,,,,,,,00609940928fa.jpg,,,,,,,,,,,,,,,
93,2,Memory,1,,,,,,,00080931230fb.jpg,,,,,,,,,,,,,,,
94,2,Memory,1,,,,,,,sunaafjszryxyavjzln.jpg,,,,,,,,,,,,,,,
95,2,Memory,1,,,,,,,01004960627fa.jpg,,,,,,,,,,,,,,,
96,2,Memory,1,,,,,,,sunachtuarilwyqnvjx.jpg,,,,,,,,,,,,,,,
97,2,Memory,1,,,,,,,00857940307fa.jpg,,,,,,,,,,,,,,,
98,2,Memory,1,,,,,,,sunaalltyvjhbzhkmvg.jpg,,,,,,,,,,,,,,,
99,2,Memory,1,,,,,,,sunbwtlihsuptkrckid.jpg,,,,,,,,,,,,,,,
100,2,Presentation,2,00705960530fa_sunaduslxfzlbxlllnz.jpg,00620940928fa_sunacypmnujalygkunp.jpg,,,,,,,<,Place,,,,,0,,,,,,,o
101,2,Presentation,2,00700941121fa_sunadsgmtznewzyasnk.jpg,00260940128fa_sunabgfhvifeijihhjw.jpg,,,,,,,>,Place,,,,,0,,,,,,,o
102,2,Presentation,2,00276940422fa_sunabmytpyhsgigllxu.jpg,00650941031fa_sunadikxpvqeabxrvvc.jpg,,,,,,,>,Face,,,,,1,,,,,,,o
103,2,Presentation,2,01207940128fa_sundbixjudsgeuuehrn.jpg,00130931230fa_sunaamvxnvouicstkjb.jpg,,,,,,,<,Place,,,,,1,,,,,,,o
104,2,Presentation,2,00750941201fa_sunaeuzwggvibufclwf.jpg,00564941031fa_sunacsaovnjezqwbykf.jpg,,,,,,,>,Place,,,,,1,,,,,,,x
105,2,Presentation,2,00993960627fa_sunbprywzqxjcezkbch.jpg,00891960530fa_sunalkiibhqpxfamlll.jpg,,,,,,,>,Face,,,,,1,,,,,,,x
106,2,Presentation,2,00741941201fa_sunaemcowdozyphwknd.jpg,00116931230fa_sunaakqepfoeqomfgxf.jpg,,,,,,,<,Face,,,,,1,,,,,,,x
107,2,Presentation,2,00776941205fa_sunafxokyavhgptyfye.jpg,01002960627fb_sunbwaafjdebjzttuvq.jpg,,,,,,,<,Place,,,,,1,,,,,,,o
108,2,Presentation,2,00144931230fb_sunaathajvxrgptwhoj.jpg,00858940307fa_sunaixpqndlwhwjtjek.jpg,,,,,,,>,Face,,,,,1,,,,,,,x
109,2,Presentation,2,00913960530fa_sunaooffzffbhcpirmm.jpg,00481940519fa_sunabxsuqbleluwczoy.jpg,,,,,,,<,Face,,,,,1,,,,,,,x
110,2,Memory,2,,,,,,,01207940128fa.jpg,,,,,,,,,,,,,,,
111,2,Memory,2,,,,,,,sunainqelldeebvxtcz.jpg,,,,,,,,,,,,,,,
112,2,Memory,2,,,,,,,sunaajspcoepticvplv.jpg,,,,,,,,,,,,,,,
113,2,Memory,2,,,,,,,00789960620fa.jpg,,,,,,,,,,,,,,,
114,2,Memory,2,,,,,,,00670941121fa.jpg,,,,,,,,,,,,,,,
115,2,Memory,2,,,,,,,sundbixjudsgeuuehrn.jpg,,,,,,,,,,,,,,,
116,2,Memory,2,,,,,,,sunakgbnzxmfohgehnu.jpg,,,,,,,,,,,,,,,
117,2,Memory,2,,,,,,,sunathzzbcwjykldrem.jpg,,,,,,,,,,,,,,,
118,2,Memory,2,,,,,,,00891960530fa.jpg,,,,,,,,,,,,,,,
119,2,Memory,2,,,,,,,00878960530fa.jpg,,,,,,,,,,,,,,,
120,2,Memory,2,,,,,,,00952960627fa.jpg,,,,,,,,,,,,,,,
121,2,Memory,2,,,,,,,sunabxsuqbleluwczoy.jpg,,,,,,,,,,,,,,,
122,2,Memory,2,,,,,,,sunbtpilbhhbmhmeuzq.jpg,,,,,,,,,,,,,,,
123,2,Memory,2,,,,,,,00144931230fb.jpg,,,,,,,,,,,,,,,
124,2,Memory,2,,,,,,,01002960627fb.jpg,,,,,,,,,,,,,,,
125,2,Memory,2,,,,,,,00130931230fa.jpg,,,,,,,,,,,,,,,
126,2,Memory,2,,,,,,,00081941031fa.jpg,,,,,,,,,,,,,,,
127,2,Memory,2,,,,,,,sunaamvxnvouicstkjb.jpg,,,,,,,,,,,,,,,
128,2,Memory,2,,,,,,,00776941205fa.jpg,,,,,,,,,,,,,,,
129,2,Memory,2,,,,,,,00102931230fa.jpg,,,,,,,,,,,,,,,
130,2,Memory,2,,,,,,,00481940519fa.jpg,,,,,,,,,,,,,,,
131,2,Memory,2,,,,,,,sunadochqcucscehsgk.jpg,,,,,,,,,,,,,,,
132,2,Memory,2,,,,,,,sunalkiibhqpxfamlll.jpg,,,,,,,,,,,,,,,
133,2,Memory,2,,,,,,,sunbwaafjdebjzttuvq.jpg,,,,,,,,,,,,,,,
134,2,Memory,2,,,,,,,00276940422fa.jpg,,,,,,,,,,,,,,,
135,2,Memory,2,,,,,,,sunasrjlmglmjzbmqxb.jpg,,,,,,,,,,,,,,,
136,2,Memory,2,,,,,,,00997960627fa.jpg,,,,,,,,,,,,,,,
137,2,Memory,2,,,,,,,sunaaftlyfudyzuhqzf.jpg,,,,,,,,,,,,,,,
138,2,Memory,2,,,,,,,sunaathajvxrgptwhoj.jpg,,,,,,,,,,,,,,,
139,2,Memory,2,,,,,,,00163931230fb.jpg,,,,,,,,,,,,,,,
140,2,Memory,2,,,,,,,sunaakqepfoeqomfgxf.jpg,,,,,,,,,,,,,,,
141,2,Memory,2,,,,,,,00836940307fa.jpg,,,,,,,,,,,,,,,
142,2,Memory,2,,,,,,,sunaemcowdozyphwknd.jpg,,,,,,,,,,,,,,,
143,2,Memory,2,,,,,,,sunabmytpyhsgigllxu.jpg,,,,,,,,,,,,,,,
144,2,Memory,2,,,,,,,00116931230fa.jpg,,,,,,,,,,,,,,,
145,2,Memory,2,,,,,,,sunafxokyavhgptyfye.jpg,,,,,,,,,,,,,,,
146,2,Memory,2,,,,,,,sunagpancjmxqfazssf.jpg,,,,,,,,,,,,,,,
147,2,Memory,2,,,,,,,00741941201fa.jpg,,,,,,,,,,,,,,,
148,2,Memory,2,,,,,,,sunaavodbcpygkggnfp.jpg,,,,,,,,,,,,,,,
149,2,Memory,2,,,,,,,00950960627fa.jpg,,,,,,,,,,,,,,,
150,2,Presentation,3,01011960627fa_sundahdxwmcdluscvot.jpg,00145931230fb_sunaatjesvdupctftmn.jpg,,,,,,,<,Place,,,,,1,,,,,,,x
151,2,Presentation,3,01000960627fa_sunbvzmgrdvaakxusbu.jpg,00982960627fa_sunbesrwkdsffeogeqq.jpg,,,,,,,>,Place,,,,,0,,,,,,,o
152,2,Presentation,3,00185940422fb_sunaawqdbpihmlbwyyn.jpg,00065931230fb_sunaaemixhfquhnxxlm.jpg,,,,,,,>,Face,,,,,1,,,,,,,o
153,2,Presentation,3,01009960627fa_sunbxzweleltykebgan.jpg,00895960530fa_sunamczizlzavhzhpay.jpg,,,,,,,<,Face,,,,,1,,,,,,,o
154,2,Presentation,3,00194940128fb_sunaayehfdqcyxggsej.jpg,00112931230fa_sunaakjaacuzulqckgl.jpg,,,,,,,<,Place,,,,,1,,,,,,,o
155,2,Presentation,3,00905960530fa_sunanmoqeyprjjjfxjt.jpg,00800941205fb_sunagvjurcwdbixvnyi.jpg,,,,,,,<,Face,,,,,1,,,,,,,o
156,2,Presentation,3,00862940307fa_sunaizgnnplsvajzhkc.jpg,00184940128fa_sunaavtbadenwnzeutj.jpg,,,,,,,>,Face,,,,,1,,,,,,,x
157,2,Presentation,3,00638941031fa_sunadfktsqjthoglcsm.jpg,00663941121fa_sunadnjjzohjhbohlwq.jpg,,,,,,,<,Place,,,,,1,,,,,,,x
158,2,Presentation,3,00926960627Fa_sunapqwoeotxshkukbh.jpg,00662941121fa_sunadkazmlajmohnwfl.jpg,,,,,,,>,Face,,,,,1,,,,,,,x
159,2,Presentation,3,00785941205fa_sunaglqunwuycxydmyu.jpg,00854940307fa_sunaiwduelojtwaqeyh.jpg,,,,,,,>,Place,,,,,1,,,,,,,x
160,2,Memory,3,,,,,,,sunaknlirqjqiwbbeeg.jpg,,,,,,,,,,,,,,,
161,2,Memory,3,,,,,,,00270940422fb.jpg,,,,,,,,,,,,,,,
162,2,Memory,3,,,,,,,00638941031fa.jpg,,,,,,,,,,,,,,,
163,2,Memory,3,,,,,,,00882960530fa.jpg,,,,,,,,,,,,,,,
164,2,Memory,3,,,,,,,01011960627fa.jpg,,,,,,,,,,,,,,,
165,2,Memory,3,,,,,,,sunaanlwnpqndclffxt.jpg,,,,,,,,,,,,,,,
166,2,Memory,3,,,,,,,sunadfktsqjthoglcsm.jpg,,,,,,,,,,,,,,,
167,2,Memory,3,,,,,,,sunabohxbskznglnrhv.jpg,,,,,,,,,,,,,,,
168,2,Memory,3,,,,,,,00915960620fa.jpg,,,,,,,,,,,,,,,
169,2,Memory,3,,,,,,,sunadvithllcgmfxsrn.jpg,,,,,,,,,,,,,,,
170,2,Memory,3,,,,,,,00895960530fa.jpg,,,,,,,,,,,,,,,
171,2,Memory,3,,,,,,,sunanmoqeyprjjjfxjt.jpg,,,,,,,,,,,,,,,
172,2,Memory,3,,,,,,,sunaaemixhfquhnxxlm.jpg,,,,,,,,,,,,,,,
173,2,Memory,3,,,,,,,00958960627fa.jpg,,,,,,,,,,,,,,,
174,2,Memory,3,,,,,,,00905960530fa.jpg,,,,,,,,,,,,,,,
175,2,Memory,3,,,,,,,00663941121fa.jpg,,,,,,,,,,,,,,,
176,2,Memory,3,,,,,,,sunapqwoeotxshkukbh.jpg,,,,,,,,,,,,,,,
177,2,Memory,3,,,,,,,sundahdxwmcdluscvot.jpg,,,,,,,,,,,,,,,
178,2,Memory,3,,,,,,,00854940307fa.jpg,,,,,,,,,,,,,,,
179,2,Memory,3,,,,,,,00065931230fb.jpg,,,,,,,,,,,,,,,
180,2,Memory,3,,,,,,,sunabllobxadqcyttej.jpg,,,,,,,,,,,,,,,
181,2,Memory,3,,,,,,,00559940519fa.jpg,,,,,,,,,,,,,,,
182,2,Memory,3,,,,,,,00719941201fa.jpg,,,,,,,,,,,,,,,
183,2,Memory,3,,,,,,,sunacjkmnpawfzbyvae.jpg,,,,,,,,,,,,,,,
184,2,Memory,3,,,,,,,00133931230fa.jpg,,,,,,,,,,,,,,,
185,2,Memory,3,,,,,,,00926960627Fa.jpg,,,,,,,,,,,,,,,
186,2,Memory,3,,,,,,,sunamczizlzavhzhpay.jpg,,,,,,,,,,,,,,,
187,2,Memory,3,,,,,,,sunavspxmxubqaeidjt.jpg,,,,,,,,,,,,,,,
188,2,Memory,3,,,,,,,00089931230fa.jpg,,,,,,,,,,,,,,,
189,2,Memory,3,,,,,,,sunapileznnbbmrwoei.jpg,,,,,,,,,,,,,,,
190,2,Memory,3,,,,,,,sunadnjjzohjhbohlwq.jpg,,,,,,,,,,,,,,,
191,2,Memory,3,,,,,,,sunaagcpoejbuzyvddd.jpg,,,,,,,,,,,,,,,
192,2,Memory,3,,,,,,,00785941205fa.jpg,,,,,,,,,,,,,,,
193,2,Memory,3,,,,,,,sunaiwduelojtwaqeyh.jpg,,,,,,,,,,,,,,,
194,2,Memory,3,,,,,,,00889960530fa.jpg,,,,,,,,,,,,,,,
195,2,Memory,3,,,,,,,sunaglqunwuycxydmyu.jpg,,,,,,,,,,,,,,,
196,2,Memory,3,,,,,,,sunagvjurcwdbixvnyi.jpg,,,,,,,,,,,,,,,
197,2,Memory,3,,,,,,,sunaletopenvvozhpxc.jpg,,,,,,,,,,,,,,,
198,2,Memory,3,,,,,,,00800941205fb.jpg,,,,,,,,,,,,,,,
199,2,Memory,3,,,,,,,00280940422fb.jpg,,,,,,,,,,,,,,,
200,2,Presentation,4,00214940128fa_sunabbafjowbzcvbucc.jpg,00070940307fa_sunaaeplwsfslcbtojr.jpg,,,,,,,<,Face,,,,,1,,,,,,,o
201,2,Presentation,4,00799941205fa_sunagutjvdvnhxejerz.jpg,00921960627fa_sunapqkpqdfvxlbqwyo.jpg,,,,,,,>,Face,,,,,1,,,,,,,o
202,2,Presentation,4,00959960627fa_sunavxokzybtomhbmvm.jpg,00263940128fb_sunabjuovqvyfuzvqwt.jpg,,,,,,,>,Place,,,,,1,,,,,,,o
203,2,Presentation,4,00742941201fa_sunaenwuebvlpdmntju.jpg,00775941205fa_sunafvwfsmqkjrutjta.jpg,,,,,,,<,Place,,,,,1,,,,,,,o
204,2,Presentation,4,00829940307fa_sunahwgbqkqcrwprgvh.jpg,00676941121fa_sunadpnqovzckyikrjo.jpg,,,,,,,>,Place,,,,,0,,,,,,,x
205,2,Presentation,4,00498960627fa_sunabzjxlmkwnwzimua.jpg,00903960620fa_sunanainkqdvktzoxyl.jpg,,,,,,,<,Face,,,,,1,,,,,,,o
206,2,Presentation,4,00242940128fa_sunabcuurugvxwparpk.jpg,00910960530fa_sunaofikylqtxphvdem.jpg,,,,,,,>,Face,,,,,1,,,,,,,x
207,2,Presentation,4,00848940307fa_sunaivdylrawbmhryfp.jpg,00792941205fa_sunagsiwrmuixqgdimb.jpg,,,,,,,<,Place,,,,,1,,,,,,,x
208,2,Presentation,4,00929960627fa_sunaprnrbmgkomdbchr.jpg,00931960627fa_sunaptrqvaooxfvktvw.jpg,,,,,,,>,Face,,,,,1,,,,,,,o
209,2,Presentation,4,00271940422fa_sunabmbnddafmywtjjj.jpg,00801941205fa_sunagvprlbprarvgdvj.jpg,,,,,,,<,Place,,,,,1,,,,,,,x
210,2,Memory,4,,,,,,,00902960530fa.jpg,,,,,,,,,,,,,,,
211,2,Memory,4,,,,,,,00931960627fa.jpg,,,,,,,,,,,,,,,
212,2,Memory,4,,,,,,,00801941205fa.jpg,,,,,,,,,,,,,,,
213,2,Memory,4,,,,,,,sunaeoghzrjarigmwua.jpg,,,,,,,,,,,,,,,
214,2,Memory,4,,,,,,,sunavxokzybtomhbmvm.jpg,,,,,,,,,,,,,,,
215,2,Memory,4,,,,,,,01007960627fa.jpg,,,,,,,,,,,,,,,
216,2,Memory,4,,,,,,,00910960530fa.jpg,,,,,,,,,,,,,,,
217,2,Memory,4,,,,,,,00743941201fa.jpg,,,,,,,,,,,,,,,
218,2,Memory,4,,,,,,,00908960530fa.jpg,,,,,,,,,,,,,,,
219,2,Memory,4,,,,,,,sunagutjvdvnhxejerz.jpg,,,,,,,,,,,,,,,
220,2,Memory,4,,,,,,,00775941205fa.jpg,,,,,,,,,,,,,,,
221,2,Memory,4,,,,,,,sunaaeplwsfslcbtojr.jpg,,,,,,,,,,,,,,,
222,2,Memory,4,,,,,,,00959960627fa.jpg,,,,,,,,,,,,,,,
223,2,Memory,4,,,,,,,00316940422fa.jpg,,,,,,,,,,,,,,,
224,2,Memory,4,,,,,,,00877960530fa.jpg,,,,,,,,,,,,,,,
225,2,Memory,4,,,,,,,sunajxpkuhbizeveguy.jpg,,,,,,,,,,,,,,,
226,2,Memory,4,,,,,,,00848940307fa.jpg,,,,,,,,,,,,,,,
227,2,Memory,4,,,,,,,sunanwjjyqqwzqrqagd.jpg,,,,,,,,,,,,,,,
228,2,Memory,4,,,,,,,sunaivdylrawbmhryfp.jpg,,,,,,,,,,,,,,,
229,2,Memory,4,,,,,,,00576941031fa.jpg,,,,,,,,,,,,,,,
230,2,Memory,4,,,,,,,00961960627fa.jpg,,,,,,,,,,,,,,,
231,2,Memory,4,,,,,,,00799941205fa.jpg,,,,,,,,,,,,,,,
232,2,Memory,4,,,,,,,sunbxarcshsnqsefemx.jpg,,,,,,,,,,,,,,,
233,2,Memory,4,,,,,,,sunabcuurugvxwparpk.jpg,,,,,,,,,,,,,,,
234,2,Memory,4,,,,,,,00929960627fa.jpg,,,,,,,,,,,,,,,
235,2,Memory,4,,,,,,,sunaofikylqtxphvdem.jpg,,,,,,,,,,,,,,,
236,2,Memory,4,,,,,,,00242940128fa.jpg,,,,,,,,,,,,,,,
237,2,Memory,4,,,,,,,sunadfndyrtqqiasoig.jpg,,,,,,,,,,,,,,,
238,2,Memory,4,,,,,,,sunacuatpqpqhyjhjqk.jpg,,,,,,,,,,,,,,,
239,2,Memory,4,,,,,,,sunacvjlsylseoghjup.jpg,,,,,,,,,,,,,,,
240,2,Memory,4,,,,,,,sunafvwfsmqkjrutjta.jpg,,,,,,,,,,,,,,,
241,2,Memory,4,,,,,,,00571940928fa.jpg,,,,,,,,,,,,,,,
242,2,Memory,4,,,,,,,sunawotxrevnqvamsfp.jpg,,,,,,,,,,,,,,,
243,2,Memory,4,,,,,,,sunaprnrbmgkomdbchr.jpg,,,,,,,,,,,,,,,
244,2,Memory,4,,,,,,,sunaptrqvaooxfvktvw.jpg,,,,,,,,,,,,,,,
245,2,Memory,4,,,,,,,sunagvprlbprarvgdvj.jpg,,,,,,,,,,,,,,,
246,2,Memory,4,,,,,,,sunabxmguapjekttvwm.jpg,,,,,,,,,,,,,,,
247,2,Memory,4,,,,,,,00648941031fa.jpg,,,,,,,,,,,,,,,
248,2,Memory,4,,,,,,,00070940307fa.jpg,,,,,,,,,,,,,,,
249,2,Memory,4,,,,,,,sunanaacmmosxrfwmvl.jpg,,,,,,,,,,,,,,,
250,2,Presentation,5,01005960627fa_sunbwyuesflwdpqtgoy.jpg,00822940307fa_sunahqrxievfeusiqlt.jpg,,,,,,,<,Face,,,,,1,,,,,,,x
251,2,Presentation,5,00880960530fa_sunakmnfgklupjijsgf.jpg,00866940307fa_sunajbwkywmsqkldfml.jpg,,,,,,,>,Face,,,,,1,,,,,,,x
252,2,Presentation,5,00221940128fa_sunabcfpwlpolnutyju.jpg,00901960530fa_sunammbnoambmhdxdwd.jpg,,,,,,,>,Place,,,,,1,,,,,,,o
253,2,Presentation,5,00773960620fa_sunafvsxtzaizojicxx.jpg,00073931230fa_sunaafbmtoniaasysgu.jpg,,,,,,,<,Place,,,,,1,,,,,,,x
254,2,Presentation,5,00262940128fa_sunabizydfotqddlnjp.jpg,00976960627fa_sunbbhqyyzmsxhsbjmp.jpg,,,,,,,<,Face,,,,,1,,,,,,,o
255,2,Presentation,5,00754941201fa_sunaffgsyyvoqdlkmnk.jpg,00838940307fa_sunaiozxhxgtfrmoagh.jpg,,,,,,,>,Place,,,,,1,,,,,,,x
256,2,Presentation,5,00292940422fb_sunabrjdpmoedcdjbpo.jpg,00728941205fa_sunaejnvnpltdmhbcsi.jpg,,,,,,,<,Place,,,,,1,,,,,,,o
257,2,Presentation,5,00983960627fa_sunbfyvfqiimvdaxlqn.jpg,00804960530fa_sunagwswhkvnsmuszlz.jpg,,,,,,,<,Face,,,,,1,,,,,,,x
258,2,Presentation,5,00818940307fa_sunahpblecxtmuzkmxb.jpg,00483940519fa_sunabyvpwkgsjtijdwj.jpg,,,,,,,>,Face,,,,,1,,,,,,,x
259,2,Presentation,5,00762941201fa_sunafgzgbisbopcyslr.jpg,00108960530fa_sunaajtnvzzpsjdzres.jpg,,,,,,,>,Place,,,,,0,,,,,,,x
260,2,Memory,5,,,,,,,00901960530fa.jpg,,,,,,,,,,,,,,,
261,2,Memory,5,,,,,,,sunaafewhewbxmjiurz.jpg,,,,,,,,,,,,,,,
262,2,Memory,5,,,,,,,00914960620fa.jpg,,,,,,,,,,,,,,,
263,2,Memory,5,,,,,,,00983960627fa.jpg,,,,,,,,,,,,,,,
264,2,Memory,5,,,,,,,00906960530fa.jpg,,,,,,,,,,,,,,,
265,2,Memory,5,,,,,,,sunbbgtoeuzierkkajt.jpg,,,,,,,,,,,,,,,
266,2,Memory,5,,,,,,,sunabizydfotqddlnjp.jpg,,,,,,,,,,,,,,,
267,2,Memory,5,,,,,,,sunaozisvwfbmlkfhzv.jpg,,,,,,,,,,,,,,,
268,2,Memory,5,,,,,,,sunbfyvfqiimvdaxlqn.jpg,,,,,,,,,,,,,,,
269,2,Memory,5,,,,,,,00949960627fb.jpg,,,,,,,,,,,,,,,
270,2,Memory,5,,,,,,,sunaejnvnpltdmhbcsi.jpg,,,,,,,,,,,,,,,
271,2,Memory,5,,,,,,,sunafvtpfczkzopbgue.jpg,,,,,,,,,,,,,,,
272,2,Memory,5,,,,,,,00880960530fa.jpg,,,,,,,,,,,,,,,
273,2,Memory,5,,,,,,,00292940422fb.jpg,,,,,,,,,,,,,,,
274,2,Memory,5,,,,,,,sunbwdrdvsweerwsdrj.jpg,,,,,,,,,,,,,,,
275,2,Memory,5,,,,,,,00973960627fa.jpg,,,,,,,,,,,,,,,
276,2,Memory,5,,,,,,,00774941201fa.jpg,,,,,,,,,,,,,,,
277,2,Memory,5,,,,,,,sunabrwnslxalcohfre.jpg,,,,,,,,,,,,,,,
278,2,Memory,5,,,,,,,00262940128fa.jpg,,,,,,,,,,,,,,,
279,2,Memory,5,,,,,,,sunbbhqyyzmsxhsbjmp.jpg,,,,,,,,,,,,,,,
280,2,Memory,5,,,,,,,sunasnqkkyhilqkxiqm.jpg,,,,,,,,,,,,,,,
281,2,Memory,5,,,,,,,sunabbwggenhfbftyvi.jpg,,,,,,,,,,,,,,,
282,2,Memory,5,,,,,,,sunantryfbloeaomfta.jpg,,,,,,,,,,,,,,,
283,2,Memory,5,,,,,,,sunabwmcbaxwioksdgw.jpg,,,,,,,,,,,,,,,
284,2,Memory,5,,,,,,,00314940422fa.jpg,,,,,,,,,,,,,,,
285,2,Memory,5,,,,,,,00976960627fa.jpg,,,,,,,,,,,,,,,
286,2,Memory,5,,,,,,,sunakmnfgklupjijsgf.jpg,,,,,,,,,,,,,,,
287,2,Memory,5,,,,,,,00754941201fa.jpg,,,,,,,,,,,,,,,
288,2,Memory,5,,,,,,,sunaffgsyyvoqdlkmnk.jpg,,,,,,,,,,,,,,,
289,2,Memory,5,,,,,,,00728941205fa.jpg,,,,,,,,,,,,,,,
290,2,Memory,5,,,,,,,00483940519fa.jpg,,,,,,,,,,,,,,,
291,2,Memory,5,,,,,,,00076931230fa.jpg,,,,,,,,,,,,,,,
292,2,Memory,5,,,,,,,01003960627fb.jpg,,,,,,,,,,,,,,,
293,2,Memory,5,,,,,,,sunammbnoambmhdxdwd.jpg,,,,,,,,,,,,,,,
294,2,Memory,5,,,,,,,sunaafbmtoniaasysgu.jpg,,,,,,,,,,,,,,,
295,2,Memory,5,,,,,,,00218940128fa.jpg,,,,,,,,,,,,,,,
296,2,Memory,5,,,,,,,00073931230fa.jpg,,,,,,,,,,,,,,,
297,2,Memory,5,,,,,,,sunabyvpwkgsjtijdwj.jpg,,,,,,,,,,,,,,,
298,2,Memory,5,,,,,,,sunabrjdpmoedcdjbpo.jpg,,,,,,,,,,,,,,,
299,2,Memory,5,,,,,,,00296940422fa.jpg,,,,,,,,,,,,,,,
300,2,Presentation,6,00919960620fa_sunapmfmzadmosuogaz.jpg,00082931230fa_sunaafvitpexrpvumsa.jpg,,,,,,,<,Face,,,,,1,,,,,,,o
301,2,Presentation,6,00815941205fa_sunahiphsekjihkafsl.jpg,00860940307fa_sunaizeyhvjzknwjudw.jpg,,,,,,,>,Place,,,,,1,,,,,,,x
302,2,Presentation,6,00835940307fa_sunaijsqpvodplbwxkf.jpg,00938960627fa_sunaqyylsngywqzwfmx.jpg,,,,,,,>,Face,,,,,1,,,,,,,x
303,2,Presentation,6,00568940928fa_sunacsdhbbsybcyxnel.jpg,00986960627fa_sunbgzjryivyczuvkvm.jpg,,,,,,,>,Place,,,,,1,,,,,,,x
304,2,Presentation,6,00977960627fa_sunbbxkanhzjgbwyxqs.jpg,00922960627fa_sunapqkyghktgtosuuk.jpg,,,,,,,>,Face,,,,,1,,,,,,,o
305,2,Presentation,6,00071940128fa_sunaaexpnawiehinlpy.jpg,00795941205fa_sunagtumacdlmciqamz.jpg,,,,,,,<,Place,,,,,1,,,,,,,x
306,2,Presentation,6,00111931230fb_sunaakgekhjklxmvulj.jpg,00787960620fa_sunagoufulkpsxrmklt.jpg,,,,,,,>,Place,,,,,1,,,,,,,x
307,2,Presentation,6,00996960627fa_sunbpvgllfdejxcpjqp.jpg,00305940422fa_sunabtrnbvpppgczjim.jpg,,,,,,,<,Face,,,,,1,,,,,,,o
308,2,Presentation,6,00968960627fa_sunbagfpovqwbuexqdn.jpg,00788941205fa_sunagountlxpzkytsmp.jpg,,,,,,,<,Place,,,,,1,,,,,,,x
309,2,Presentation,6,00529940519fa_sunacbeefkxpymwevpk.jpg,00773941201fa_sunafvcflzhlqloapyo.jpg,,,,,,,<,Face,,,,,1,,,,,,,o
310,2,Memory,6,,,,,,,sunaeuvjbmdpknaqqaj.jpg,,,,,,,,,,,,,,,
311,2,Memory,6,,,,,,,sunacxtcahkymosigud.jpg,,,,,,,,,,,,,,,
312,2,Memory,6,,,,,,,00749941201fa.jpg,,,,,,,,,,,,,,,
313,2,Memory,6,,,,,,,00725941201fa.jpg,,,,,,,,,,,,,,,
314,2,Memory,6,,,,,,,sunaaekxzjzrfgtkwjf.jpg,,,,,,,,,,,,,,,
315,2,Memory,6,,,,,,,00675941121fa.jpg,,,,,,,,,,,,,,,
316,2,Memory,6,,,,,,,sunaaexpnawiehinlpy.jpg,,,,,,,,,,,,,,,
317,2,Memory,6,,,,,,,sunaefgzwiramypjvtd.jpg,,,,,,,,,,,,,,,
318,2,Memory,6,,,,,,,sunaizeyhvjzknwjudw.jpg,,,,,,,,,,,,,,,
319,2,Memory,6,,,,,,,00082931230fa.jpg,,,,,,,,,,,,,,,
320,2,Memory,6,,,,,,,00598941031fa.jpg,,,,,,,,,,,,,,,
321,2,Memory,6,,,,,,,sunaazzyhbvqjpmazjq.jpg,,,,,,,,,,,,,,,
322,2,Memory,6,,,,,,,sunbaejotfklekvpxcz.jpg,,,,,,,,,,,,,,,
323,2,Memory,6,,,,,,,00967960627fa.jpg,,,,,,,,,,,,,,,
324,2,Memory,6,,,,,,,sunbpvgllfdejxcpjqp.jpg,,,,,,,,,,,,,,,
325,2,Memory,6,,,,,,,00860940307fa.jpg,,,,,,,,,,,,,,,
326,2,Memory,6,,,,,,,sunagoufulkpsxrmklt.jpg,,,,,,,,,,,,,,,
327,2,Memory,6,,,,,,,00790941205fa.jpg,,,,,,,,,,,,,,,
328,2,Memory,6,,,,,,,00061931230fb.jpg,,,,,,,,,,,,,,,
329,2,Memory,6,,,,,,,00835940307fa.jpg,,,,,,,,,,,,,,,
330,2,Memory,6,,,,,,,sunabtrnbvpppgczjim.jpg,,,,,,,,,,,,,,,
331,2,Memory,6,,,,,,,sunafvcflzhlqloapyo.jpg,,,,,,,,,,,,,,,
332,2,Memory,6,,,,,,,00787960620fa.jpg,,,,,,,,,,,,,,,
333,2,Memory,6,,,,,,,00305940422fa.jpg,,,,,,,,,,,,,,,
334,2,Memory,6,,,,,,,sunaafvitpexrpvumsa.jpg,,,,,,,,,,,,,,,
335,2,Memory,6,,,,,,,sunacsdhbbsybcyxnel.jpg,,,,,,,,,,,,,,,
336,2,Memory,6,,,,,,,00308940422fb.jpg,,,,,,,,,,,,,,,
337,2,Memory,6,,,,,,,sunabwfvcqqidycwypa.jpg,,,,,,,,,,,,,,,
338,2,Memory,6,,,,,,,00208940128fa.jpg,,,,,,,,,,,,,,,
339,2,Memory,6,,,,,,,00870940307fa.jpg,,,,,,,,,,,,,,,
340,2,Memory,6,,,,,,,00996960627fa.jpg,,,,,,,,,,,,,,,
341,2,Memory,6,,,,,,,00815941205fa.jpg,,,,,,,,,,,,,,,
342,2,Memory,6,,,,,,,sunahiphsekjihkafsl.jpg,,,,,,,,,,,,,,,
343,2,Memory,6,,,,,,,00568940928fa.jpg,,,,,,,,,,,,,,,
344,2,Memory,6,,,,,,,sunajrgtewnualfcerj.jpg,,,,,,,,,,,,,,,
345,2,Memory,6,,,,,,,sunaijsqpvodplbwxkf.jpg,,,,,,,,,,,,,,,
346,2,Memory,6,,,,,,,sunadoxcchtmsxewsau.jpg,,,,,,,,,,,,,,,
347,2,Memory,6,,,,,,,00071940128fa.jpg,,,,,,,,,,,,,,,
348,2,Memory,6,,,,,,,sunagpjzsbltchlwvou.jpg,,,,,,,,,,,,,,,
349,2,Memory,6,,,,,,,00773941201fa.jpg,,,,,,,,,,,,,,,
350,2,Presentation,7,00805941205fa_sunagwzdbtlixdhgolm.jpg,00827940307fa_sunahtfxgsrmkiulnwk.jpg,,,,,,,<,Face,,,,,1,,,,,,,x
351,2,Presentation,7,00810941205fa_sunahctntqrunhdxhtb.jpg,00694941121fa_sunadrmfzmstgdjdcod.jpg,,,,,,,<,Place,,,,,1,,,,,,,x
352,2,Presentation,7,00153931230fa_sunaauhozyxzeeqstxi.jpg,00747941201fa_sunaeutbrtswvsozxyk.jpg,,,,,,,>,Place,,,,,0,,,,,,,x
353,2,Presentation,7,00828940307fa_sunahuynahneraqftyz.jpg,00900960530fa_sunamlotskmmsjeogby.jpg,,,,,,,>,Face,,,,,1,,,,,,,x
354,2,Presentation,7,00235940128fb_sunabclssnoeuigtawp.jpg,00071941031fa_sunaaexqbtdswxrqjvz.jpg,,,,,,,<,Face,,,,,1,,,,,,,x
355,2,Presentation,7,00636941031fa_sunaddtdkycxbqlpfqa.jpg,00787941205fa_sunagmwxxwymwojbvgi.jpg,,,,,,,>,Place,,,,,1,,,,,,,x
356,2,Presentation,7,00839940307fa_sunaipyohrqlwngaqif.jpg,00123931230fb_sunaalcrrdbjgdztbiz.jpg,,,,,,,>,Face,,,,,1,,,,,,,x
357,2,Presentation,7,00564940928fa_sunacmpqqfbsvlzinzl.jpg,00763941205fa_sunafhmnhsdurlvddpw.jpg,,,,,,,>,Place,,,,,1,,,,,,,o
358,2,Presentation,7,00098931230fa_sunaajpqmulidejvjsr.jpg,00266940128fb_sunabkngeblodihjvbk.jpg,,,,,,,<,Face,,,,,1,,,,,,,o
359,2,Presentation,7,00227940128fa_sunabckqabszusgcykj.jpg,00132931230fb_sunaanjcbzdvtvblsdy.jpg,,,,,,,<,Place,,,,,1,,,,,,,o
360,2,Memory,7,,,,,,,sunagmwxxwymwojbvgi.jpg,,,,,,,,,,,,,,,
361,2,Memory,7,,,,,,,00123931230fb.jpg,,,,,,,,,,,,,,,
362,2,Memory,7,,,,,,,00730960620fa.jpg,,,,,,,,,,,,,,,
363,2,Memory,7,,,,,,,00810941205fa.jpg,,,,,,,,,,,,,,,
364,2,Memory,7,,,,,,,00787941205fa.jpg,,,,,,,,,,,,,,,
365,2,Memory,7,,,,,,,00132931230fb.jpg,,,,,,,,,,,,,,,
366,2,Memory,7,,,,,,,sunacfdkbsrughwqwtt.jpg,,,,,,,,,,,,,,,
367,2,Memory,7,,,,,,,sunaooaqzputrowwbsw.jpg,,,,,,,,,,,,,,,
368,2,Memory,7,,,,,,,00227940128fa.jpg,,,,,,,,,,,,,,,
369,2,Memory,7,,,,,,,sunagwzdbtlixdhgolm.jpg,,,,,,,,,,,,,,,
370,2,Memory,7,,,,,,,00153931230fa.jpg,,,,,,,,,,,,,,,
371,2,Memory,7,,,,,,,00784941205fb.jpg,,,,,,,,,,,,,,,
372,2,Memory,7,,,,,,,sunaauhozyxzeeqstxi.jpg,,,,,,,,,,,,,,,
373,2,Memory,7,,,,,,,sunaddsaeicthrfbkhe.jpg,,,,,,,,,,,,,,,
374,2,Memory,7,,,,,,,sunahqldjibofgsfdgb.jpg,,,,,,,,,,,,,,,
375,2,Memory,7,,,,,,,00694941121fa.jpg,,,,,,,,,,,,,,,
376,2,Memory,7,,,,,,,sunadrmfzmstgdjdcod.jpg,,,,,,,,,,,,,,,
377,2,Memory,7,,,,,,,00589940928fa.jpg,,,,,,,,,,,,,,,
378,2,Memory,7,,,,,,,sunaalcrrdbjgdztbiz.jpg,,,,,,,,,,,,,,,
379,2,Memory,7,,,,,,,sunabckqabszusgcykj.jpg,,,,,,,,,,,,,,,
380,2,Memory,7,,,,,,,sunacjnahdmqfnjfwqx.jpg,,,,,,,,,,,,,,,
381,2,Memory,7,,,,,,,sunacwggadqsfpovdjv.jpg,,,,,,,,,,,,,,,
382,2,Memory,7,,,,,,,sunaaexqbtdswxrqjvz.jpg,,,,,,,,,,,,,,,
383,2,Memory,7,,,,,,,sunahctntqrunhdxhtb.jpg,,,,,,,,,,,,,,,
384,2,Memory,7,,,,,,,00071941031fa.jpg,,,,,,,,,,,,,,,
385,2,Memory,7,,,,,,,00911960530fa.jpg,,,,,,,,,,,,,,,
386,2,Memory,7,,,,,,,sunaivflshbyfrfzhqb.jpg,,,,,,,,,,,,,,,
387,2,Memory,7,,,,,,,00635941031fa.jpg,,,,,,,,,,,,,,,
388,2,Memory,7,,,,,,,00564940928fa.jpg,,,,,,,,,,,,,,,
389,2,Memory,7,,,,,,,00581940928fa.jpg,,,,,,,,,,,,,,,
390,2,Memory,7,,,,,,,sunacmpqqfbsvlzinzl.jpg,,,,,,,,,,,,,,,
391,2,Memory,7,,,,,,,sunaekgzpfilgjxpeyq.jpg,,,,,,,,,,,,,,,
392,2,Memory,7,,,,,,,00554940519fa.jpg,,,,,,,,,,,,,,,
393,2,Memory,7,,,,,,,sunagjzcrjvmxzqzljx.jpg,,,,,,,,,,,,,,,
394,2,Memory,7,,,,,,,00851940307fa.jpg,,,,,,,,,,,,,,,
395,2,Memory,7,,,,,,,00805941205fa.jpg,,,,,,,,,,,,,,,
396,2,Memory,7,,,,,,,sunaanjcbzdvtvblsdy.jpg,,,,,,,,,,,,,,,
397,2,Memory,7,,,,,,,00819940307fa.jpg,,,,,,,,,,,,,,,
398,2,Memory,7,,,,,,,00562941031fa.jpg,,,,,,,,,,,,,,,
399,2,Memory,7,,,,,,,sunacvzhvcksnwqcqbw.jpg,,,,,,,,,,,,,,,
