,Subject,Trial Type,Run,Cued Composite,Uncued Composite,Cued Face,Cued Place,Uncued Face,Uncued Place,Memory Image,Category,Cued Side,Cued Category,Attention Reaction Time (s),Familiarity Reaction Time (s),Familiarity Rating,Attention Level,Cue Validity,Post Invalid Cue,Pre Invalid Cue,Attention Button,Rating History,Stimulus Onset,Stimulus End,Attention Probe
110,16,Memory,2,,,,,,,00777941205fa.jpg,,,,,0.0,,,,,,,,1539200771.224873,1539200773.324941,
111,16,Memory,2,,,,,,,sunbbhqyyzmsxhsbjmp.jpg,,,,,0.0,,,,,,,,1539200774.624842,1539200776.659998,
112,16,Memory,2,,,,,,,sunaajqmsaavkmgbsth.jpg,,,,,0.97,2.0,,,,,,,1539200777.942409,1539200779.976231,
113,16,Memory,2,,,,,,,sunanaacmmosxrfwmvl.jpg,,,,,1.27,4.0,,,,,,,1539200781.261539,1539200783.294333,
114,16,Memory,2,,,,,,,00791941205fa.jpg,,,,,1.321,2.0,,,,,,,1539200784.561439,1539200786.59566,
115,16,Memory,2,,,,,,,sunafcofuuzebuadceo.jpg,,,,,1.036,3.0,,,,,,,1539200787.879022,1539200789.912675,
116,16,Memory,2,,,,,,,00082931230fa.jpg,,,,,1.803,1.0,,,,,,,1539200791.197036,1539200793.231223,
117,16,Memory,2,,,,,,,sunaakgekhjklxmvulj.jpg,,,,,1.27,2.0,,,,,,,1539200794.49729,1539200796.532578,
118,16,Memory,2,,,,,,,00978960627fa.jpg,,,,,1.986,1.0,,,,,,,1539200797.799257,1539200799.833385,
119,16,Memory,2,,,,,,,00235940128fb.jpg,,,,,1.253,2.0,,,,,,,1539200801.101424,1539200803.133838,
120,16,Memory,2,,,,,,,sunbddbivbptlrlauhy.jpg,,,,,0.953,3.0,,,,,,,1539200804.401504,1539200806.435909,
121,16,Memory,2,,,,,,,00747941201fa.jpg,,,,,0.904,2.0,,,,,,,1539200807.736676,1539200809.885821,
122,16,Memory,2,,,,,,,sunakgbnzxmfohgehnu.jpg,,,,,0.772,2.0,,,,,,,1539200811.153951,1539200813.187272,
123,16,Memory,2,,,,,,,sunagrmyoovzukhxmlo.jpg,,,,,0.837,2.0,,,,,,,1539200814.471169,1539200816.505429,
124,16,Memory,2,,,,,,,00264940128fb.jpg,,,,,1.104,2.0,,,,,,,1539200817.78925,1539200819.822366,
125,16,Memory,2,,,,,,,sunayaepykrqvenaqqy.jpg,,,,,1.238,2.0,,,,,,,1539200821.090493,1539200823.12371,
126,16,Memory,2,,,,,,,00921960627fa.jpg,,,,,1.972,2.0,,,,,,,1539200824.390989,1539200826.425843,
127,16,Memory,2,,,,,,,00073931230fa.jpg,,,,,1.237,1.0,,,,,,,1539200827.708871,1539200829.74211,
128,16,Memory,2,,,,,,,00694941121fa.jpg,,,,,1.087,2.0,,,,,,,1539200831.010368,1539200833.044214,
129,16,Memory,2,,,,,,,sunaeutbrtswvsozxyk.jpg,,,,,1.189,2.0,,,,,,,1539200834.311282,1539200836.345439,
130,16,Memory,2,,,,,,,sunagufzbeteqdjxais.jpg,,,,,1.604,2.0,,,,,,,1539200837.611648,1539200839.64575,
131,16,Memory,2,,,,,,,sunbdycacjfaujxitbw.jpg,,,,,1.054,4.0,,,,,,,1539200840.913671,1539200842.947844,
132,16,Memory,2,,,,,,,sunaafbmtoniaasysgu.jpg,,,,,0.971,3.0,,,,,,,1539200844.230672,1539200846.265207,
133,16,Memory,2,,,,,,,00943960627fa.jpg,,,,,1.237,2.0,,,,,,,1539200847.531939,1539200849.565256,
134,16,Memory,2,,,,,,,00963960627fa.jpg,,,,,1.588,2.0,,,,,,,1539200850.867284,1539200852.900168,
135,16,Memory,2,,,,,,,00976960627fa.jpg,,,,,1.456,1.0,,,,,,,1539200854.167634,1539200856.201438,
136,16,Memory,2,,,,,,,sunabjzyxcjnmztdonj.jpg,,,,,0.971,2.0,,,,,,,1539200857.469512,1539200859.502653,
137,16,Memory,2,,,,,,,sunarpsxqkduedrrzyi.jpg,,,,,1.021,2.0,,,,,,,1539200860.769956,1539200862.803755,
138,16,Memory,2,,,,,,,00878960530fa.jpg,,,,,0.988,2.0,,,,,,,1539200864.087788,1539200866.122016,
139,16,Memory,2,,,,,,,sunadrmfzmstgdjdcod.jpg,,,,,1.053,4.0,,,,,,,1539200867.405206,1539200869.43903,
140,16,Memory,2,,,,,,,sunagcinxkccdtrjmlv.jpg,,,,,1.004,3.0,,,,,,,1539200870.707147,1539200872.740514,
141,16,Memory,2,,,,,,,00753941201fa.jpg,,,,,1.656,1.0,,,,,,,1539200874.024254,1539200876.057849,
142,16,Memory,2,,,,,,,00111931230fb.jpg,,,,,0.954,2.0,,,,,,,1539200877.342618,1539200879.375727,
143,16,Memory,2,,,,,,,00902960530fa.jpg,,,,,1.138,2.0,,,,,,,1539200880.642921,1539200882.67666,
144,16,Memory,2,,,,,,,sunabclssnoeuigtawp.jpg,,,,,0.988,3.0,,,,,,,1539200883.943952,1539200885.978162,
145,16,Memory,2,,,,,,,sunaafvitpexrpvumsa.jpg,,,,,1.237,3.0,,,,,,,1539200887.245146,1539200889.278457,
146,16,Memory,2,,,,,,,00797960620fa.jpg,,,,,1.304,2.0,,,,,,,1539200890.546372,1539200892.580475,
147,16,Memory,2,,,,,,,sunapqkpqdfvxlbqwyo.jpg,,,,,0.0,,,,,,,,1539200893.847375,1539200895.880866,
148,16,Memory,2,,,,,,,00101931230fb.jpg,,,,,1.154,1.0,,,,,,,1539200897.148885,1539200899.181666,
149,16,Memory,2,,,,,,,00979960627fa.jpg,,,,,1.388,1.0,,,,,,,1539200900.483104,1539200902.516936,
