,Subject,Trial Type,Run,Cued Composite,Uncued Composite,Cued Face,Cued Place,Uncued Face,Uncued Place,Memory Image,Category,Cued Side,Cued Category,Attention Reaction Time (s),Familiarity Reaction Time (s),Familiarity Rating,Attention Level,Cue Validity,Post Invalid Cue,Pre Invalid Cue,Attention Button,Rating History,Stimulus Onset,Stimulus End,Attention Probe
360,16,Memory,7,,,,,,,sunaenwuebvlpdmntju.jpg,,,,,1.593,2.0,,,,,,,1539202615.024282,1539202617.661857,
361,16,Memory,7,,,,,,,00631940928fa.jpg,,,,,1.958,3.0,,,,,,,1539202618.992741,1539202621.360339,
362,16,Memory,7,,,,,,,sunaqgjuuwvdcyiccjt.jpg,,,,,1.426,3.0,,,,,,,1539202622.661602,1539202624.929763,
363,16,Memory,7,,,,,,,00138931230fa.jpg,,,,,1.589,2.0,,,,,,,1539202626.212613,1539202628.674709,
364,16,Memory,7,,,,,,,00093931230fa.jpg,,,,,2.25,1.0,,,,,,,1539202629.962935,1539202632.226891,
365,16,Memory,7,,,,,,,sunaqbmgkgqucajzrkp.jpg,,,,,1.058,2.0,,,,,,,1539202633.514156,1539202635.594169,
366,16,Memory,7,,,,,,,sunacypmnujalygkunp.jpg,,,,,1.149,2.0,,,,,,,1539202636.916549,1539202639.096251,
367,16,Memory,7,,,,,,,00630941031fa.jpg,,,,,0.827,2.0,,,,,,,1539202640.366446,1539202642.463522,
368,16,Memory,7,,,,,,,00968960627fa.jpg,,,,,0.743,1.0,,,,,,,1539202643.734604,1539202645.93052,
369,16,Memory,7,,,,,,,00090931230fa.jpg,,,,,0.875,2.0,,,,,,,1539202647.182029,1539202649.283133,
370,16,Memory,7,,,,,,,sunaahedjlmtqekgyvj.jpg,,,,,1.176,3.0,,,,,,,1539202650.553193,1539202652.967295,
371,16,Memory,7,,,,,,,sunadakkdovnuzlycvp.jpg,,,,,1.223,2.0,,,,,,,1539202654.238501,1539202656.534723,
372,16,Memory,7,,,,,,,00900960530fa.jpg,,,,,0.657,2.0,,,,,,,1539202657.805732,1539202659.807113,
373,16,Memory,7,,,,,,,sunalqmfgeadpqsyzpd.jpg,,,,,1.324,1.0,,,,,,,1539202661.090739,1539202663.609419,
374,16,Memory,7,,,,,,,sunaqyylsngywqzwfmx.jpg,,,,,1.293,2.0,,,,,,,1539202664.890264,1539202667.170831,
375,16,Memory,7,,,,,,,sunamlotskmmsjeogby.jpg,,,,,1.259,3.0,,,,,,,1539202668.443942,1539202670.589233,
376,16,Memory,7,,,,,,,sunajbwkywmsqkldfml.jpg,,,,,1.223,2.0,,,,,,,1539202671.861368,1539202674.34379,
377,16,Memory,7,,,,,,,sunaauhozyxzeeqstxi.jpg,,,,,0.858,4.0,,,,,,,1539202675.61064,1539202677.927078,
378,16,Memory,7,,,,,,,sunacepzfrmtkiqonpy.jpg,,,,,1.741,3.0,,,,,,,1539202679.191017,1539202681.726125,
379,16,Memory,7,,,,,,,sunbbegcweqnetpdlrh.jpg,,,,,1.157,2.0,,,,,,,1539202682.997258,1539202685.510375,
380,16,Memory,7,,,,,,,00884960530fa.jpg,,,,,0.942,2.0,,,,,,,1539202686.78211,1539202689.166056,
381,16,Memory,7,,,,,,,sunaaekxzjzrfgtkwjf.jpg,,,,,1.341,2.0,,,,,,,1539202690.432518,1539202692.903872,
382,16,Memory,7,,,,,,,00971960627fa.jpg,,,,,1.041,1.0,,,,,,,1539202694.184541,1539202696.481287,
383,16,Memory,7,,,,,,,sunbagfpovqwbuexqdn.jpg,,,,,1.008,3.0,,,,,,,1539202697.769498,1539202700.149715,
384,16,Memory,7,,,,,,,00894960620fa.jpg,,,,,0.809,2.0,,,,,,,1539202701.453239,1539202703.687663,
385,16,Memory,7,,,,,,,sunaahwnmtqsrhocysw.jpg,,,,,0.974,3.0,,,,,,,1539202704.954141,1539202707.193276,
386,16,Memory,7,,,,,,,00742941201fa.jpg,,,,,1.11,1.0,,,,,,,1539202708.473179,1539202710.834504,
387,16,Memory,7,,,,,,,00893960530Fa.jpg,,,,,0.825,2.0,,,,,,,1539202712.107595,1539202714.253202,
388,16,Memory,7,,,,,,,00935960627fa.jpg,,,,,0.809,2.0,,,,,,,1539202715.52418,1539202717.607683,
389,16,Memory,7,,,,,,,00543940519fa.jpg,,,,,0.991,1.0,,,,,,,1539202718.908303,1539202721.071739,
390,16,Memory,7,,,,,,,00620940928fa.jpg,,,,,0.543,2.0,,,,,,,1539202722.343897,1539202724.489826,
391,16,Memory,7,,,,,,,00866940307fa.jpg,,,,,0.659,2.0,,,,,,,1539202725.761365,1539202727.840596,
392,16,Memory,7,,,,,,,00153931230fa.jpg,,,,,0.909,2.0,,,,,,,1539202729.128795,1539202731.467487,
393,16,Memory,7,,,,,,,sunakodkcslgqhqlgwl.jpg,,,,,1.756,2.0,,,,,,,1539202732.76447,1539202734.933439,
394,16,Memory,7,,,,,,,sunaapfaivxqoynnwwp.jpg,,,,,1.075,2.0,,,,,,,1539202736.231219,1539202738.677206,
395,16,Memory,7,,,,,,,sunadbdqzigzwipuipr.jpg,,,,,1.123,2.0,,,,,,,1539202739.949429,1539202742.145317,
396,16,Memory,7,,,,,,,00061931230fb.jpg,,,,,0.773,2.0,,,,,,,1539202743.434386,1539202745.513138,
397,16,Memory,7,,,,,,,sunaloffvbvysigxent.jpg,,,,,0.993,2.0,,,,,,,1539202746.764177,1539202749.03097,
398,16,Memory,7,,,,,,,00936960627fa.jpg,,,,,0.557,2.0,,,,,,,1539202750.30283,1539202752.273355,
399,16,Memory,7,,,,,,,00938960627fa.jpg,,,,,0.641,2.0,,,,,,,1539202753.553979,1539202755.873348,
