,Subject,Trial Type,Run,Cued Composite,Uncued Composite,Cued Face,Cued Place,Uncued Face,Uncued Place,Memory Image,Category,Cued Side,Cued Category,Attention Response Time (s),Familiarity Reaction Time (s),Familiarity Rating,Attention Level,Cue Validity,Post Invalid Cue,Pre Invalid Cue,Attention Button,Rating History,Stimulus Onset,Stimulus End,Attention Probe
0,32,Presentation,0,00919960620fa_sunapmfmzadmosuogaz.jpg,00882960530fa_sunaknlirqjqiwbbeeg.jpg,00919960620fa.jpg,sunapmfmzadmosuogaz.jpg,00882960530fa.jpg,sunaknlirqjqiwbbeeg.jpg,,,<,Face,,,,,1,,,,,,,x
1,32,Presentation,0,00909960530_sunaobtizabegtwfwul.jpg,00747941201fa_sunaeutbrtswvsozxyk.jpg,00909960530.jpg,sunaobtizabegtwfwul.jpg,00747941201fa.jpg,sunaeutbrtswvsozxyk.jpg,,,<,Face,,,,,0,,,,,,,x
2,32,Presentation,0,00211940128fa_sunabasphceswhwwqvv.jpg,00961960627fa_sunawotxrevnqvamsfp.jpg,00211940128fa.jpg,sunabasphceswhwwqvv.jpg,00961960627fa.jpg,sunawotxrevnqvamsfp.jpg,,,<,Face,,,,,1,,,,,,,o
3,32,Presentation,0,00901960530fa_sunammbnoambmhdxdwd.jpg,00162931230fb_sunaavjinpnkappuonm.jpg,00901960530fa.jpg,sunammbnoambmhdxdwd.jpg,00162931230fb.jpg,sunaavjinpnkappuonm.jpg,,,<,Face,,,,,1,,,,,,,x
4,32,Presentation,0,00730960620fa_sunaekgzpfilgjxpeyq.jpg,00815941205fa_sunahiphsekjihkafsl.jpg,00730960620fa.jpg,sunaekgzpfilgjxpeyq.jpg,00815941205fa.jpg,sunahiphsekjihkafsl.jpg,,,<,Face,,,,,1,,,,,,,x
5,32,Presentation,0,01005960627fa_sunbwyuesflwdpqtgoy.jpg,00630940928fa_sunaczwgyukesaajxnx.jpg,01005960627fa.jpg,sunbwyuesflwdpqtgoy.jpg,00630940928fa.jpg,sunaczwgyukesaajxnx.jpg,,,<,Face,,,,,1,,,,,,,o
6,32,Presentation,0,00746941201fa_sunaetydippjxikifsb.jpg,00071941031fa_sunaaexqbtdswxrqjvz.jpg,00746941201fa.jpg,sunaetydippjxikifsb.jpg,00071941031fa.jpg,sunaaexqbtdswxrqjvz.jpg,,,<,Face,,,,,1,,,,,,,o
7,32,Presentation,0,00073931230fa_sunaafbmtoniaasysgu.jpg,00776941205fa_sunafxokyavhgptyfye.jpg,00073931230fa.jpg,sunaafbmtoniaasysgu.jpg,00776941205fa.jpg,sunafxokyavhgptyfye.jpg,,,<,Face,,,,,1,,,,,,,o
8,32,Presentation,0,00953960627fa_sunatstrpjxhvtbaczf.jpg,00263940128fb_sunabjuovqvyfuzvqwt.jpg,00953960627fa.jpg,sunatstrpjxhvtbaczf.jpg,00263940128fb.jpg,sunabjuovqvyfuzvqwt.jpg,,,<,Face,,,,,1,,,,,,,x
9,32,Presentation,0,00194940128fb_sunaayehfdqcyxggsej.jpg,00720960620fa_sunaecpkgfewqqreqwe.jpg,00194940128fb.jpg,sunaayehfdqcyxggsej.jpg,00720960620fa.jpg,sunaecpkgfewqqreqwe.jpg,,,<,Face,,,,,1,,,,,,,x
10,32,Memory,0,,,,,,,00725941201fa.jpg,,,,,,,,,,,,,,,
11,32,Memory,0,,,,,,,sunaahzooisqkwlxwoz.jpg,,,,,,,,,,,,,,,
12,32,Memory,0,,,,,,,00559940519fa.jpg,,,,,,,,,,,,,,,
13,32,Memory,0,,,,,,,00794960620fa.jpg,,,,,,,,,,,,,,,
14,32,Memory,0,,,,,,,sunapmfmzadmosuogaz.jpg,,,,,,,,,,,,,,,
15,32,Memory,0,,,,,,,01005960627fa.jpg,,,,,,,,,,,,,,,
16,32,Memory,0,,,,,,,00938960627fa.jpg,,,,,,,,,,,,,,,
17,32,Memory,0,,,,,,,sunaknlirqjqiwbbeeg.jpg,,,,,,,,,,,,,,,
18,32,Memory,0,,,,,,,00961960627fa.jpg,,,,,,,,,,,,,,,
19,32,Memory,0,,,,,,,sunaavjinpnkappuonm.jpg,,,,,,,,,,,,,,,
20,32,Memory,0,,,,,,,sunaefgzwiramypjvtd.jpg,,,,,,,,,,,,,,,
21,32,Memory,0,,,,,,,00771941205fa.jpg,,,,,,,,,,,,,,,
22,32,Memory,0,,,,,,,00747941201fa.jpg,,,,,,,,,,,,,,,
23,32,Memory,0,,,,,,,sunacsdhbbsybcyxnel.jpg,,,,,,,,,,,,,,,
24,32,Memory,0,,,,,,,00895960530fa.jpg,,,,,,,,,,,,,,,
25,32,Memory,0,,,,,,,00882960530fa.jpg,,,,,,,,,,,,,,,
26,32,Memory,0,,,,,,,sunamkmeblgteyggink.jpg,,,,,,,,,,,,,,,
27,32,Memory,0,,,,,,,sunacjkmnpawfzbyvae.jpg,,,,,,,,,,,,,,,
28,32,Memory,0,,,,,,,00909960530.jpg,,,,,,,,,,,,,,,
29,32,Memory,0,,,,,,,sunagtqhhwxjeuxdebe.jpg,,,,,,,,,,,,,,,
30,32,Memory,0,,,,,,,sunaayehfdqcyxggsej.jpg,,,,,,,,,,,,,,,
31,32,Memory,0,,,,,,,sunaprnrbmgkomdbchr.jpg,,,,,,,,,,,,,,,
32,32,Memory,0,,,,,,,00568940928fa.jpg,,,,,,,,,,,,,,,
33,32,Memory,0,,,,,,,sunbwyuesflwdpqtgoy.jpg,,,,,,,,,,,,,,,
34,32,Memory,0,,,,,,,00929960627fa.jpg,,,,,,,,,,,,,,,
35,32,Memory,0,,,,,,,sunaobtizabegtwfwul.jpg,,,,,,,,,,,,,,,
36,32,Memory,0,,,,,,,00194940128fb.jpg,,,,,,,,,,,,,,,
37,32,Memory,0,,,,,,,sunamczizlzavhzhpay.jpg,,,,,,,,,,,,,,,
38,32,Memory,0,,,,,,,sunafxokyavhgptyfye.jpg,,,,,,,,,,,,,,,
39,32,Memory,0,,,,,,,sunafowswglhxcsufpo.jpg,,,,,,,,,,,,,,,
40,32,Memory,0,,,,,,,00095931230fa.jpg,,,,,,,,,,,,,,,
41,32,Memory,0,,,,,,,00898960530fa.jpg,,,,,,,,,,,,,,,
42,32,Memory,0,,,,,,,00162931230fb.jpg,,,,,,,,,,,,,,,
43,32,Memory,0,,,,,,,00073931230fa.jpg,,,,,,,,,,,,,,,
44,32,Memory,0,,,,,,,sunaeutbrtswvsozxyk.jpg,,,,,,,,,,,,,,,
45,32,Memory,0,,,,,,,00776941205fa.jpg,,,,,,,,,,,,,,,
46,32,Memory,0,,,,,,,00919960620fa.jpg,,,,,,,,,,,,,,,
47,32,Memory,0,,,,,,,sunaqyylsngywqzwfmx.jpg,,,,,,,,,,,,,,,
48,32,Memory,0,,,,,,,sunawotxrevnqvamsfp.jpg,,,,,,,,,,,,,,,
49,32,Memory,0,,,,,,,sunaafbmtoniaasysgu.jpg,,,,,,,,,,,,,,,
50,32,Presentation,1,00290940422fa_sunabqowuarvqqcnipn.jpg,00126931230fb_sunaamdjwemxpmmtypi.jpg,00290940422fa.jpg,sunabqowuarvqqcnipn.jpg,00126931230fb.jpg,sunaamdjwemxpmmtypi.jpg,,,<,Place,,,,,1,,,,,,,x
51,32,Presentation,1,00788941205fa_sunagountlxpzkytsmp.jpg,00829940307fa_sunahwgbqkqcrwprgvh.jpg,00788941205fa.jpg,sunagountlxpzkytsmp.jpg,00829940307fa.jpg,sunahwgbqkqcrwprgvh.jpg,,,<,Place,,,,,1,,,,,,,x
52,32,Presentation,1,00267940128fb_sunablfqiwfqomjarht.jpg,00977960627fa_sunbbxkanhzjgbwyxqs.jpg,00267940128fb.jpg,sunablfqiwfqomjarht.jpg,00977960627fa.jpg,sunbbxkanhzjgbwyxqs.jpg,,,<,Place,,,,,1,,,,,,,o
53,32,Presentation,1,00937960627fa_sunaqsolmfydodnakub.jpg,00905960530fa_sunanmoqeyprjjjfxjt.jpg,00937960627fa.jpg,sunaqsolmfydodnakub.jpg,00905960530fa.jpg,sunanmoqeyprjjjfxjt.jpg,,,<,Place,,,,,1,,,,,,,o
54,32,Presentation,1,00939960627fa_sunarceibpcyacbmfga.jpg,00127931230fa_sunaampvucecsfbdafn.jpg,00939960627fa.jpg,sunarceibpcyacbmfga.jpg,00127931230fa.jpg,sunaampvucecsfbdafn.jpg,,,<,Place,,,,,1,,,,,,,x
55,32,Presentation,1,00634940928fa_sunadcphrizvfpljiqt.jpg,00979960627fa_sunbdycacjfaujxitbw.jpg,00634940928fa.jpg,sunadcphrizvfpljiqt.jpg,00979960627fa.jpg,sunbdycacjfaujxitbw.jpg,,,<,Place,,,,,1,,,,,,,o
56,32,Presentation,1,00609940928fa_sunacycdoztxoluxjyk.jpg,00753941201fa_sunafcofuuzebuadceo.jpg,00609940928fa.jpg,sunacycdoztxoluxjyk.jpg,00753941201fa.jpg,sunafcofuuzebuadceo.jpg,,,<,Place,,,,,1,,,,,,,o
57,32,Presentation,1,00778941205fa_sunagcthdfirrcawoic.jpg,00749941201fa_sunaeuvjbmdpknaqqaj.jpg,00778941205fa.jpg,sunagcthdfirrcawoic.jpg,00749941201fa.jpg,sunaeuvjbmdpknaqqaj.jpg,,,<,Place,,,,,0,,,,,,,x
58,32,Presentation,1,00967960627fa_sunbaejotfklekvpxcz.jpg,00766960620fa_sunafijbgncijwykrnl.jpg,00967960627fa.jpg,sunbaejotfklekvpxcz.jpg,00766960620fa.jpg,sunafijbgncijwykrnl.jpg,,,<,Place,,,,,1,,,,,,,x
59,32,Presentation,1,00973960627fa_sunbbgtoeuzierkkajt.jpg,00111931230fb_sunaakgekhjklxmvulj.jpg,00973960627fa.jpg,sunbbgtoeuzierkkajt.jpg,00111931230fb.jpg,sunaakgekhjklxmvulj.jpg,,,<,Place,,,,,1,,,,,,,o
60,32,Memory,1,,,,,,,00936960627fa.jpg,,,,,,,,,,,,,,,
61,32,Memory,1,,,,,,,sunabqowuarvqqcnipn.jpg,,,,,,,,,,,,,,,
62,32,Memory,1,,,,,,,00766960620fa.jpg,,,,,,,,,,,,,,,
63,32,Memory,1,,,,,,,00620940928fa.jpg,,,,,,,,,,,,,,,
64,32,Memory,1,,,,,,,sunaeuvjbmdpknaqqaj.jpg,,,,,,,,,,,,,,,
65,32,Memory,1,,,,,,,sunabppokiyglaxpcha.jpg,,,,,,,,,,,,,,,
66,32,Memory,1,,,,,,,00967960627fa.jpg,,,,,,,,,,,,,,,
67,32,Memory,1,,,,,,,sunajawzbrlrwafowen.jpg,,,,,,,,,,,,,,,
68,32,Memory,1,,,,,,,sunacerqowiaeoqkmsq.jpg,,,,,,,,,,,,,,,
69,32,Memory,1,,,,,,,sunacepzfrmtkiqonpy.jpg,,,,,,,,,,,,,,,
70,32,Memory,1,,,,,,,00913960530fa.jpg,,,,,,,,,,,,,,,
71,32,Memory,1,,,,,,,00869940307fa.jpg,,,,,,,,,,,,,,,
72,32,Memory,1,,,,,,,00267940128fb.jpg,,,,,,,,,,,,,,,
73,32,Memory,1,,,,,,,00290940422fa.jpg,,,,,,,,,,,,,,,
74,32,Memory,1,,,,,,,sunbaejotfklekvpxcz.jpg,,,,,,,,,,,,,,,
75,32,Memory,1,,,,,,,sunahwgbqkqcrwprgvh.jpg,,,,,,,,,,,,,,,
76,32,Memory,1,,,,,,,sunbbgtoeuzierkkajt.jpg,,,,,,,,,,,,,,,
77,32,Memory,1,,,,,,,sunbbxkanhzjgbwyxqs.jpg,,,,,,,,,,,,,,,
78,32,Memory,1,,,,,,,sunablfqiwfqomjarht.jpg,,,,,,,,,,,,,,,
79,32,Memory,1,,,,,,,00111931230fb.jpg,,,,,,,,,,,,,,,
80,32,Memory,1,,,,,,,sunabzuqsrgcsonqlkz.jpg,,,,,,,,,,,,,,,
81,32,Memory,1,,,,,,,00969960627fa.jpg,,,,,,,,,,,,,,,
82,32,Memory,1,,,,,,,00749941201fa.jpg,,,,,,,,,,,,,,,
83,32,Memory,1,,,,,,,sunaqgjuuwvdcyiccjt.jpg,,,,,,,,,,,,,,,
84,32,Memory,1,,,,,,,00288940422fa.jpg,,,,,,,,,,,,,,,
85,32,Memory,1,,,,,,,00939960627fa.jpg,,,,,,,,,,,,,,,
86,32,Memory,1,,,,,,,00977960627fa.jpg,,,,,,,,,,,,,,,
87,32,Memory,1,,,,,,,sunafijbgncijwykrnl.jpg,,,,,,,,,,,,,,,
88,32,Memory,1,,,,,,,sunacypmnujalygkunp.jpg,,,,,,,,,,,,,,,
89,32,Memory,1,,,,,,,sunaooffzffbhcpirmm.jpg,,,,,,,,,,,,,,,
90,32,Memory,1,,,,,,,sunbaoizrfijvhpnnjn.jpg,,,,,,,,,,,,,,,
91,32,Memory,1,,,,,,,sunaakgekhjklxmvulj.jpg,,,,,,,,,,,,,,,
92,32,Memory,1,,,,,,,sunarceibpcyacbmfga.jpg,,,,,,,,,,,,,,,
93,32,Memory,1,,,,,,,00973960627fa.jpg,,,,,,,,,,,,,,,
94,32,Memory,1,,,,,,,00864940307fa.jpg,,,,,,,,,,,,,,,
95,32,Memory,1,,,,,,,00543940519fa.jpg,,,,,,,,,,,,,,,
96,32,Memory,1,,,,,,,sunajoveqhiprwqgoco.jpg,,,,,,,,,,,,,,,
97,32,Memory,1,,,,,,,00548940519fa.jpg,,,,,,,,,,,,,,,
98,32,Memory,1,,,,,,,00829940307fa.jpg,,,,,,,,,,,,,,,
99,32,Memory,1,,,,,,,00505960627fa.jpg,,,,,,,,,,,,,,,
100,32,Presentation,2,00154931230fa_sunaauueuhhvklldjik.jpg,00783941205fa_sunagjeesomrwjsfqie.jpg,00154931230fa.jpg,sunaauueuhhvklldjik.jpg,00783941205fa.jpg,sunagjeesomrwjsfqie.jpg,,,>,Place,,,,,1,,,,,,,o
101,32,Presentation,2,00479940519fa_sunabxsbfwjccqxxzxq.jpg,00123931230fb_sunaalcrrdbjgdztbiz.jpg,00479940519fa.jpg,sunabxsbfwjccqxxzxq.jpg,00123931230fb.jpg,sunaalcrrdbjgdztbiz.jpg,,,>,Place,,,,,1,,,,,,,o
102,32,Presentation,2,00854940307fa_sunaiwduelojtwaqeyh.jpg,00983960627fa_sunbfyvfqiimvdaxlqn.jpg,00854940307fa.jpg,sunaiwduelojtwaqeyh.jpg,00983960627fa.jpg,sunbfyvfqiimvdaxlqn.jpg,,,>,Place,,,,,1,,,,,,,x
103,32,Presentation,2,00292940422fb_sunabrjdpmoedcdjbpo.jpg,00719941201fa_sunadvithllcgmfxsrn.jpg,00292940422fb.jpg,sunabrjdpmoedcdjbpo.jpg,00719941201fa.jpg,sunadvithllcgmfxsrn.jpg,,,>,Place,,,,,1,,,,,,,o
104,32,Presentation,2,00906960530fa_sunantryfbloeaomfta.jpg,00138931230fa_sunaapfaivxqoynnwwp.jpg,00906960530fa.jpg,sunantryfbloeaomfta.jpg,00138931230fa.jpg,sunaapfaivxqoynnwwp.jpg,,,>,Place,,,,,1,,,,,,,o
105,32,Presentation,2,00096931230fa_sunaaiqiqcggrskoqgy.jpg,00144931230fb_sunaathajvxrgptwhoj.jpg,00096931230fa.jpg,sunaaiqiqcggrskoqgy.jpg,00144931230fb.jpg,sunaathajvxrgptwhoj.jpg,,,>,Place,,,,,1,,,,,,,o
106,32,Presentation,2,00834940307fa_sunaibnpvhkdpdnzcnz.jpg,00894960620fa_sunalqmfgeadpqsyzpd.jpg,00834940307fa.jpg,sunaibnpvhkdpdnzcnz.jpg,00894960620fa.jpg,sunalqmfgeadpqsyzpd.jpg,,,>,Place,,,,,1,,,,,,,x
107,32,Presentation,2,00630941031fa_sunadakkdovnuzlycvp.jpg,00777941205fa_sunagcinxkccdtrjmlv.jpg,00630941031fa.jpg,sunadakkdovnuzlycvp.jpg,00777941205fa.jpg,sunagcinxkccdtrjmlv.jpg,,,>,Place,,,,,1,,,,,,,o
108,32,Presentation,2,00987960627fa_sunbloeoiozwjjsiamp.jpg,00571940928fa_sunacuatpqpqhyjhjqk.jpg,00987960627fa.jpg,sunbloeoiozwjjsiamp.jpg,00571940928fa.jpg,sunacuatpqpqhyjhjqk.jpg,,,>,Place,,,,,1,,,,,,,x
109,32,Presentation,2,00787941205fa_sunagmwxxwymwojbvgi.jpg,00116931230fa_sunaakqepfoeqomfgxf.jpg,00787941205fa.jpg,sunagmwxxwymwojbvgi.jpg,00116931230fa.jpg,sunaakqepfoeqomfgxf.jpg,,,>,Place,,,,,1,,,,,,,x
110,32,Memory,2,,,,,,,sunabllobxadqcyttej.jpg,,,,,,,,,,,,,,,
111,32,Memory,2,,,,,,,sunbfyvfqiimvdaxlqn.jpg,,,,,,,,,,,,,,,
112,32,Memory,2,,,,,,,00292940422fb.jpg,,,,,,,,,,,,,,,
113,32,Memory,2,,,,,,,sunagpjzsbltchlwvou.jpg,,,,,,,,,,,,,,,
114,32,Memory,2,,,,,,,sunabrjdpmoedcdjbpo.jpg,,,,,,,,,,,,,,,
115,32,Memory,2,,,,,,,sunbbfqwjpdxniyhies.jpg,,,,,,,,,,,,,,,
116,32,Memory,2,,,,,,,00787941205fa.jpg,,,,,,,,,,,,,,,
117,32,Memory,2,,,,,,,00116931230fa.jpg,,,,,,,,,,,,,,,
118,32,Memory,2,,,,,,,00950960627fa.jpg,,,,,,,,,,,,,,,
119,32,Memory,2,,,,,,,sunabyvpwkgsjtijdwj.jpg,,,,,,,,,,,,,,,
120,32,Memory,2,,,,,,,00483940519fa.jpg,,,,,,,,,,,,,,,
121,32,Memory,2,,,,,,,sunagvxkjokqimstxpe.jpg,,,,,,,,,,,,,,,
122,32,Memory,2,,,,,,,00783941205fa.jpg,,,,,,,,,,,,,,,
123,32,Memory,2,,,,,,,00854940307fa.jpg,,,,,,,,,,,,,,,
124,32,Memory,2,,,,,,,sunadnjjzohjhbohlwq.jpg,,,,,,,,,,,,,,,
125,32,Memory,2,,,,,,,00777941205fa.jpg,,,,,,,,,,,,,,,
126,32,Memory,2,,,,,,,sunasrjlmglmjzbmqxb.jpg,,,,,,,,,,,,,,,
127,32,Memory,2,,,,,,,00144931230fb.jpg,,,,,,,,,,,,,,,
128,32,Memory,2,,,,,,,sunaiwduelojtwaqeyh.jpg,,,,,,,,,,,,,,,
129,32,Memory,2,,,,,,,00925960627fa.jpg,,,,,,,,,,,,,,,
130,32,Memory,2,,,,,,,00972960627fa.jpg,,,,,,,,,,,,,,,
131,32,Memory,2,,,,,,,sunagjeesomrwjsfqie.jpg,,,,,,,,,,,,,,,
132,32,Memory,2,,,,,,,sunagmwxxwymwojbvgi.jpg,,,,,,,,,,,,,,,
133,32,Memory,2,,,,,,,00790941205fa.jpg,,,,,,,,,,,,,,,
134,32,Memory,2,,,,,,,00983960627fa.jpg,,,,,,,,,,,,,,,
135,32,Memory,2,,,,,,,00906960530fa.jpg,,,,,,,,,,,,,,,
136,32,Memory,2,,,,,,,sunantryfbloeaomfta.jpg,,,,,,,,,,,,,,,
137,32,Memory,2,,,,,,,sunaakqepfoeqomfgxf.jpg,,,,,,,,,,,,,,,
138,32,Memory,2,,,,,,,00663941121fa.jpg,,,,,,,,,,,,,,,
139,32,Memory,2,,,,,,,00532960627fa.jpg,,,,,,,,,,,,,,,
140,32,Memory,2,,,,,,,00803941205fa.jpg,,,,,,,,,,,,,,,
141,32,Memory,2,,,,,,,sunaccdtpgenvcbcbcf.jpg,,,,,,,,,,,,,,,
142,32,Memory,2,,,,,,,00270940422fb.jpg,,,,,,,,,,,,,,,
143,32,Memory,2,,,,,,,00280940422fb.jpg,,,,,,,,,,,,,,,
144,32,Memory,2,,,,,,,00479940519fa.jpg,,,,,,,,,,,,,,,
145,32,Memory,2,,,,,,,sunaathajvxrgptwhoj.jpg,,,,,,,,,,,,,,,
146,32,Memory,2,,,,,,,sunabxsbfwjccqxxzxq.jpg,,,,,,,,,,,,,,,
147,32,Memory,2,,,,,,,sunapqwnqzxlsfvgsjm.jpg,,,,,,,,,,,,,,,
148,32,Memory,2,,,,,,,sunabohxbskznglnrhv.jpg,,,,,,,,,,,,,,,
149,32,Memory,2,,,,,,,sunagcinxkccdtrjmlv.jpg,,,,,,,,,,,,,,,
150,32,Presentation,3,00214940128fa_sunabbafjowbzcvbucc.jpg,00800941205fb_sunagvjurcwdbixvnyi.jpg,00214940128fa.jpg,sunabbafjowbzcvbucc.jpg,00800941205fb.jpg,sunagvjurcwdbixvnyi.jpg,,,>,Face,,,,,1,,,,,,,o
151,32,Presentation,3,00760960620fa_sunaffstbkappprzxnv.jpg,00910960530fa_sunaofikylqtxphvdem.jpg,00760960620fa.jpg,sunaffstbkappprzxnv.jpg,00910960530fa.jpg,sunaofikylqtxphvdem.jpg,,,>,Face,,,,,1,,,,,,,o
152,32,Presentation,3,00242940128fa_sunabcuurugvxwparpk.jpg,00990960627fa_sunbpflsdaxnddnwcqi.jpg,00242940128fa.jpg,sunabcuurugvxwparpk.jpg,00990960627fa.jpg,sunbpflsdaxnddnwcqi.jpg,,,>,Face,,,,,1,,,,,,,x
153,32,Presentation,3,00957960627fa_sunavhxgmgrqsaptynb.jpg,00851940307fa_sunaivflshbyfrfzhqb.jpg,00957960627fa.jpg,sunavhxgmgrqsaptynb.jpg,00851940307fa.jpg,sunaivflshbyfrfzhqb.jpg,,,>,Face,,,,,1,,,,,,,o
154,32,Presentation,3,00752960620fa_sunafbwnojpqeyzssoe.jpg,00871940307_sunajrujcsdxmfbssmc.jpg,00752960620fa.jpg,sunafbwnojpqeyzssoe.jpg,00871940307.jpg,sunajrujcsdxmfbssmc.jpg,,,>,Face,,,,,0,,,,,,,x
155,32,Presentation,3,00648941031fa_sunadfndyrtqqiasoig.jpg,00809960620fa_sunahbvlpavurqoxdeq.jpg,00648941031fa.jpg,sunadfndyrtqqiasoig.jpg,00809960620fa.jpg,sunahbvlpavurqoxdeq.jpg,,,>,Face,,,,,1,,,,,,,o
156,32,Presentation,3,00077931230fb_sunaafgqutfaishsxyu.jpg,00482940519fa_sunabyfxcxhdebvdyfd.jpg,00077931230fb.jpg,sunaafgqutfaishsxyu.jpg,00482940519fa.jpg,sunabyfxcxhdebvdyfd.jpg,,,>,Face,,,,,0,,,,,,,x
157,32,Presentation,3,00804960530fa_sunagwswhkvnsmuszlz.jpg,00902960530fa_sunanaacmmosxrfwmvl.jpg,00804960530fa.jpg,sunagwswhkvnsmuszlz.jpg,00902960530fa.jpg,sunanaacmmosxrfwmvl.jpg,,,>,Face,,,,,1,,,,,,,x
158,32,Presentation,3,00787960620fa_sunagoufulkpsxrmklt.jpg,00985960627fa_sunbgklxeqjhdbyfhhy.jpg,00787960620fa.jpg,sunagoufulkpsxrmklt.jpg,00985960627fa.jpg,sunbgklxeqjhdbyfhhy.jpg,,,>,Face,,,,,0,,,,,,,x
159,32,Presentation,3,00791941205fa_sunagrmyoovzukhxmlo.jpg,00976960627fa_sunbbhqyyzmsxhsbjmp.jpg,00791941205fa.jpg,sunagrmyoovzukhxmlo.jpg,00976960627fa.jpg,sunbbhqyyzmsxhsbjmp.jpg,,,>,Face,,,,,1,,,,,,,x
160,32,Memory,3,,,,,,,00860940307fa.jpg,,,,,,,,,,,,,,,
161,32,Memory,3,,,,,,,00984960627fa.jpg,,,,,,,,,,,,,,,
162,32,Memory,3,,,,,,,00760960620fa.jpg,,,,,,,,,,,,,,,
163,32,Memory,3,,,,,,,00800941205fb.jpg,,,,,,,,,,,,,,,
164,32,Memory,3,,,,,,,00993960627fa.jpg,,,,,,,,,,,,,,,
165,32,Memory,3,,,,,,,00976960627fa.jpg,,,,,,,,,,,,,,,
166,32,Memory,3,,,,,,,sunaizeyhvjzknwjudw.jpg,,,,,,,,,,,,,,,
167,32,Memory,3,,,,,,,00650941031fa.jpg,,,,,,,,,,,,,,,
168,32,Memory,3,,,,,,,sunapqwoeotxshkukbh.jpg,,,,,,,,,,,,,,,
169,32,Memory,3,,,,,,,00902960530fa.jpg,,,,,,,,,,,,,,,
170,32,Memory,3,,,,,,,sunbfzchmomnvzhbxdg.jpg,,,,,,,,,,,,,,,
171,32,Memory,3,,,,,,,sunbbhqyyzmsxhsbjmp.jpg,,,,,,,,,,,,,,,
172,32,Memory,3,,,,,,,sunagwzdbtlixdhgolm.jpg,,,,,,,,,,,,,,,
173,32,Memory,3,,,,,,,00985960627fa.jpg,,,,,,,,,,,,,,,
174,32,Memory,3,,,,,,,sunavhxgmgrqsaptynb.jpg,,,,,,,,,,,,,,,
175,32,Memory,3,,,,,,,sunagvjurcwdbixvnyi.jpg,,,,,,,,,,,,,,,
176,32,Memory,3,,,,,,,00214940128fa.jpg,,,,,,,,,,,,,,,
177,32,Memory,3,,,,,,,sunadikxpvqeabxrvvc.jpg,,,,,,,,,,,,,,,
178,32,Memory,3,,,,,,,00648941031fa.jpg,,,,,,,,,,,,,,,
179,32,Memory,3,,,,,,,sunadfndyrtqqiasoig.jpg,,,,,,,,,,,,,,,
180,32,Memory,3,,,,,,,00752960620fa.jpg,,,,,,,,,,,,,,,
181,32,Memory,3,,,,,,,00805941205fa.jpg,,,,,,,,,,,,,,,
182,32,Memory,3,,,,,,,sunafbwnojpqeyzssoe.jpg,,,,,,,,,,,,,,,
183,32,Memory,3,,,,,,,00926960627Fa.jpg,,,,,,,,,,,,,,,
184,32,Memory,3,,,,,,,00812941205fa.jpg,,,,,,,,,,,,,,,
185,32,Memory,3,,,,,,,sunaajpqmulidejvjsr.jpg,,,,,,,,,,,,,,,
186,32,Memory,3,,,,,,,00098931230fa.jpg,,,,,,,,,,,,,,,
187,32,Memory,3,,,,,,,sunbgklxeqjhdbyfhhy.jpg,,,,,,,,,,,,,,,
188,32,Memory,3,,,,,,,00957960627fa.jpg,,,,,,,,,,,,,,,
189,32,Memory,3,,,,,,,sunahgtbwgsmtqeodwh.jpg,,,,,,,,,,,,,,,
190,32,Memory,3,,,,,,,00557940519fa.jpg,,,,,,,,,,,,,,,
191,32,Memory,3,,,,,,,00482940519fa.jpg,,,,,,,,,,,,,,,
192,32,Memory,3,,,,,,,sunabbafjowbzcvbucc.jpg,,,,,,,,,,,,,,,
193,32,Memory,3,,,,,,,sunachtuarilwyqnvjx.jpg,,,,,,,,,,,,,,,
194,32,Memory,3,,,,,,,00081941031fa.jpg,,,,,,,,,,,,,,,
195,32,Memory,3,,,,,,,sunaffstbkappprzxnv.jpg,,,,,,,,,,,,,,,
196,32,Memory,3,,,,,,,sunanaacmmosxrfwmvl.jpg,,,,,,,,,,,,,,,
197,32,Memory,3,,,,,,,sunabyfxcxhdebvdyfd.jpg,,,,,,,,,,,,,,,
198,32,Memory,3,,,,,,,sunaaftlyfudyzuhqzf.jpg,,,,,,,,,,,,,,,
199,32,Memory,3,,,,,,,sunbprywzqxjcezkbch.jpg,,,,,,,,,,,,,,,
200,32,Presentation,4,00089931230fa_sunaagcpoejbuzyvddd.jpg,00857940307fa_sunaiwfobocrruqznsv.jpg,00089931230fa.jpg,sunaagcpoejbuzyvddd.jpg,00857940307fa.jpg,sunaiwfobocrruqznsv.jpg,,,<,Face,,,,,0,,,,,,,x
201,32,Presentation,4,00112931230fa_sunaakjaacuzulqckgl.jpg,00892960530fa_sunalntxqqadigcletd.jpg,00112931230fa.jpg,sunaakjaacuzulqckgl.jpg,00892960530fa.jpg,sunalntxqqadigcletd.jpg,,,<,Face,,,,,1,,,,,,,x
202,32,Presentation,4,00102931230fa_sunaajspcoepticvplv.jpg,00153931230fa_sunaauhozyxzeeqstxi.jpg,00102931230fa.jpg,sunaajspcoepticvplv.jpg,00153931230fa.jpg,sunaauhozyxzeeqstxi.jpg,,,<,Face,,,,,1,,,,,,,x
203,32,Presentation,4,00745941205fa_sunaeouogqolxvggaoq.jpg,00789960620fa_sunagpancjmxqfazssf.jpg,00745941205fa.jpg,sunaeouogqolxvggaoq.jpg,00789960620fa.jpg,sunagpancjmxqfazssf.jpg,,,<,Face,,,,,1,,,,,,,x
204,32,Presentation,4,00762941201fa_sunafgzgbisbopcyslr.jpg,00874940307fa_sunajtrfunvzdfticna.jpg,00762941201fa.jpg,sunafgzgbisbopcyslr.jpg,00874940307fa.jpg,sunajtrfunvzdfticna.jpg,,,<,Face,,,,,1,,,,,,,o
205,32,Presentation,4,01000960627fa_sunbvzmgrdvaakxusbu.jpg,00132931230fb_sunaanjcbzdvtvblsdy.jpg,01000960627fa.jpg,sunbvzmgrdvaakxusbu.jpg,00132931230fb.jpg,sunaanjcbzdvtvblsdy.jpg,,,<,Face,,,,,1,,,,,,,x
206,32,Presentation,4,00811960530fa_sunahedfrhtcwpneund.jpg,00911960530fa_sunaooaqzputrowwbsw.jpg,00811960530fa.jpg,sunahedfrhtcwpneund.jpg,00911960530fa.jpg,sunaooaqzputrowwbsw.jpg,,,<,Face,,,,,1,,,,,,,o
207,32,Presentation,4,00885960530fa_sunakwlvxjpddialozd.jpg,00942960627fa_sunarfdklgdnjgeqfjg.jpg,00885960530fa.jpg,sunakwlvxjpddialozd.jpg,00942960627fa.jpg,sunarfdklgdnjgeqfjg.jpg,,,<,Face,,,,,1,,,,,,,x
208,32,Presentation,4,00862940307fa_sunaizgnnplsvajzhkc.jpg,00960960627fa_sunawksfbacycuhbrsc.jpg,00862940307fa.jpg,sunaizgnnplsvajzhkc.jpg,00960960627fa.jpg,sunawksfbacycuhbrsc.jpg,,,<,Face,,,,,1,,,,,,,o
209,32,Presentation,4,00149931230fa_sunaauglwmctnkxyird.jpg,00076931230fa_sunaafewhewbxmjiurz.jpg,00149931230fa.jpg,sunaauglwmctnkxyird.jpg,00076931230fa.jpg,sunaafewhewbxmjiurz.jpg,,,<,Face,,,,,1,,,,,,,x
210,32,Memory,4,,,,,,,sunalntxqqadigcletd.jpg,,,,,,,,,,,,,,,
211,32,Memory,4,,,,,,,00818940307fa.jpg,,,,,,,,,,,,,,,
212,32,Memory,4,,,,,,,sunaddsaeicthrfbkhe.jpg,,,,,,,,,,,,,,,
213,32,Memory,4,,,,,,,00754941201fa.jpg,,,,,,,,,,,,,,,
214,32,Memory,4,,,,,,,00862940307fa.jpg,,,,,,,,,,,,,,,
215,32,Memory,4,,,,,,,00838940307fa.jpg,,,,,,,,,,,,,,,
216,32,Memory,4,,,,,,,sunaffgsyyvoqdlkmnk.jpg,,,,,,,,,,,,,,,
217,32,Memory,4,,,,,,,sunaeisnjeetzmkbuad.jpg,,,,,,,,,,,,,,,
218,32,Memory,4,,,,,,,00811960530fa.jpg,,,,,,,,,,,,,,,
219,32,Memory,4,,,,,,,sunahedfrhtcwpneund.jpg,,,,,,,,,,,,,,,
220,32,Memory,4,,,,,,,sunaeouogqolxvggaoq.jpg,,,,,,,,,,,,,,,
221,32,Memory,4,,,,,,,00635941031fa.jpg,,,,,,,,,,,,,,,
222,32,Memory,4,,,,,,,sunaajtnvzzpsjdzres.jpg,,,,,,,,,,,,,,,
223,32,Memory,4,,,,,,,00892960530fa.jpg,,,,,,,,,,,,,,,
224,32,Memory,4,,,,,,,sunawksfbacycuhbrsc.jpg,,,,,,,,,,,,,,,
225,32,Memory,4,,,,,,,sunahpblecxtmuzkmxb.jpg,,,,,,,,,,,,,,,
226,32,Memory,4,,,,,,,00102931230fa.jpg,,,,,,,,,,,,,,,
227,32,Memory,4,,,,,,,sunaiozxhxgtfrmoagh.jpg,,,,,,,,,,,,,,,
228,32,Memory,4,,,,,,,00108960530fa.jpg,,,,,,,,,,,,,,,
229,32,Memory,4,,,,,,,sunaauglwmctnkxyird.jpg,,,,,,,,,,,,,,,
230,32,Memory,4,,,,,,,00093931230fa.jpg,,,,,,,,,,,,,,,
231,32,Memory,4,,,,,,,00727941205fa.jpg,,,,,,,,,,,,,,,
232,32,Memory,4,,,,,,,sunaamvxnvouicstkjb.jpg,,,,,,,,,,,,,,,
233,32,Memory,4,,,,,,,00745941205fa.jpg,,,,,,,,,,,,,,,
234,32,Memory,4,,,,,,,sunabmbnddafmywtjjj.jpg,,,,,,,,,,,,,,,
235,32,Memory,4,,,,,,,00942960627fa.jpg,,,,,,,,,,,,,,,
236,32,Memory,4,,,,,,,00960960627fa.jpg,,,,,,,,,,,,,,,
237,32,Memory,4,,,,,,,00705960530fa.jpg,,,,,,,,,,,,,,,
238,32,Memory,4,,,,,,,sunarfdklgdnjgeqfjg.jpg,,,,,,,,,,,,,,,
239,32,Memory,4,,,,,,,sunaajspcoepticvplv.jpg,,,,,,,,,,,,,,,
240,32,Memory,4,,,,,,,00153931230fa.jpg,,,,,,,,,,,,,,,
241,32,Memory,4,,,,,,,00130931230fa.jpg,,,,,,,,,,,,,,,
242,32,Memory,4,,,,,,,00149931230fa.jpg,,,,,,,,,,,,,,,
243,32,Memory,4,,,,,,,sunaizgnnplsvajzhkc.jpg,,,,,,,,,,,,,,,
244,32,Memory,4,,,,,,,sunaduslxfzlbxlllnz.jpg,,,,,,,,,,,,,,,
245,32,Memory,4,,,,,,,sunaahwnmtqsrhocysw.jpg,,,,,,,,,,,,,,,
246,32,Memory,4,,,,,,,sunaooaqzputrowwbsw.jpg,,,,,,,,,,,,,,,
247,32,Memory,4,,,,,,,00911960530fa.jpg,,,,,,,,,,,,,,,
248,32,Memory,4,,,,,,,sunaauhozyxzeeqstxi.jpg,,,,,,,,,,,,,,,
249,32,Memory,4,,,,,,,00271940422fa.jpg,,,,,,,,,,,,,,,
250,32,Presentation,5,00197940128fa_sunaaylzyqlqrsmfwif.jpg,00676941121fa_sunadpnqovzckyikrjo.jpg,00197940128fa.jpg,sunaaylzyqlqrsmfwif.jpg,00676941121fa.jpg,sunadpnqovzckyikrjo.jpg,,,<,Place,,,,,1,,,,,,,x
251,32,Presentation,5,00061931230fb_sunaaekxzjzrfgtkwjf.jpg,00147931230fb_sunaatpkocdkocwxpkb.jpg,00061931230fb.jpg,sunaaekxzjzrfgtkwjf.jpg,00147931230fb.jpg,sunaatpkocdkocwxpkb.jpg,,,<,Place,,,,,1,,,,,,,o
252,32,Presentation,5,00997960627fa_sunbtpilbhhbmhmeuzq.jpg,00828940307fa_sunahuynahneraqftyz.jpg,00997960627fa.jpg,sunbtpilbhhbmhmeuzq.jpg,00828940307fa.jpg,sunahuynahneraqftyz.jpg,,,<,Place,,,,,1,,,,,,,o
253,32,Presentation,5,00245940128fa_sunabeyhmxodahoieyk.jpg,00638941031fa_sunadfktsqjthoglcsm.jpg,00245940128fa.jpg,sunabeyhmxodahoieyk.jpg,00638941031fa.jpg,sunadfktsqjthoglcsm.jpg,,,<,Place,,,,,1,,,,,,,o
254,32,Presentation,5,00097931230fa_sunaajayojuslbbnneg.jpg,00944960627fa_sunasbbntuiheekqyaq.jpg,00097931230fa.jpg,sunaajayojuslbbnneg.jpg,00944960627fa.jpg,sunasbbntuiheekqyaq.jpg,,,<,Place,,,,,1,,,,,,,o
255,32,Presentation,5,00970960627fa_sunbasypfgzjtomktmu.jpg,00966960627fa_sunaygrtwrwfezqjizr.jpg,00970960627fa.jpg,sunbasypfgzjtomktmu.jpg,00966960627fa.jpg,sunaygrtwrwfezqjizr.jpg,,,<,Place,,,,,1,,,,,,,o
256,32,Presentation,5,00221940128fa_sunabcfpwlpolnutyju.jpg,00082931230fa_sunaafvitpexrpvumsa.jpg,00221940128fa.jpg,sunabcfpwlpolnutyju.jpg,00082931230fa.jpg,sunaafvitpexrpvumsa.jpg,,,<,Place,,,,,0,,,,,,,x
257,32,Presentation,5,00858940307fa_sunaixpqndlwhwjtjek.jpg,00884960530fa_sunakodkcslgqhqlgwl.jpg,00858940307fa.jpg,sunaixpqndlwhwjtjek.jpg,00884960530fa.jpg,sunakodkcslgqhqlgwl.jpg,,,<,Place,,,,,1,,,,,,,o
258,32,Presentation,5,00115931230fa_sunaakmxzhuceuiryah.jpg,00963960627fa_sunayaepykrqvenaqqy.jpg,00115931230fa.jpg,sunaakmxzhuceuiryah.jpg,00963960627fa.jpg,sunayaepykrqvenaqqy.jpg,,,<,Place,,,,,1,,,,,,,x
259,32,Presentation,5,00260940128fa_sunabgfhvifeijihhjw.jpg,00870940307fa_sunajrgtewnualfcerj.jpg,00260940128fa.jpg,sunabgfhvifeijihhjw.jpg,00870940307fa.jpg,sunajrgtewnualfcerj.jpg,,,<,Place,,,,,1,,,,,,,x
260,32,Memory,5,,,,,,,00061931230fb.jpg,,,,,,,,,,,,,,,
261,32,Memory,5,,,,,,,00574940928fa.jpg,,,,,,,,,,,,,,,
262,32,Memory,5,,,,,,,00944960627fa.jpg,,,,,,,,,,,,,,,
263,32,Memory,5,,,,,,,sunajrgtewnualfcerj.jpg,,,,,,,,,,,,,,,
264,32,Memory,5,,,,,,,sunaamsdyakblkfoydx.jpg,,,,,,,,,,,,,,,
265,32,Memory,5,,,,,,,sunasbbntuiheekqyaq.jpg,,,,,,,,,,,,,,,
266,32,Memory,5,,,,,,,sunaixpqndlwhwjtjek.jpg,,,,,,,,,,,,,,,
267,32,Memory,5,,,,,,,sunaaelotvjgibjtjhs.jpg,,,,,,,,,,,,,,,
268,32,Memory,5,,,,,,,sunagetqixeypsysbpn.jpg,,,,,,,,,,,,,,,
269,32,Memory,5,,,,,,,sunbtpilbhhbmhmeuzq.jpg,,,,,,,,,,,,,,,
270,32,Memory,5,,,,,,,sunagufzbeteqdjxais.jpg,,,,,,,,,,,,,,,
271,32,Memory,5,,,,,,,00963960627fa.jpg,,,,,,,,,,,,,,,
272,32,Memory,5,,,,,,,00751960620fa.jpg,,,,,,,,,,,,,,,
273,32,Memory,5,,,,,,,sunaatpkocdkocwxpkb.jpg,,,,,,,,,,,,,,,
274,32,Memory,5,,,,,,,00858940307fa.jpg,,,,,,,,,,,,,,,
275,32,Memory,5,,,,,,,00129931230fb.jpg,,,,,,,,,,,,,,,
276,32,Memory,5,,,,,,,sunacvbrcejzwmcgnoq.jpg,,,,,,,,,,,,,,,
277,32,Memory,5,,,,,,,sunbasypfgzjtomktmu.jpg,,,,,,,,,,,,,,,
278,32,Memory,5,,,,,,,00797960620fa.jpg,,,,,,,,,,,,,,,
279,32,Memory,5,,,,,,,00884960530fa.jpg,,,,,,,,,,,,,,,
280,32,Memory,5,,,,,,,sunayaepykrqvenaqqy.jpg,,,,,,,,,,,,,,,
281,32,Memory,5,,,,,,,sunaezuszgtxnmsxdbk.jpg,,,,,,,,,,,,,,,
282,32,Memory,5,,,,,,,01003960627fb.jpg,,,,,,,,,,,,,,,
283,32,Memory,5,,,,,,,sunbwdrdvsweerwsdrj.jpg,,,,,,,,,,,,,,,
284,32,Memory,5,,,,,,,00115931230fa.jpg,,,,,,,,,,,,,,,
285,32,Memory,5,,,,,,,00768941205fa.jpg,,,,,,,,,,,,,,,
286,32,Memory,5,,,,,,,sunaakmxzhuceuiryah.jpg,,,,,,,,,,,,,,,
287,32,Memory,5,,,,,,,00779941205fa.jpg,,,,,,,,,,,,,,,
288,32,Memory,5,,,,,,,00147931230fb.jpg,,,,,,,,,,,,,,,
289,32,Memory,5,,,,,,,sunakodkcslgqhqlgwl.jpg,,,,,,,,,,,,,,,
290,32,Memory,5,,,,,,,00780960530fa.jpg,,,,,,,,,,,,,,,
291,32,Memory,5,,,,,,,00062931230fb.jpg,,,,,,,,,,,,,,,
292,32,Memory,5,,,,,,,sunafkmnlytenlsywia.jpg,,,,,,,,,,,,,,,
293,32,Memory,5,,,,,,,00870940307fa.jpg,,,,,,,,,,,,,,,
294,32,Memory,5,,,,,,,00970960627fa.jpg,,,,,,,,,,,,,,,
295,32,Memory,5,,,,,,,00997960627fa.jpg,,,,,,,,,,,,,,,
296,32,Memory,5,,,,,,,sunaaekxzjzrfgtkwjf.jpg,,,,,,,,,,,,,,,
297,32,Memory,5,,,,,,,sunagdzlvkqtpnfxfcg.jpg,,,,,,,,,,,,,,,
298,32,Memory,5,,,,,,,sunagsiwrmuixqgdimb.jpg,,,,,,,,,,,,,,,
299,32,Memory,5,,,,,,,00792941205fa.jpg,,,,,,,,,,,,,,,
300,32,Presentation,6,00119931230fb_sunaakvmbftkrgqhjun.jpg,01002960627fb_sunbwaafjdebjzttuvq.jpg,00119931230fb.jpg,sunaakvmbftkrgqhjun.jpg,01002960627fb.jpg,sunbwaafjdebjzttuvq.jpg,,,>,Place,,,,,1,,,,,,,o
301,32,Presentation,6,00208940128fa_sunaazzyhbvqjpmazjq.jpg,00750941201fa_sunaeuzwggvibufclwf.jpg,00208940128fa.jpg,sunaazzyhbvqjpmazjq.jpg,00750941201fa.jpg,sunaeuzwggvibufclwf.jpg,,,>,Place,,,,,1,,,,,,,o
302,32,Presentation,6,00308940422fb_sunabwfvcqqidycwypa.jpg,00694941121fa_sunadrmfzmstgdjdcod.jpg,00308940422fb.jpg,sunabwfvcqqidycwypa.jpg,00694941121fa.jpg,sunadrmfzmstgdjdcod.jpg,,,>,Place,,,,,1,,,,,,,o
303,32,Presentation,6,00796941205fa_sunaguchqqnrtodtezq.jpg,00598941031fa_sunacxtcahkymosigud.jpg,00796941205fa.jpg,sunaguchqqnrtodtezq.jpg,00598941031fa.jpg,sunacxtcahkymosigud.jpg,,,>,Place,,,,,1,,,,,,,x
304,32,Presentation,6,00935960627fa_sunaqbmgkgqucajzrkp.jpg,00191940128fb_sunaawsdjisukbbginm.jpg,00935960627fa.jpg,sunaqbmgkgqucajzrkp.jpg,00191940128fb.jpg,sunaawsdjisukbbginm.jpg,,,>,Place,,,,,1,,,,,,,o
305,32,Presentation,6,00770941201fa_sunaflojskatpeqyzqp.jpg,01010960627fa_suncnkvbhypnivcohyx.jpg,00770941201fa.jpg,sunaflojskatpeqyzqp.jpg,01010960627fa.jpg,suncnkvbhypnivcohyx.jpg,,,>,Place,,,,,1,,,,,,,o
306,32,Presentation,6,00742941201fa_sunaenwuebvlpdmntju.jpg,00142931230fb_sunaapxkpvrhpjplsok.jpg,00742941201fa.jpg,sunaenwuebvlpdmntju.jpg,00142931230fb.jpg,sunaapxkpvrhpjplsok.jpg,,,>,Place,,,,,1,,,,,,,o
307,32,Presentation,6,00314940422fa_sunabwmcbaxwioksdgw.jpg,00218940128fa_sunabbwggenhfbftyvi.jpg,00314940422fa.jpg,sunabwmcbaxwioksdgw.jpg,00218940128fa.jpg,sunabbwggenhfbftyvi.jpg,,,>,Place,,,,,1,,,,,,,x
308,32,Presentation,6,00761960627fa_sunafgdqbclkwfocdhg.jpg,01011960627fa_sundahdxwmcdluscvot.jpg,00761960627fa.jpg,sunafgdqbclkwfocdhg.jpg,01011960627fa.jpg,sundahdxwmcdluscvot.jpg,,,>,Place,,,,,1,,,,,,,x
309,32,Presentation,6,00744941201fa_sunaeomlfaabhpswasy.jpg,00965960627fa_sunaydywdmvlfddbxbk.jpg,00744941201fa.jpg,sunaeomlfaabhpswasy.jpg,00965960627fa.jpg,sunaydywdmvlfddbxbk.jpg,,,>,Place,,,,,1,,,,,,,x
310,32,Memory,6,,,,,,,sunaazzyhbvqjpmazjq.jpg,,,,,,,,,,,,,,,
311,32,Memory,6,,,,,,,sunaeomlfaabhpswasy.jpg,,,,,,,,,,,,,,,
312,32,Memory,6,,,,,,,01002960627fb.jpg,,,,,,,,,,,,,,,
313,32,Memory,6,,,,,,,sunavspxmxubqaeidjt.jpg,,,,,,,,,,,,,,,
314,32,Memory,6,,,,,,,00191940128fb.jpg,,,,,,,,,,,,,,,
315,32,Memory,6,,,,,,,sunafgdqbclkwfocdhg.jpg,,,,,,,,,,,,,,,
316,32,Memory,6,,,,,,,00796941205fa.jpg,,,,,,,,,,,,,,,
317,32,Memory,6,,,,,,,00744941201fa.jpg,,,,,,,,,,,,,,,
318,32,Memory,6,,,,,,,00131931230fb.jpg,,,,,,,,,,,,,,,
319,32,Memory,6,,,,,,,00719960620fa.jpg,,,,,,,,,,,,,,,
320,32,Memory,6,,,,,,,sunaangbuylfvckqqoo.jpg,,,,,,,,,,,,,,,
321,32,Memory,6,,,,,,,sunacxtcahkymosigud.jpg,,,,,,,,,,,,,,,
322,32,Memory,6,,,,,,,01011960627fa.jpg,,,,,,,,,,,,,,,
323,32,Memory,6,,,,,,,sunbwaafjdebjzttuvq.jpg,,,,,,,,,,,,,,,
324,32,Memory,6,,,,,,,00933960627fa.jpg,,,,,,,,,,,,,,,
325,32,Memory,6,,,,,,,00305940422fa.jpg,,,,,,,,,,,,,,,
326,32,Memory,6,,,,,,,sunabtrnbvpppgczjim.jpg,,,,,,,,,,,,,,,
327,32,Memory,6,,,,,,,00208940128fa.jpg,,,,,,,,,,,,,,,
328,32,Memory,6,,,,,,,00996960627fa.jpg,,,,,,,,,,,,,,,
329,32,Memory,6,,,,,,,00761960627fa.jpg,,,,,,,,,,,,,,,
330,32,Memory,6,,,,,,,sunaawsdjisukbbginm.jpg,,,,,,,,,,,,,,,
331,32,Memory,6,,,,,,,sundahdxwmcdluscvot.jpg,,,,,,,,,,,,,,,
332,32,Memory,6,,,,,,,00750941201fa.jpg,,,,,,,,,,,,,,,
333,32,Memory,6,,,,,,,00878960530fa.jpg,,,,,,,,,,,,,,,
334,32,Memory,6,,,,,,,sunakgbnzxmfohgehnu.jpg,,,,,,,,,,,,,,,
335,32,Memory,6,,,,,,,sunaeuzwggvibufclwf.jpg,,,,,,,,,,,,,,,
336,32,Memory,6,,,,,,,00080931230fb.jpg,,,,,,,,,,,,,,,
337,32,Memory,6,,,,,,,00316940422fa.jpg,,,,,,,,,,,,,,,
338,32,Memory,6,,,,,,,00598941031fa.jpg,,,,,,,,,,,,,,,
339,32,Memory,6,,,,,,,00836940307fa.jpg,,,,,,,,,,,,,,,
340,32,Memory,6,,,,,,,sunapwjkcxdaeqehfql.jpg,,,,,,,,,,,,,,,
341,32,Memory,6,,,,,,,sunaguchqqnrtodtezq.jpg,,,,,,,,,,,,,,,
342,32,Memory,6,,,,,,,sunadzuvtmtmgupotmf.jpg,,,,,,,,,,,,,,,
343,32,Memory,6,,,,,,,00308940422fb.jpg,,,,,,,,,,,,,,,
344,32,Memory,6,,,,,,,sunaafjszryxyavjzln.jpg,,,,,,,,,,,,,,,
345,32,Memory,6,,,,,,,00958960627fa.jpg,,,,,,,,,,,,,,,
346,32,Memory,6,,,,,,,sunabwfvcqqidycwypa.jpg,,,,,,,,,,,,,,,
347,32,Memory,6,,,,,,,sunainqelldeebvxtcz.jpg,,,,,,,,,,,,,,,
348,32,Memory,6,,,,,,,sunbpvgllfdejxcpjqp.jpg,,,,,,,,,,,,,,,
349,32,Memory,6,,,,,,,sunabxmguapjekttvwm.jpg,,,,,,,,,,,,,,,
350,32,Presentation,7,00968960627fa_sunbagfpovqwbuexqdn.jpg,00675941121fa_sunadoxcchtmsxewsau.jpg,00968960627fa.jpg,sunbagfpovqwbuexqdn.jpg,00675941121fa.jpg,sunadoxcchtmsxewsau.jpg,,,>,Face,,,,,1,,,,,,,x
351,32,Presentation,7,00785941205fa_sunaglqunwuycxydmyu.jpg,00807941205fa_sunahawfngukizslzsd.jpg,00785941205fa.jpg,sunaglqunwuycxydmyu.jpg,00807941205fa.jpg,sunahawfngukizslzsd.jpg,,,>,Face,,,,,1,,,,,,,o
352,32,Presentation,7,00819940307fa_sunahqldjibofgsfdgb.jpg,00313940422fa_sunabwjvmoaddlyxfjr.jpg,00819940307fa.jpg,sunahqldjibofgsfdgb.jpg,00313940422fa.jpg,sunabwjvmoaddlyxfjr.jpg,,,>,Face,,,,,1,,,,,,,o
353,32,Presentation,7,00795941205fa_sunagtumacdlmciqamz.jpg,00903960620fa_sunanainkqdvktzoxyl.jpg,00795941205fa.jpg,sunagtumacdlmciqamz.jpg,00903960620fa.jpg,sunanainkqdvktzoxyl.jpg,,,>,Face,,,,,1,,,,,,,o
354,32,Presentation,7,00839940307fa_sunaipyohrqlwngaqif.jpg,00681941121fa_sunadqmjrhfjyuzyvdd.jpg,00839940307fa.jpg,sunaipyohrqlwngaqif.jpg,00681941121fa.jpg,sunadqmjrhfjyuzyvdd.jpg,,,>,Face,,,,,0,,,,,,,x
355,32,Presentation,7,00184940128fa_sunaavtbadenwnzeutj.jpg,00880960530fa_sunakmnfgklupjijsgf.jpg,00184940128fa.jpg,sunaavtbadenwnzeutj.jpg,00880960530fa.jpg,sunakmnfgklupjijsgf.jpg,,,>,Face,,,,,1,,,,,,,x
356,32,Presentation,7,00071940128fa_sunaaexpnawiehinlpy.jpg,00266940128fb_sunabkngeblodihjvbk.jpg,00071940128fa.jpg,sunaaexpnawiehinlpy.jpg,00266940128fb.jpg,sunabkngeblodihjvbk.jpg,,,>,Face,,,,,1,,,,,,,o
357,32,Presentation,7,00774941201fa_sunafvtpfczkzopbgue.jpg,00775941205fa_sunafvwfsmqkjrutjta.jpg,00774941201fa.jpg,sunafvtpfczkzopbgue.jpg,00775941205fa.jpg,sunafvwfsmqkjrutjta.jpg,,,>,Face,,,,,1,,,,,,,o
358,32,Presentation,7,00793941205fa_sunagtjwilqjvxohypn.jpg,00581940928fa_sunacvzhvcksnwqcqbw.jpg,00793941205fa.jpg,sunagtjwilqjvxohypn.jpg,00581940928fa.jpg,sunacvzhvcksnwqcqbw.jpg,,,>,Face,,,,,1,,,,,,,x
359,32,Presentation,7,00662941121fa_sunadkazmlajmohnwfl.jpg,01007960627fa_sunbxarcshsnqsefemx.jpg,00662941121fa.jpg,sunadkazmlajmohnwfl.jpg,01007960627fa.jpg,sunbxarcshsnqsefemx.jpg,,,>,Face,,,,,1,,,,,,,o
360,32,Memory,7,,,,,,,00140931230fb.jpg,,,,,,,,,,,,,,,
361,32,Memory,7,,,,,,,sunahawfngukizslzsd.jpg,,,,,,,,,,,,,,,
362,32,Memory,7,,,,,,,sunacmpqqfbsvlzinzl.jpg,,,,,,,,,,,,,,,
363,32,Memory,7,,,,,,,sunbxzweleltykebgan.jpg,,,,,,,,,,,,,,,
364,32,Memory,7,,,,,,,sunaaexpnawiehinlpy.jpg,,,,,,,,,,,,,,,
365,32,Memory,7,,,,,,,sunacwggadqsfpovdjv.jpg,,,,,,,,,,,,,,,
366,32,Memory,7,,,,,,,00807941205fa.jpg,,,,,,,,,,,,,,,
367,32,Memory,7,,,,,,,00071940128fa.jpg,,,,,,,,,,,,,,,
368,32,Memory,7,,,,,,,00589940928fa.jpg,,,,,,,,,,,,,,,
369,32,Memory,7,,,,,,,sunaaeplwsfslcbtojr.jpg,,,,,,,,,,,,,,,
370,32,Memory,7,,,,,,,sunaptrqvaooxfvktvw.jpg,,,,,,,,,,,,,,,
371,32,Memory,7,,,,,,,sunacvzhvcksnwqcqbw.jpg,,,,,,,,,,,,,,,
372,32,Memory,7,,,,,,,00982960627fa.jpg,,,,,,,,,,,,,,,
373,32,Memory,7,,,,,,,00705941205fa.jpg,,,,,,,,,,,,,,,
374,32,Memory,7,,,,,,,00184940128fa.jpg,,,,,,,,,,,,,,,
375,32,Memory,7,,,,,,,00266940128fb.jpg,,,,,,,,,,,,,,,
376,32,Memory,7,,,,,,,00564940928fa.jpg,,,,,,,,,,,,,,,
377,32,Memory,7,,,,,,,00581940928fa.jpg,,,,,,,,,,,,,,,
378,32,Memory,7,,,,,,,00662941121fa.jpg,,,,,,,,,,,,,,,
379,32,Memory,7,,,,,,,sunbesrwkdsffeogeqq.jpg,,,,,,,,,,,,,,,
380,32,Memory,7,,,,,,,sunadtlxenqqxsyjvix.jpg,,,,,,,,,,,,,,,
381,32,Memory,7,,,,,,,sunafvcflzhlqloapyo.jpg,,,,,,,,,,,,,,,
382,32,Memory,7,,,,,,,01009960627fa.jpg,,,,,,,,,,,,,,,
383,32,Memory,7,,,,,,,sunadkazmlajmohnwfl.jpg,,,,,,,,,,,,,,,
384,32,Memory,7,,,,,,,sunbagfpovqwbuexqdn.jpg,,,,,,,,,,,,,,,
385,32,Memory,7,,,,,,,00971960627fa.jpg,,,,,,,,,,,,,,,
386,32,Memory,7,,,,,,,sunanainkqdvktzoxyl.jpg,,,,,,,,,,,,,,,
387,32,Memory,7,,,,,,,00931960627fa.jpg,,,,,,,,,,,,,,,
388,32,Memory,7,,,,,,,00903960620fa.jpg,,,,,,,,,,,,,,,
389,32,Memory,7,,,,,,,sunaapllqyqlykszopd.jpg,,,,,,,,,,,,,,,
390,32,Memory,7,,,,,,,00070940307fa.jpg,,,,,,,,,,,,,,,
391,32,Memory,7,,,,,,,00880960530fa.jpg,,,,,,,,,,,,,,,
392,32,Memory,7,,,,,,,sunabkngeblodihjvbk.jpg,,,,,,,,,,,,,,,
393,32,Memory,7,,,,,,,00819940307fa.jpg,,,,,,,,,,,,,,,
394,32,Memory,7,,,,,,,sunahqldjibofgsfdgb.jpg,,,,,,,,,,,,,,,
395,32,Memory,7,,,,,,,00968960627fa.jpg,,,,,,,,,,,,,,,
396,32,Memory,7,,,,,,,00773941201fa.jpg,,,,,,,,,,,,,,,
397,32,Memory,7,,,,,,,sunbbegcweqnetpdlrh.jpg,,,,,,,,,,,,,,,
398,32,Memory,7,,,,,,,sunakmnfgklupjijsgf.jpg,,,,,,,,,,,,,,,
399,32,Memory,7,,,,,,,sunaavtbadenwnzeutj.jpg,,,,,,,,,,,,,,,
