,Subject,Trial Type,Run,Cued Composite,Uncued Composite,Cued Face,Cued Place,Uncued Face,Uncued Place,Memory Image,Category,Cued Side,Cued Category,Attention Reaction Time (s),Familiarity Reaction Time (s),Familiarity Rating,Attention Level,Cue Validity,Post Invalid Cue,Pre Invalid Cue,Attention Button,Rating History,Stimulus Onset,Stimulus End,Attention Probe
0,25,Presentation,0,00227940128fa_sunabckqabszusgcykj.jpg,00129931230fb_sunaamsdyakblkfoydx.jpg,00227940128fa.jpg,sunabckqabszusgcykj.jpg,00129931230fb.jpg,sunaamsdyakblkfoydx.jpg,,,>,Face,,,,,1,,,,,,,x
1,25,Presentation,0,00877960530fa_sunajxpkuhbizeveguy.jpg,00132931230fb_sunaanjcbzdvtvblsdy.jpg,00877960530fa.jpg,sunajxpkuhbizeveguy.jpg,00132931230fb.jpg,sunaanjcbzdvtvblsdy.jpg,,,>,Place,,,,,1,,,,,,,o
2,25,Presentation,0,00154931230fa_sunaauueuhhvklldjik.jpg,00803941205fa_sunagvxkjokqimstxpe.jpg,00154931230fa.jpg,sunaauueuhhvklldjik.jpg,00803941205fa.jpg,sunagvxkjokqimstxpe.jpg,,,<,Place,,,,,1,,,,,,,o
3,25,Presentation,0,00280940422fb_sunabohxbskznglnrhv.jpg,00276940422fa_sunabmytpyhsgigllxu.jpg,00280940422fb.jpg,sunabohxbskznglnrhv.jpg,00276940422fa.jpg,sunabmytpyhsgigllxu.jpg,,,<,Face,,,,,1,,,,,,,x
4,25,Presentation,0,00862940307fa_sunaizgnnplsvajzhkc.jpg,00197940128fa_sunaaylzyqlqrsmfwif.jpg,00862940307fa.jpg,sunaizgnnplsvajzhkc.jpg,00197940128fa.jpg,sunaaylzyqlqrsmfwif.jpg,,,<,Face,,,,,1,,,,,,,o
5,25,Presentation,0,00635941031fa_sunaddsaeicthrfbkhe.jpg,00797960620fa_sunagufzbeteqdjxais.jpg,00635941031fa.jpg,sunaddsaeicthrfbkhe.jpg,00797960620fa.jpg,sunagufzbeteqdjxais.jpg,,,<,Face,,,,,0,,,,,,,x
6,25,Presentation,0,00751960620fa_sunaezuszgtxnmsxdbk.jpg,00816941205fa_sunahmhrncocyhsjpxk.jpg,00751960620fa.jpg,sunaezuszgtxnmsxdbk.jpg,00816941205fa.jpg,sunahmhrncocyhsjpxk.jpg,,,>,Face,,,,,1,,,,,,,o
7,25,Presentation,0,00977960627fa_sunbbxkanhzjgbwyxqs.jpg,00864940307fa_sunajawzbrlrwafowen.jpg,00977960627fa.jpg,sunbbxkanhzjgbwyxqs.jpg,00864940307fa.jpg,sunajawzbrlrwafowen.jpg,,,>,Place,,,,,1,,,,,,,o
8,25,Presentation,0,01207940128fa_sundbixjudsgeuuehrn.jpg,00947960627fa_sunasmmcxdddtmtazwx.jpg,01207940128fa.jpg,sundbixjudsgeuuehrn.jpg,00947960627fa.jpg,sunasmmcxdddtmtazwx.jpg,,,>,Place,,,,,1,,,,,,,o
9,25,Presentation,0,00741941201fa_sunaemcowdozyphwknd.jpg,01005960627fa_sunbwyuesflwdpqtgoy.jpg,00741941201fa.jpg,sunaemcowdozyphwknd.jpg,01005960627fa.jpg,sunbwyuesflwdpqtgoy.jpg,,,<,Place,,,,,1,,,,,,,o
10,25,Memory,0,,,,,,,00891960530fa.jpg,,,,,,,,,,,,,,,
11,25,Memory,0,,,,,,,00829940307fa.jpg,,,,,,,,,,,,,,,
12,25,Memory,0,,,,,,,sunagwzdbtlixdhgolm.jpg,,,,,,,,,,,,,,,
13,25,Memory,0,,,,,,,00227940128fa.jpg,,,,,,,,,,,,,,,
14,25,Memory,0,,,,,,,00862940307fa.jpg,,,,,,,,,,,,,,,
15,25,Memory,0,,,,,,,sunbbxkanhzjgbwyxqs.jpg,,,,,,,,,,,,,,,
16,25,Memory,0,,,,,,,00635941031fa.jpg,,,,,,,,,,,,,,,
17,25,Memory,0,,,,,,,00972960627fa.jpg,,,,,,,,,,,,,,,
18,25,Memory,0,,,,,,,sunafgzgbisbopcyslr.jpg,,,,,,,,,,,,,,,
19,25,Memory,0,,,,,,,00197940128fa.jpg,,,,,,,,,,,,,,,
20,25,Memory,0,,,,,,,00140931230fb.jpg,,,,,,,,,,,,,,,
21,25,Memory,0,,,,,,,00977960627fa.jpg,,,,,,,,,,,,,,,
22,25,Memory,0,,,,,,,00805941205fa.jpg,,,,,,,,,,,,,,,
23,25,Memory,0,,,,,,,sunahwgbqkqcrwprgvh.jpg,,,,,,,,,,,,,,,
24,25,Memory,0,,,,,,,sunaaylzyqlqrsmfwif.jpg,,,,,,,,,,,,,,,
25,25,Memory,0,,,,,,,sunaapllqyqlykszopd.jpg,,,,,,,,,,,,,,,
26,25,Memory,0,,,,,,,sunaddsaeicthrfbkhe.jpg,,,,,,,,,,,,,,,
27,25,Memory,0,,,,,,,00280940422fb.jpg,,,,,,,,,,,,,,,
28,25,Memory,0,,,,,,,00129931230fb.jpg,,,,,,,,,,,,,,,
29,25,Memory,0,,,,,,,00947960627fa.jpg,,,,,,,,,,,,,,,
30,25,Memory,0,,,,,,,00785941205fa.jpg,,,,,,,,,,,,,,,
31,25,Memory,0,,,,,,,sunajawzbrlrwafowen.jpg,,,,,,,,,,,,,,,
32,25,Memory,0,,,,,,,00868960307fa.jpg,,,,,,,,,,,,,,,
33,25,Memory,0,,,,,,,sunaglqunwuycxydmyu.jpg,,,,,,,,,,,,,,,
34,25,Memory,0,,,,,,,sunabckqabszusgcykj.jpg,,,,,,,,,,,,,,,
35,25,Memory,0,,,,,,,sunbbfqwjpdxniyhies.jpg,,,,,,,,,,,,,,,
36,25,Memory,0,,,,,,,00762941201fa.jpg,,,,,,,,,,,,,,,
37,25,Memory,0,,,,,,,sunabohxbskznglnrhv.jpg,,,,,,,,,,,,,,,
38,25,Memory,0,,,,,,,sunabclssnoeuigtawp.jpg,,,,,,,,,,,,,,,
39,25,Memory,0,,,,,,,01005960627fa.jpg,,,,,,,,,,,,,,,
40,25,Memory,0,,,,,,,sunadvithllcgmfxsrn.jpg,,,,,,,,,,,,,,,
41,25,Memory,0,,,,,,,sunalkiibhqpxfamlll.jpg,,,,,,,,,,,,,,,
42,25,Memory,0,,,,,,,00864940307fa.jpg,,,,,,,,,,,,,,,
43,25,Memory,0,,,,,,,sunasmmcxdddtmtazwx.jpg,,,,,,,,,,,,,,,
44,25,Memory,0,,,,,,,sunbwyuesflwdpqtgoy.jpg,,,,,,,,,,,,,,,
45,25,Memory,0,,,,,,,00719941201fa.jpg,,,,,,,,,,,,,,,
46,25,Memory,0,,,,,,,sunajjxttslobudoqbv.jpg,,,,,,,,,,,,,,,
47,25,Memory,0,,,,,,,sunaamsdyakblkfoydx.jpg,,,,,,,,,,,,,,,
48,25,Memory,0,,,,,,,00235940128fb.jpg,,,,,,,,,,,,,,,
49,25,Memory,0,,,,,,,sunaizgnnplsvajzhkc.jpg,,,,,,,,,,,,,,,
50,25,Presentation,1,00984960627fa_sunbfzchmomnvzhbxdg.jpg,00630940928fa_sunaczwgyukesaajxnx.jpg,00984960627fa.jpg,sunbfzchmomnvzhbxdg.jpg,00630940928fa.jpg,sunaczwgyukesaajxnx.jpg,,,>,Face,,,,,1,,,,,,,o
51,25,Presentation,1,00260940128fa_sunabgfhvifeijihhjw.jpg,00807941205fa_sunahawfngukizslzsd.jpg,00260940128fa.jpg,sunabgfhvifeijihhjw.jpg,00807941205fa.jpg,sunahawfngukizslzsd.jpg,,,<,Face,,,,,1,,,,,,,x
52,25,Presentation,1,00264940128fb_sunabjzyxcjnmztdonj.jpg,00763941205fa_sunafhmnhsdurlvddpw.jpg,00264940128fb.jpg,sunabjzyxcjnmztdonj.jpg,00763941205fa.jpg,sunafhmnhsdurlvddpw.jpg,,,>,Place,,,,,1,,,,,,,x
53,25,Presentation,1,00073931230fa_sunaafbmtoniaasysgu.jpg,00922960627fa_sunapqkyghktgtosuuk.jpg,00073931230fa.jpg,sunaafbmtoniaasysgu.jpg,00922960627fa.jpg,sunapqkyghktgtosuuk.jpg,,,>,Face,,,,,0,,,,,,,o
54,25,Presentation,1,00993960627fa_sunbprywzqxjcezkbch.jpg,00828940307fa_sunahuynahneraqftyz.jpg,00993960627fa.jpg,sunbprywzqxjcezkbch.jpg,00828940307fa.jpg,sunahuynahneraqftyz.jpg,,,<,Place,,,,,1,,,,,,,o
55,25,Presentation,1,00908960530fa_sunanwjjyqqwzqrqagd.jpg,00787960620fa_sunagoufulkpsxrmklt.jpg,00908960530fa.jpg,sunanwjjyqqwzqrqagd.jpg,00787960620fa.jpg,sunagoufulkpsxrmklt.jpg,,,<,Face,,,,,1,,,,,,,x
56,25,Presentation,1,00911960530fa_sunaooaqzputrowwbsw.jpg,00119931230fb_sunaakvmbftkrgqhjun.jpg,00911960530fa.jpg,sunaooaqzputrowwbsw.jpg,00119931230fb.jpg,sunaakvmbftkrgqhjun.jpg,,,>,Place,,,,,1,,,,,,,o
57,25,Presentation,1,01007960627fa_sunbxarcshsnqsefemx.jpg,00811960530fa_sunahedfrhtcwpneund.jpg,01007960627fa.jpg,sunbxarcshsnqsefemx.jpg,00811960530fa.jpg,sunahedfrhtcwpneund.jpg,,,>,Place,,,,,1,,,,,,,o
58,25,Presentation,1,00933960627fa_sunapwjkcxdaeqehfql.jpg,00893960530Fa_sunaloffvbvysigxent.jpg,00933960627fa.jpg,sunapwjkcxdaeqehfql.jpg,00893960530Fa.jpg,sunaloffvbvysigxent.jpg,,,<,Face,,,,,1,,,,,,,x
59,25,Presentation,1,00498960627fa_sunabzjxlmkwnwzimua.jpg,00153931230fa_sunaauhozyxzeeqstxi.jpg,00498960627fa.jpg,sunabzjxlmkwnwzimua.jpg,00153931230fa.jpg,sunaauhozyxzeeqstxi.jpg,,,<,Place,,,,,1,,,,,,,x
60,25,Memory,1,,,,,,,00787960620fa.jpg,,,,,,,,,,,,,,,
61,25,Memory,1,,,,,,,00828940307fa.jpg,,,,,,,,,,,,,,,
62,25,Memory,1,,,,,,,00133931230fa.jpg,,,,,,,,,,,,,,,
63,25,Memory,1,,,,,,,sunapqkyghktgtosuuk.jpg,,,,,,,,,,,,,,,
64,25,Memory,1,,,,,,,sunadfktsqjthoglcsm.jpg,,,,,,,,,,,,,,,
65,25,Memory,1,,,,,,,sunabtrnbvpppgczjim.jpg,,,,,,,,,,,,,,,
66,25,Memory,1,,,,,,,sunaafgqutfaishsxyu.jpg,,,,,,,,,,,,,,,
67,25,Memory,1,,,,,,,00984960627fa.jpg,,,,,,,,,,,,,,,
68,25,Memory,1,,,,,,,00061931230fb.jpg,,,,,,,,,,,,,,,
69,25,Memory,1,,,,,,,sunaalcrrdbjgdztbiz.jpg,,,,,,,,,,,,,,,
70,25,Memory,1,,,,,,,00911960530fa.jpg,,,,,,,,,,,,,,,
71,25,Memory,1,,,,,,,00743941201fa.jpg,,,,,,,,,,,,,,,
72,25,Memory,1,,,,,,,sunahawfngukizslzsd.jpg,,,,,,,,,,,,,,,
73,25,Memory,1,,,,,,,sunaanlwnpqndclffxt.jpg,,,,,,,,,,,,,,,
74,25,Memory,1,,,,,,,sunbprywzqxjcezkbch.jpg,,,,,,,,,,,,,,,
75,25,Memory,1,,,,,,,00123931230fb.jpg,,,,,,,,,,,,,,,
76,25,Memory,1,,,,,,,00996960627fa.jpg,,,,,,,,,,,,,,,
77,25,Memory,1,,,,,,,sunabwfvcqqidycwypa.jpg,,,,,,,,,,,,,,,
78,25,Memory,1,,,,,,,00077931230fb.jpg,,,,,,,,,,,,,,,
79,25,Memory,1,,,,,,,sunaaekxzjzrfgtkwjf.jpg,,,,,,,,,,,,,,,
80,25,Memory,1,,,,,,,sunaooaqzputrowwbsw.jpg,,,,,,,,,,,,,,,
81,25,Memory,1,,,,,,,00498960627fa.jpg,,,,,,,,,,,,,,,
82,25,Memory,1,,,,,,,00933960627fa.jpg,,,,,,,,,,,,,,,
83,25,Memory,1,,,,,,,00540940519fa.jpg,,,,,,,,,,,,,,,
84,25,Memory,1,,,,,,,00922960627fa.jpg,,,,,,,,,,,,,,,
85,25,Memory,1,,,,,,,00305940422fa.jpg,,,,,,,,,,,,,,,
86,25,Memory,1,,,,,,,sunapwjkcxdaeqehfql.jpg,,,,,,,,,,,,,,,
87,25,Memory,1,,,,,,,sunahuynahneraqftyz.jpg,,,,,,,,,,,,,,,
88,25,Memory,1,,,,,,,00630940928fa.jpg,,,,,,,,,,,,,,,
89,25,Memory,1,,,,,,,sunacdnquypmsshhsbk.jpg,,,,,,,,,,,,,,,
90,25,Memory,1,,,,,,,sunbfzchmomnvzhbxdg.jpg,,,,,,,,,,,,,,,
91,25,Memory,1,,,,,,,00308940422fb.jpg,,,,,,,,,,,,,,,
92,25,Memory,1,,,,,,,sunaeoghzrjarigmwua.jpg,,,,,,,,,,,,,,,
93,25,Memory,1,,,,,,,00993960627fa.jpg,,,,,,,,,,,,,,,
94,25,Memory,1,,,,,,,00638941031fa.jpg,,,,,,,,,,,,,,,
95,25,Memory,1,,,,,,,sunagoufulkpsxrmklt.jpg,,,,,,,,,,,,,,,
96,25,Memory,1,,,,,,,00807941205fa.jpg,,,,,,,,,,,,,,,
97,25,Memory,1,,,,,,,sunbpvgllfdejxcpjqp.jpg,,,,,,,,,,,,,,,
98,25,Memory,1,,,,,,,sunaczwgyukesaajxnx.jpg,,,,,,,,,,,,,,,
99,25,Memory,1,,,,,,,sunabzjxlmkwnwzimua.jpg,,,,,,,,,,,,,,,
100,25,Presentation,2,00292940422fb_sunabrjdpmoedcdjbpo.jpg,00631940928fa_sunadbdqzigzwipuipr.jpg,00292940422fb.jpg,sunabrjdpmoedcdjbpo.jpg,00631940928fa.jpg,sunadbdqzigzwipuipr.jpg,,,>,Place,,,,,1,,,,,,,x
101,25,Presentation,2,00239940128fa_sunabctlikybqabezjv.jpg,00060931230fa_sunaaehaikpckyjsety.jpg,00239940128fa.jpg,sunabctlikybqabezjv.jpg,00060931230fa.jpg,sunaaehaikpckyjsety.jpg,,,<,Place,,,,,1,,,,,,,x
102,25,Presentation,2,00636941031fa_sunaddtdkycxbqlpfqa.jpg,00779941205fa_sunagdzlvkqtpnfxfcg.jpg,00636941031fa.jpg,sunaddtdkycxbqlpfqa.jpg,00779941205fa.jpg,sunagdzlvkqtpnfxfcg.jpg,,,>,Face,,,,,1,,,,,,,x
103,25,Presentation,2,00481940519fa_sunabxsuqbleluwczoy.jpg,00093931230fa_sunaahwnmtqsrhocysw.jpg,00481940519fa.jpg,sunabxsuqbleluwczoy.jpg,00093931230fa.jpg,sunaahwnmtqsrhocysw.jpg,,,<,Face,,,,,1,,,,,,,x
104,25,Presentation,2,00576941031fa_sunacvjlsylseoghjup.jpg,00598940928fa_sunacxeheuiigkcgquf.jpg,00576941031fa.jpg,sunacvjlsylseoghjup.jpg,00598940928fa.jpg,sunacxeheuiigkcgquf.jpg,,,>,Face,,,,,1,,,,,,,o
105,25,Presentation,2,00120931230fa_sunaakxgygjfqrzpyoz.jpg,00901960530fa_sunammbnoambmhdxdwd.jpg,00120931230fa.jpg,sunaakxgygjfqrzpyoz.jpg,00901960530fa.jpg,sunammbnoambmhdxdwd.jpg,,,<,Place,,,,,1,,,,,,,x
106,25,Presentation,2,00936960627fa_sunaqgjuuwvdcyiccjt.jpg,00969960627fa_sunbaoizrfijvhpnnjn.jpg,00936960627fa.jpg,sunaqgjuuwvdcyiccjt.jpg,00969960627fa.jpg,sunbaoizrfijvhpnnjn.jpg,,,<,Place,,,,,1,,,,,,,x
107,25,Presentation,2,00957960627fa_sunavhxgmgrqsaptynb.jpg,00909960530_sunaobtizabegtwfwul.jpg,00957960627fa.jpg,sunavhxgmgrqsaptynb.jpg,00909960530.jpg,sunaobtizabegtwfwul.jpg,,,>,Place,,,,,1,,,,,,,o
108,25,Presentation,2,01004960627fa_sunbwtlihsuptkrckid.jpg,00963960627fa_sunayaepykrqvenaqqy.jpg,01004960627fa.jpg,sunbwtlihsuptkrckid.jpg,00963960627fa.jpg,sunayaepykrqvenaqqy.jpg,,,<,Face,,,,,1,,,,,,,o
109,25,Presentation,2,00069931230fb_sunaaeowapdkwzqpgqr.jpg,00810941205fa_sunahctntqrunhdxhtb.jpg,00069931230fb.jpg,sunaaeowapdkwzqpgqr.jpg,00810941205fa.jpg,sunahctntqrunhdxhtb.jpg,,,>,Face,,,,,1,,,,,,,o
110,25,Memory,2,,,,,,,00093931230fa.jpg,,,,,,,,,,,,,,,
111,25,Memory,2,,,,,,,sunabxsbfwjccqxxzxq.jpg,,,,,,,,,,,,,,,
112,25,Memory,2,,,,,,,sunaafjszryxyavjzln.jpg,,,,,,,,,,,,,,,
113,25,Memory,2,,,,,,,00576941031fa.jpg,,,,,,,,,,,,,,,
114,25,Memory,2,,,,,,,sunbwdrdvsweerwsdrj.jpg,,,,,,,,,,,,,,,
115,25,Memory,2,,,,,,,sunaejnvnpltdmhbcsi.jpg,,,,,,,,,,,,,,,
116,25,Memory,2,,,,,,,sunacxeheuiigkcgquf.jpg,,,,,,,,,,,,,,,
117,25,Memory,2,,,,,,,sunagvprlbprarvgdvj.jpg,,,,,,,,,,,,,,,
118,25,Memory,2,,,,,,,01003960627fb.jpg,,,,,,,,,,,,,,,
119,25,Memory,2,,,,,,,sunaahwnmtqsrhocysw.jpg,,,,,,,,,,,,,,,
120,25,Memory,2,,,,,,,00728941205fa.jpg,,,,,,,,,,,,,,,
121,25,Memory,2,,,,,,,00481940519fa.jpg,,,,,,,,,,,,,,,
122,25,Memory,2,,,,,,,00773941201fa.jpg,,,,,,,,,,,,,,,
123,25,Memory,2,,,,,,,00776941205fa.jpg,,,,,,,,,,,,,,,
124,25,Memory,2,,,,,,,sunavhxgmgrqsaptynb.jpg,,,,,,,,,,,,,,,
125,25,Memory,2,,,,,,,sunaaehaikpckyjsety.jpg,,,,,,,,,,,,,,,
126,25,Memory,2,,,,,,,sunabrjdpmoedcdjbpo.jpg,,,,,,,,,,,,,,,
127,25,Memory,2,,,,,,,00801941205fa.jpg,,,,,,,,,,,,,,,
128,25,Memory,2,,,,,,,sunafxokyavhgptyfye.jpg,,,,,,,,,,,,,,,
129,25,Memory,2,,,,,,,sunafvcflzhlqloapyo.jpg,,,,,,,,,,,,,,,
130,25,Memory,2,,,,,,,sunahctntqrunhdxhtb.jpg,,,,,,,,,,,,,,,
131,25,Memory,2,,,,,,,sunaakmxzhuceuiryah.jpg,,,,,,,,,,,,,,,
132,25,Memory,2,,,,,,,00810941205fa.jpg,,,,,,,,,,,,,,,
133,25,Memory,2,,,,,,,sunbwtlihsuptkrckid.jpg,,,,,,,,,,,,,,,
134,25,Memory,2,,,,,,,sunabppokiyglaxpcha.jpg,,,,,,,,,,,,,,,
135,25,Memory,2,,,,,,,00766960620fa.jpg,,,,,,,,,,,,,,,
136,25,Memory,2,,,,,,,sunafijbgncijwykrnl.jpg,,,,,,,,,,,,,,,
137,25,Memory,2,,,,,,,00288940422fa.jpg,,,,,,,,,,,,,,,
138,25,Memory,2,,,,,,,01004960627fa.jpg,,,,,,,,,,,,,,,
139,25,Memory,2,,,,,,,sunabxsuqbleluwczoy.jpg,,,,,,,,,,,,,,,
140,25,Memory,2,,,,,,,00292940422fb.jpg,,,,,,,,,,,,,,,
141,25,Memory,2,,,,,,,00598940928fa.jpg,,,,,,,,,,,,,,,
142,25,Memory,2,,,,,,,00969960627fa.jpg,,,,,,,,,,,,,,,
143,25,Memory,2,,,,,,,00479940519fa.jpg,,,,,,,,,,,,,,,
144,25,Memory,2,,,,,,,00957960627fa.jpg,,,,,,,,,,,,,,,
145,25,Memory,2,,,,,,,sunacvjlsylseoghjup.jpg,,,,,,,,,,,,,,,
146,25,Memory,2,,,,,,,sunbaoizrfijvhpnnjn.jpg,,,,,,,,,,,,,,,
147,25,Memory,2,,,,,,,00060931230fa.jpg,,,,,,,,,,,,,,,
148,25,Memory,2,,,,,,,00115931230fa.jpg,,,,,,,,,,,,,,,
149,25,Memory,2,,,,,,,00080931230fb.jpg,,,,,,,,,,,,,,,
150,25,Presentation,3,00919960620fa_sunapmfmzadmosuogaz.jpg,00859940307fa_sunaiycurtqsfkvcaso.jpg,00919960620fa.jpg,sunapmfmzadmosuogaz.jpg,00859940307fa.jpg,sunaiycurtqsfkvcaso.jpg,,,>,Place,,,,,1,,,,,,,o
151,25,Presentation,3,00796941205fa_sunaguchqqnrtodtezq.jpg,00532960627fa_sunaccdtpgenvcbcbcf.jpg,00796941205fa.jpg,sunaguchqqnrtodtezq.jpg,00532960627fa.jpg,sunaccdtpgenvcbcbcf.jpg,,,<,Face,,,,,1,,,,,,,o
152,25,Presentation,3,00921960627fa_sunapqkpqdfvxlbqwyo.jpg,00914960620fa_sunaozisvwfbmlkfhzv.jpg,00921960627fa.jpg,sunapqkpqdfvxlbqwyo.jpg,00914960620fa.jpg,sunaozisvwfbmlkfhzv.jpg,,,>,Face,,,,,1,,,,,,,x
153,25,Presentation,3,00819940307fa_sunahqldjibofgsfdgb.jpg,00876960620fa_sunajwqkfsykceonyig.jpg,00819940307fa.jpg,sunahqldjibofgsfdgb.jpg,00876960620fa.jpg,sunajwqkfsykceonyig.jpg,,,<,Place,,,,,1,,,,,,,x
154,25,Presentation,3,00965960627fa_sunaydywdmvlfddbxbk.jpg,00065931230fb_sunaaemixhfquhnxxlm.jpg,00965960627fa.jpg,sunaydywdmvlfddbxbk.jpg,00065931230fb.jpg,sunaaemixhfquhnxxlm.jpg,,,>,Face,,,,,0,,,,,,,x
155,25,Presentation,3,00790941205fa_sunagpjzsbltchlwvou.jpg,00938960627fa_sunaqyylsngywqzwfmx.jpg,00790941205fa.jpg,sunagpjzsbltchlwvou.jpg,00938960627fa.jpg,sunaqyylsngywqzwfmx.jpg,,,>,Place,,,,,1,,,,,,,o
156,25,Presentation,3,00866940307fa_sunajbwkywmsqkldfml.jpg,01002960627fb_sunbwaafjdebjzttuvq.jpg,00866940307fa.jpg,sunajbwkywmsqkldfml.jpg,01002960627fb.jpg,sunbwaafjdebjzttuvq.jpg,,,<,Face,,,,,0,,,,,,,x
157,25,Presentation,3,00841940307fa_sunaisiwfgppimtnmxl.jpg,00882960530fa_sunaknlirqjqiwbbeeg.jpg,00841940307fa.jpg,sunaisiwfgppimtnmxl.jpg,00882960530fa.jpg,sunaknlirqjqiwbbeeg.jpg,,,<,Face,,,,,1,,,,,,,x
158,25,Presentation,3,00939960627fa_sunarceibpcyacbmfga.jpg,00191940128fb_sunaawsdjisukbbginm.jpg,00939960627fa.jpg,sunarceibpcyacbmfga.jpg,00191940128fb.jpg,sunaawsdjisukbbginm.jpg,,,<,Place,,,,,1,,,,,,,x
159,25,Presentation,3,00727941205fa_sunaeisnjeetzmkbuad.jpg,00874940307fa_sunajtrfunvzdfticna.jpg,00727941205fa.jpg,sunaeisnjeetzmkbuad.jpg,00874940307fa.jpg,sunajtrfunvzdfticna.jpg,,,>,Place,,,,,1,,,,,,,o
160,25,Memory,3,,,,,,,00086931230fa.jpg,,,,,,,,,,,,,,,
161,25,Memory,3,,,,,,,00796941205fa.jpg,,,,,,,,,,,,,,,
162,25,Memory,3,,,,,,,00961960627fa.jpg,,,,,,,,,,,,,,,
163,25,Memory,3,,,,,,,00723941201fa.jpg,,,,,,,,,,,,,,,
164,25,Memory,3,,,,,,,sunaqyylsngywqzwfmx.jpg,,,,,,,,,,,,,,,
165,25,Memory,3,,,,,,,sunadrmfzmstgdjdcod.jpg,,,,,,,,,,,,,,,
166,25,Memory,3,,,,,,,sunaknlirqjqiwbbeeg.jpg,,,,,,,,,,,,,,,
167,25,Memory,3,,,,,,,00725941201fa.jpg,,,,,,,,,,,,,,,
168,25,Memory,3,,,,,,,00882960530fa.jpg,,,,,,,,,,,,,,,
169,25,Memory,3,,,,,,,00804960530fa.jpg,,,,,,,,,,,,,,,
170,25,Memory,3,,,,,,,00191940128fb.jpg,,,,,,,,,,,,,,,
171,25,Memory,3,,,,,,,00876960620fa.jpg,,,,,,,,,,,,,,,
172,25,Memory,3,,,,,,,00965960627fa.jpg,,,,,,,,,,,,,,,
173,25,Memory,3,,,,,,,sunaefgzwiramypjvtd.jpg,,,,,,,,,,,,,,,
174,25,Memory,3,,,,,,,sunahqldjibofgsfdgb.jpg,,,,,,,,,,,,,,,
175,25,Memory,3,,,,,,,00874940307fa.jpg,,,,,,,,,,,,,,,
176,25,Memory,3,,,,,,,00097931230fa.jpg,,,,,,,,,,,,,,,
177,25,Memory,3,,,,,,,00938960627fa.jpg,,,,,,,,,,,,,,,
178,25,Memory,3,,,,,,,sunaawsdjisukbbginm.jpg,,,,,,,,,,,,,,,
179,25,Memory,3,,,,,,,sunaenwuebvlpdmntju.jpg,,,,,,,,,,,,,,,
180,25,Memory,3,,,,,,,sunapqkpqdfvxlbqwyo.jpg,,,,,,,,,,,,,,,
181,25,Memory,3,,,,,,,sunaedtgwjvvziytspa.jpg,,,,,,,,,,,,,,,
182,25,Memory,3,,,,,,,sunaguchqqnrtodtezq.jpg,,,,,,,,,,,,,,,
183,25,Memory,3,,,,,,,sunajtrfunvzdfticna.jpg,,,,,,,,,,,,,,,
184,25,Memory,3,,,,,,,sunaydywdmvlfddbxbk.jpg,,,,,,,,,,,,,,,
185,25,Memory,3,,,,,,,00819940307fa.jpg,,,,,,,,,,,,,,,
186,25,Memory,3,,,,,,,00892960530fa.jpg,,,,,,,,,,,,,,,
187,25,Memory,3,,,,,,,00979960627fa.jpg,,,,,,,,,,,,,,,
188,25,Memory,3,,,,,,,00866940307fa.jpg,,,,,,,,,,,,,,,
189,25,Memory,3,,,,,,,sunaajayojuslbbnneg.jpg,,,,,,,,,,,,,,,
190,25,Memory,3,,,,,,,sunajwqkfsykceonyig.jpg,,,,,,,,,,,,,,,
191,25,Memory,3,,,,,,,00921960627fa.jpg,,,,,,,,,,,,,,,
192,25,Memory,3,,,,,,,sunawotxrevnqvamsfp.jpg,,,,,,,,,,,,,,,
193,25,Memory,3,,,,,,,sunaafynehyrzpsoaml.jpg,,,,,,,,,,,,,,,
194,25,Memory,3,,,,,,,sunbdycacjfaujxitbw.jpg,,,,,,,,,,,,,,,
195,25,Memory,3,,,,,,,00694941121fa.jpg,,,,,,,,,,,,,,,
196,25,Memory,3,,,,,,,00742941201fa.jpg,,,,,,,,,,,,,,,
197,25,Memory,3,,,,,,,sunajbwkywmsqkldfml.jpg,,,,,,,,,,,,,,,
198,25,Memory,3,,,,,,,sunagwswhkvnsmuszlz.jpg,,,,,,,,,,,,,,,
199,25,Memory,3,,,,,,,sunalntxqqadigcletd.jpg,,,,,,,,,,,,,,,
200,25,Presentation,4,00770941201fa_sunaflojskatpeqyzqp.jpg,00090931230fa_sunaahedjlmtqekgyvj.jpg,00770941201fa.jpg,sunaflojskatpeqyzqp.jpg,00090931230fa.jpg,sunaahedjlmtqekgyvj.jpg,,,<,Place,,,,,1,,,,,,,o
201,25,Presentation,4,00483940519fa_sunabyvpwkgsjtijdwj.jpg,00306940422fa_sunabueyoajufbkraki.jpg,00483940519fa.jpg,sunabyvpwkgsjtijdwj.jpg,00306940422fa.jpg,sunabueyoajufbkraki.jpg,,,<,Place,,,,,1,,,,,,,x
202,25,Presentation,4,00221940128fa_sunabcfpwlpolnutyju.jpg,00130931230fa_sunaamvxnvouicstkjb.jpg,00221940128fa.jpg,sunabcfpwlpolnutyju.jpg,00130931230fa.jpg,sunaamvxnvouicstkjb.jpg,,,>,Place,,,,,1,,,,,,,x
203,25,Presentation,4,00925960627fa_sunapqwnqzxlsfvgsjm.jpg,00782941205fa_sunagfvluwixdsozaql.jpg,00925960627fa.jpg,sunapqwnqzxlsfvgsjm.jpg,00782941205fa.jpg,sunagfvluwixdsozaql.jpg,,,>,Face,,,,,1,,,,,,,x
204,25,Presentation,4,00839940307fa_sunaipyohrqlwngaqif.jpg,00746941201fa_sunaetydippjxikifsb.jpg,00839940307fa.jpg,sunaipyohrqlwngaqif.jpg,00746941201fa.jpg,sunaetydippjxikifsb.jpg,,,>,Place,,,,,1,,,,,,,x
205,25,Presentation,4,00913960530fa_sunaooffzffbhcpirmm.jpg,00609940928fa_sunacycdoztxoluxjyk.jpg,00913960530fa.jpg,sunaooffzffbhcpirmm.jpg,00609940928fa.jpg,sunacycdoztxoluxjyk.jpg,,,<,Face,,,,,0,,,,,,,x
206,25,Presentation,4,00063931230fa_sunaaelyvurpntclgau.jpg,00958960627fa_sunavspxmxubqaeidjt.jpg,00063931230fa.jpg,sunaaelyvurpntclgau.jpg,00958960627fa.jpg,sunavspxmxubqaeidjt.jpg,,,<,Face,,,,,1,,,,,,,o
207,25,Presentation,4,00780960530fa_sunagetqixeypsysbpn.jpg,01011960627fa_sundahdxwmcdluscvot.jpg,00780960530fa.jpg,sunagetqixeypsysbpn.jpg,01011960627fa.jpg,sundahdxwmcdluscvot.jpg,,,>,Place,,,,,0,,,,,,,o
208,25,Presentation,4,00313940422fa_sunabwjvmoaddlyxfjr.jpg,00822940307fa_sunahqrxievfeusiqlt.jpg,00313940422fa.jpg,sunabwjvmoaddlyxfjr.jpg,00822940307fa.jpg,sunahqrxievfeusiqlt.jpg,,,>,Face,,,,,1,,,,,,,x
209,25,Presentation,4,00124931230fa_sunaalhlvzmjmitybdn.jpg,00146960620fb_sunaatpeezlljqaxlhj.jpg,00124931230fa.jpg,sunaalhlvzmjmitybdn.jpg,00146960620fb.jpg,sunaatpeezlljqaxlhj.jpg,,,<,Face,,,,,1,,,,,,,o
210,25,Memory,4,,,,,,,00902960530fa.jpg,,,,,,,,,,,,,,,
211,25,Memory,4,,,,,,,00081941031fa.jpg,,,,,,,,,,,,,,,
212,25,Memory,4,,,,,,,00858940307fa.jpg,,,,,,,,,,,,,,,
213,25,Memory,4,,,,,,,00839940307fa.jpg,,,,,,,,,,,,,,,
214,25,Memory,4,,,,,,,sunaahedjlmtqekgyvj.jpg,,,,,,,,,,,,,,,
215,25,Memory,4,,,,,,,00221940128fa.jpg,,,,,,,,,,,,,,,
216,25,Memory,4,,,,,,,00505960627fa.jpg,,,,,,,,,,,,,,,
217,25,Memory,4,,,,,,,00124931230fa.jpg,,,,,,,,,,,,,,,
218,25,Memory,4,,,,,,,sunanaacmmosxrfwmvl.jpg,,,,,,,,,,,,,,,
219,25,Memory,4,,,,,,,sunagfvluwixdsozaql.jpg,,,,,,,,,,,,,,,
220,25,Memory,4,,,,,,,00130931230fa.jpg,,,,,,,,,,,,,,,
221,25,Memory,4,,,,,,,00146960620fb.jpg,,,,,,,,,,,,,,,
222,25,Memory,4,,,,,,,sunaamvxnvouicstkjb.jpg,,,,,,,,,,,,,,,
223,25,Memory,4,,,,,,,00090931230fa.jpg,,,,,,,,,,,,,,,
224,25,Memory,4,,,,,,,sunabcfpwlpolnutyju.jpg,,,,,,,,,,,,,,,
225,25,Memory,4,,,,,,,sunaatpeezlljqaxlhj.jpg,,,,,,,,,,,,,,,
226,25,Memory,4,,,,,,,sunabyvpwkgsjtijdwj.jpg,,,,,,,,,,,,,,,
227,25,Memory,4,,,,,,,00818940307fa.jpg,,,,,,,,,,,,,,,
228,25,Memory,4,,,,,,,sunaaftlyfudyzuhqzf.jpg,,,,,,,,,,,,,,,
229,25,Memory,4,,,,,,,sunaixpqndlwhwjtjek.jpg,,,,,,,,,,,,,,,
230,25,Memory,4,,,,,,,00782941205fa.jpg,,,,,,,,,,,,,,,
231,25,Memory,4,,,,,,,sunafgdqbclkwfocdhg.jpg,,,,,,,,,,,,,,,
232,25,Memory,4,,,,,,,sunahqrxievfeusiqlt.jpg,,,,,,,,,,,,,,,
233,25,Memory,4,,,,,,,sunacerqowiaeoqkmsq.jpg,,,,,,,,,,,,,,,
234,25,Memory,4,,,,,,,00122931230fa.jpg,,,,,,,,,,,,,,,
235,25,Memory,4,,,,,,,sunabzuqsrgcsonqlkz.jpg,,,,,,,,,,,,,,,
236,25,Memory,4,,,,,,,sunagtqhhwxjeuxdebe.jpg,,,,,,,,,,,,,,,
237,25,Memory,4,,,,,,,00885960530fa.jpg,,,,,,,,,,,,,,,
238,25,Memory,4,,,,,,,00483940519fa.jpg,,,,,,,,,,,,,,,
239,25,Memory,4,,,,,,,00822940307fa.jpg,,,,,,,,,,,,,,,
240,25,Memory,4,,,,,,,sunakwlvxjpddialozd.jpg,,,,,,,,,,,,,,,
241,25,Memory,4,,,,,,,sunapqwnqzxlsfvgsjm.jpg,,,,,,,,,,,,,,,
242,25,Memory,4,,,,,,,sunaipyohrqlwngaqif.jpg,,,,,,,,,,,,,,,
243,25,Memory,4,,,,,,,00925960627fa.jpg,,,,,,,,,,,,,,,
244,25,Memory,4,,,,,,,00548940519fa.jpg,,,,,,,,,,,,,,,
245,25,Memory,4,,,,,,,sunahpblecxtmuzkmxb.jpg,,,,,,,,,,,,,,,
246,25,Memory,4,,,,,,,sunaalhlvzmjmitybdn.jpg,,,,,,,,,,,,,,,
247,25,Memory,4,,,,,,,00794960620fa.jpg,,,,,,,,,,,,,,,
248,25,Memory,4,,,,,,,00761960627fa.jpg,,,,,,,,,,,,,,,
249,25,Memory,4,,,,,,,sunaakxjfbrrequcjmx.jpg,,,,,,,,,,,,,,,
250,25,Presentation,5,00990960627fa_sunbpflsdaxnddnwcqi.jpg,00955960627fb_sunauburywlkjszngcq.jpg,00990960627fa.jpg,sunbpflsdaxnddnwcqi.jpg,00955960627fb.jpg,sunauburywlkjszngcq.jpg,,,>,Place,,,,,1,,,,,,,x
251,25,Presentation,5,00193940928fa_sunaaxjpzcnxligjtjq.jpg,00944960627fa_sunasbbntuiheekqyaq.jpg,00193940928fa.jpg,sunaaxjpzcnxligjtjq.jpg,00944960627fa.jpg,sunasbbntuiheekqyaq.jpg,,,<,Place,,,,,1,,,,,,,o
252,25,Presentation,5,00854940307fa_sunaiwduelojtwaqeyh.jpg,00754941201fa_sunaffgsyyvoqdlkmnk.jpg,00854940307fa.jpg,sunaiwduelojtwaqeyh.jpg,00754941201fa.jpg,sunaffgsyyvoqdlkmnk.jpg,,,>,Place,,,,,1,,,,,,,o
253,25,Presentation,5,00211940128fa_sunabasphceswhwwqvv.jpg,00926960627Fa_sunapqwoeotxshkukbh.jpg,00211940128fa.jpg,sunabasphceswhwwqvv.jpg,00926960627Fa.jpg,sunapqwoeotxshkukbh.jpg,,,<,Face,,,,,0,,,,,,,x
254,25,Presentation,5,00096931230fa_sunaaiqiqcggrskoqgy.jpg,00778941205fa_sunagcthdfirrcawoic.jpg,00096931230fa.jpg,sunaaiqiqcggrskoqgy.jpg,00778941205fa.jpg,sunagcthdfirrcawoic.jpg,,,<,Place,,,,,1,,,,,,,x
255,25,Presentation,5,00787941205fa_sunagmwxxwymwojbvgi.jpg,00210940128fb_sunabanoxjtqxamkucc.jpg,00787941205fa.jpg,sunagmwxxwymwojbvgi.jpg,00210940128fb.jpg,sunabanoxjtqxamkucc.jpg,,,<,Face,,,,,1,,,,,,,x
256,25,Presentation,5,00838940307fa_sunaiozxhxgtfrmoagh.jpg,00158931230fb_sunaavchcbptaerhcfy.jpg,00838940307fa.jpg,sunaiozxhxgtfrmoagh.jpg,00158931230fb.jpg,sunaavchcbptaerhcfy.jpg,,,<,Face,,,,,1,,,,,,,o
257,25,Presentation,5,00071940128fa_sunaaexpnawiehinlpy.jpg,00076931230fa_sunaafewhewbxmjiurz.jpg,00071940128fa.jpg,sunaaexpnawiehinlpy.jpg,00076931230fa.jpg,sunaafewhewbxmjiurz.jpg,,,>,Face,,,,,1,,,,,,,x
258,25,Presentation,5,00098931230fa_sunaajpqmulidejvjsr.jpg,00270940422fb_sunabllobxadqcyttej.jpg,00098931230fa.jpg,sunaajpqmulidejvjsr.jpg,00270940422fb.jpg,sunabllobxadqcyttej.jpg,,,>,Face,,,,,1,,,,,,,x
259,25,Presentation,5,00999960627fa_sunbvbrvgbpanfrawft.jpg,00903960620fa_sunanainkqdvktzoxyl.jpg,00999960627fa.jpg,sunbvbrvgbpanfrawft.jpg,00903960620fa.jpg,sunanainkqdvktzoxyl.jpg,,,>,Place,,,,,1,,,,,,,o
260,25,Memory,5,,,,,,,00787941205fa.jpg,,,,,,,,,,,,,,,
261,25,Memory,5,,,,,,,sunaaxjpzcnxligjtjq.jpg,,,,,,,,,,,,,,,
262,25,Memory,5,,,,,,,sunaaiqiqcggrskoqgy.jpg,,,,,,,,,,,,,,,
263,25,Memory,5,,,,,,,sunagcthdfirrcawoic.jpg,,,,,,,,,,,,,,,
264,25,Memory,5,,,,,,,00096931230fa.jpg,,,,,,,,,,,,,,,
265,25,Memory,5,,,,,,,sunawksfbacycuhbrsc.jpg,,,,,,,,,,,,,,,
266,25,Memory,5,,,,,,,sunaafvitpexrpvumsa.jpg,,,,,,,,,,,,,,,
267,25,Memory,5,,,,,,,00836940307fa.jpg,,,,,,,,,,,,,,,
268,25,Memory,5,,,,,,,sunabllobxadqcyttej.jpg,,,,,,,,,,,,,,,
269,25,Memory,5,,,,,,,sunacwggadqsfpovdjv.jpg,,,,,,,,,,,,,,,
270,25,Memory,5,,,,,,,sunasbbntuiheekqyaq.jpg,,,,,,,,,,,,,,,
271,25,Memory,5,,,,,,,00082931230fa.jpg,,,,,,,,,,,,,,,
272,25,Memory,5,,,,,,,sunbmaiocftdtvnzgap.jpg,,,,,,,,,,,,,,,
273,25,Memory,5,,,,,,,00210940128fb.jpg,,,,,,,,,,,,,,,
274,25,Memory,5,,,,,,,sunadfndyrtqqiasoig.jpg,,,,,,,,,,,,,,,
275,25,Memory,5,,,,,,,00838940307fa.jpg,,,,,,,,,,,,,,,
276,25,Memory,5,,,,,,,00589940928fa.jpg,,,,,,,,,,,,,,,
277,25,Memory,5,,,,,,,sunabanoxjtqxamkucc.jpg,,,,,,,,,,,,,,,
278,25,Memory,5,,,,,,,00960960627fa.jpg,,,,,,,,,,,,,,,
279,25,Memory,5,,,,,,,sunaaelotvjgibjtjhs.jpg,,,,,,,,,,,,,,,
280,25,Memory,5,,,,,,,00971960627fa.jpg,,,,,,,,,,,,,,,
281,25,Memory,5,,,,,,,00944960627fa.jpg,,,,,,,,,,,,,,,
282,25,Memory,5,,,,,,,sunadqmjrhfjyuzyvdd.jpg,,,,,,,,,,,,,,,
283,25,Memory,5,,,,,,,00681941121fa.jpg,,,,,,,,,,,,,,,
284,25,Memory,5,,,,,,,sunacepzfrmtkiqonpy.jpg,,,,,,,,,,,,,,,
285,25,Memory,5,,,,,,,00648941031fa.jpg,,,,,,,,,,,,,,,
286,25,Memory,5,,,,,,,00543940519fa.jpg,,,,,,,,,,,,,,,
287,25,Memory,5,,,,,,,sunainqelldeebvxtcz.jpg,,,,,,,,,,,,,,,
288,25,Memory,5,,,,,,,00062931230fb.jpg,,,,,,,,,,,,,,,
289,25,Memory,5,,,,,,,00211940128fa.jpg,,,,,,,,,,,,,,,
290,25,Memory,5,,,,,,,sunabasphceswhwwqvv.jpg,,,,,,,,,,,,,,,
291,25,Memory,5,,,,,,,sunagmwxxwymwojbvgi.jpg,,,,,,,,,,,,,,,
292,25,Memory,5,,,,,,,00270940422fb.jpg,,,,,,,,,,,,,,,
293,25,Memory,5,,,,,,,00988960627fa.jpg,,,,,,,,,,,,,,,
294,25,Memory,5,,,,,,,sunbbegcweqnetpdlrh.jpg,,,,,,,,,,,,,,,
295,25,Memory,5,,,,,,,00955960627fb.jpg,,,,,,,,,,,,,,,
296,25,Memory,5,,,,,,,00193940928fa.jpg,,,,,,,,,,,,,,,
297,25,Memory,5,,,,,,,sunaiozxhxgtfrmoagh.jpg,,,,,,,,,,,,,,,
298,25,Memory,5,,,,,,,00778941205fa.jpg,,,,,,,,,,,,,,,
299,25,Memory,5,,,,,,,sunauburywlkjszngcq.jpg,,,,,,,,,,,,,,,
300,25,Presentation,6,00554940519fa_sunacfdkbsrughwqwtt.jpg,00942960627fa_sunarfdklgdnjgeqfjg.jpg,00554940519fa.jpg,sunacfdkbsrughwqwtt.jpg,00942960627fa.jpg,sunarfdklgdnjgeqfjg.jpg,,,<,Face,,,,,0,,,,,,,o
301,25,Presentation,6,00507940519fa_sunacacflqoyxhsqzhe.jpg,00290940422fa_sunabqowuarvqqcnipn.jpg,00507940519fa.jpg,sunacacflqoyxhsqzhe.jpg,00290940422fa.jpg,sunabqowuarvqqcnipn.jpg,,,<,Place,,,,,1,,,,,,,x
302,25,Presentation,6,00245940128fa_sunabeyhmxodahoieyk.jpg,00857940307fa_sunaiwfobocrruqznsv.jpg,00245940128fa.jpg,sunabeyhmxodahoieyk.jpg,00857940307fa.jpg,sunaiwfobocrruqznsv.jpg,,,<,Face,,,,,1,,,,,,,o
303,25,Presentation,6,00894960620fa_sunalqmfgeadpqsyzpd.jpg,00997960627fa_sunbtpilbhhbmhmeuzq.jpg,00894960620fa.jpg,sunalqmfgeadpqsyzpd.jpg,00997960627fa.jpg,sunbtpilbhhbmhmeuzq.jpg,,,>,Place,,,,,1,,,,,,,o
304,25,Presentation,6,00987960627fa_sunbloeoiozwjjsiamp.jpg,00564940928fa_sunacmpqqfbsvlzinzl.jpg,00987960627fa.jpg,sunbloeoiozwjjsiamp.jpg,00564940928fa.jpg,sunacmpqqfbsvlzinzl.jpg,,,<,Place,,,,,1,,,,,,,o
305,25,Presentation,6,00127931230fa_sunaampvucecsfbdafn.jpg,00209940128fb_sunabaergayifsgacxt.jpg,00127931230fa.jpg,sunaampvucecsfbdafn.jpg,00209940128fb.jpg,sunabaergayifsgacxt.jpg,,,>,Face,,,,,1,,,,,,,o
306,25,Presentation,6,00869940307fa_sunajoveqhiprwqgoco.jpg,00967960627fa_sunbaejotfklekvpxcz.jpg,00869940307fa.jpg,sunajoveqhiprwqgoco.jpg,00967960627fa.jpg,sunbaejotfklekvpxcz.jpg,,,<,Place,,,,,1,,,,,,,x
307,25,Presentation,6,00089931230fa_sunaagcpoejbuzyvddd.jpg,00559940519fa_sunacjkmnpawfzbyvae.jpg,00089931230fa.jpg,sunaagcpoejbuzyvddd.jpg,00559940519fa.jpg,sunacjkmnpawfzbyvae.jpg,,,>,Place,,,,,1,,,,,,,o
308,25,Presentation,6,00194940128fb_sunaayehfdqcyxggsej.jpg,00208940128fa_sunaazzyhbvqjpmazjq.jpg,00194940128fb.jpg,sunaayehfdqcyxggsej.jpg,00208940128fa.jpg,sunaazzyhbvqjpmazjq.jpg,,,>,Face,,,,,1,,,,,,,o
309,25,Presentation,6,00966960627fa_sunaygrtwrwfezqjizr.jpg,00895960530fa_sunamczizlzavhzhpay.jpg,00966960627fa.jpg,sunaygrtwrwfezqjizr.jpg,00895960530fa.jpg,sunamczizlzavhzhpay.jpg,,,>,Face,,,,,1,,,,,,,x
310,25,Memory,6,,,,,,,sunadtlxenqqxsyjvix.jpg,,,,,,,,,,,,,,,
311,25,Memory,6,,,,,,,00112931230fa.jpg,,,,,,,,,,,,,,,
312,25,Memory,6,,,,,,,sunacjkmnpawfzbyvae.jpg,,,,,,,,,,,,,,,
313,25,Memory,6,,,,,,,sunalqmfgeadpqsyzpd.jpg,,,,,,,,,,,,,,,
314,25,Memory,6,,,,,,,00290940422fa.jpg,,,,,,,,,,,,,,,
315,25,Memory,6,,,,,,,sunamczizlzavhzhpay.jpg,,,,,,,,,,,,,,,
316,25,Memory,6,,,,,,,00242940128fa.jpg,,,,,,,,,,,,,,,
317,25,Memory,6,,,,,,,sunbaejotfklekvpxcz.jpg,,,,,,,,,,,,,,,
318,25,Memory,6,,,,,,,sunachtuarilwyqnvjx.jpg,,,,,,,,,,,,,,,
319,25,Memory,6,,,,,,,sunajrujcsdxmfbssmc.jpg,,,,,,,,,,,,,,,
320,25,Memory,6,,,,,,,00871940307.jpg,,,,,,,,,,,,,,,
321,25,Memory,6,,,,,,,sunbasypfgzjtomktmu.jpg,,,,,,,,,,,,,,,
322,25,Memory,6,,,,,,,sunabqowuarvqqcnipn.jpg,,,,,,,,,,,,,,,
323,25,Memory,6,,,,,,,sunaaheqzstzxuadglu.jpg,,,,,,,,,,,,,,,
324,25,Memory,6,,,,,,,00507940519fa.jpg,,,,,,,,,,,,,,,
325,25,Memory,6,,,,,,,00089931230fa.jpg,,,,,,,,,,,,,,,
326,25,Memory,6,,,,,,,00967960627fa.jpg,,,,,,,,,,,,,,,
327,25,Memory,6,,,,,,,00705941205fa.jpg,,,,,,,,,,,,,,,
328,25,Memory,6,,,,,,,sunadzuvtmtmgupotmf.jpg,,,,,,,,,,,,,,,
329,25,Memory,6,,,,,,,00970960627fa.jpg,,,,,,,,,,,,,,,
330,25,Memory,6,,,,,,,00749941201fa.jpg,,,,,,,,,,,,,,,
331,25,Memory,6,,,,,,,sunabcuurugvxwparpk.jpg,,,,,,,,,,,,,,,
332,25,Memory,6,,,,,,,00906960530fa.jpg,,,,,,,,,,,,,,,
333,25,Memory,6,,,,,,,sunacacflqoyxhsqzhe.jpg,,,,,,,,,,,,,,,
334,25,Memory,6,,,,,,,sunaagcpoejbuzyvddd.jpg,,,,,,,,,,,,,,,
335,25,Memory,6,,,,,,,sunabeyhmxodahoieyk.jpg,,,,,,,,,,,,,,,
336,25,Memory,6,,,,,,,00554940519fa.jpg,,,,,,,,,,,,,,,
337,25,Memory,6,,,,,,,sunabaergayifsgacxt.jpg,,,,,,,,,,,,,,,
338,25,Memory,6,,,,,,,sunaeuvjbmdpknaqqaj.jpg,,,,,,,,,,,,,,,
339,25,Memory,6,,,,,,,00092931230fa.jpg,,,,,,,,,,,,,,,
340,25,Memory,6,,,,,,,00209940128fb.jpg,,,,,,,,,,,,,,,
341,25,Memory,6,,,,,,,00557940519fa.jpg,,,,,,,,,,,,,,,
342,25,Memory,6,,,,,,,00894960620fa.jpg,,,,,,,,,,,,,,,
343,25,Memory,6,,,,,,,00559940519fa.jpg,,,,,,,,,,,,,,,
344,25,Memory,6,,,,,,,00895960530fa.jpg,,,,,,,,,,,,,,,
345,25,Memory,6,,,,,,,00245940128fa.jpg,,,,,,,,,,,,,,,
346,25,Memory,6,,,,,,,sunantryfbloeaomfta.jpg,,,,,,,,,,,,,,,
347,25,Memory,6,,,,,,,00719960620fa.jpg,,,,,,,,,,,,,,,
348,25,Memory,6,,,,,,,sunaakjaacuzulqckgl.jpg,,,,,,,,,,,,,,,
349,25,Memory,6,,,,,,,sunacfdkbsrughwqwtt.jpg,,,,,,,,,,,,,,,
350,25,Presentation,7,00125931230fa_sunaalltyvjhbzhkmvg.jpg,00752960620fa_sunafbwnojpqeyzssoe.jpg,00125931230fa.jpg,sunaalltyvjhbzhkmvg.jpg,00752960620fa.jpg,sunafbwnojpqeyzssoe.jpg,,,>,Face,,,,,1,,,,,,,x
351,25,Presentation,7,00650941031fa_sunadikxpvqeabxrvvc.jpg,00943960627fa_sunarpsxqkduedrrzyi.jpg,00650941031fa.jpg,sunadikxpvqeabxrvvc.jpg,00943960627fa.jpg,sunarpsxqkduedrrzyi.jpg,,,<,Face,,,,,1,,,,,,,x
352,25,Presentation,7,00848940307fa_sunaivdylrawbmhryfp.jpg,00910960530fa_sunaofikylqtxphvdem.jpg,00848940307fa.jpg,sunaivdylrawbmhryfp.jpg,00910960530fa.jpg,sunaofikylqtxphvdem.jpg,,,>,Place,,,,,1,,,,,,,o
353,25,Presentation,7,00149931230fa_sunaauglwmctnkxyird.jpg,00905960530fa_sunanmoqeyprjjjfxjt.jpg,00149931230fa.jpg,sunaauglwmctnkxyird.jpg,00905960530fa.jpg,sunanmoqeyprjjjfxjt.jpg,,,>,Place,,,,,1,,,,,,,o
354,25,Presentation,7,00870940307fa_sunajrgtewnualfcerj.jpg,00959960627fa_sunavxokzybtomhbmvm.jpg,00870940307fa.jpg,sunajrgtewnualfcerj.jpg,00959960627fa.jpg,sunavxokzybtomhbmvm.jpg,,,<,Face,,,,,1,,,,,,,x
355,25,Presentation,7,00108960530fa_sunaajtnvzzpsjdzres.jpg,00263940128fb_sunabjuovqvyfuzvqwt.jpg,00108960530fa.jpg,sunaajtnvzzpsjdzres.jpg,00263940128fb.jpg,sunabjuovqvyfuzvqwt.jpg,,,>,Face,,,,,1,,,,,,,x
356,25,Presentation,7,00968960627fa_sunbagfpovqwbuexqdn.jpg,00116931230fa_sunaakqepfoeqomfgxf.jpg,00968960627fa.jpg,sunbagfpovqwbuexqdn.jpg,00116931230fa.jpg,sunaakqepfoeqomfgxf.jpg,,,<,Place,,,,,1,,,,,,,o
357,25,Presentation,7,00935960627fa_sunaqbmgkgqucajzrkp.jpg,00574940928fa_sunacvbrcejzwmcgnoq.jpg,00935960627fa.jpg,sunaqbmgkgqucajzrkp.jpg,00574940928fa.jpg,sunacvbrcejzwmcgnoq.jpg,,,>,Face,,,,,1,,,,,,,o
358,25,Presentation,7,00071941031fa_sunaaexqbtdswxrqjvz.jpg,00145931230fb_sunaatjesvdupctftmn.jpg,00071941031fa.jpg,sunaaexqbtdswxrqjvz.jpg,00145931230fb.jpg,sunaatjesvdupctftmn.jpg,,,<,Place,,,,,1,,,,,,,x
359,25,Presentation,7,00860940307fa_sunaizeyhvjzknwjudw.jpg,00835940307fa_sunaijsqpvodplbwxkf.jpg,00860940307fa.jpg,sunaizeyhvjzknwjudw.jpg,00835940307fa.jpg,sunaijsqpvodplbwxkf.jpg,,,<,Place,,,,,1,,,,,,,o
360,25,Memory,7,,,,,,,00730960620fa.jpg,,,,,,,,,,,,,,,
361,25,Memory,7,,,,,,,00263940128fb.jpg,,,,,,,,,,,,,,,
362,25,Memory,7,,,,,,,00959960627fa.jpg,,,,,,,,,,,,,,,
363,25,Memory,7,,,,,,,00218940128fa.jpg,,,,,,,,,,,,,,,
364,25,Memory,7,,,,,,,00860940307fa.jpg,,,,,,,,,,,,,,,
365,25,Memory,7,,,,,,,sunaajspcoepticvplv.jpg,,,,,,,,,,,,,,,
366,25,Memory,7,,,,,,,sunaizeyhvjzknwjudw.jpg,,,,,,,,,,,,,,,
367,25,Memory,7,,,,,,,sunaawqdbpihmlbwyyn.jpg,,,,,,,,,,,,,,,
368,25,Memory,7,,,,,,,00793941205fa.jpg,,,,,,,,,,,,,,,
369,25,Memory,7,,,,,,,sunaauglwmctnkxyird.jpg,,,,,,,,,,,,,,,
370,25,Memory,7,,,,,,,00809960620fa.jpg,,,,,,,,,,,,,,,
371,25,Memory,7,,,,,,,sunaajtnvzzpsjdzres.jpg,,,,,,,,,,,,,,,
372,25,Memory,7,,,,,,,sunagcinxkccdtrjmlv.jpg,,,,,,,,,,,,,,,
373,25,Memory,7,,,,,,,sunagtjwilqjvxohypn.jpg,,,,,,,,,,,,,,,
374,25,Memory,7,,,,,,,sunbfyvfqiimvdaxlqn.jpg,,,,,,,,,,,,,,,
375,25,Memory,7,,,,,,,00149931230fa.jpg,,,,,,,,,,,,,,,
376,25,Memory,7,,,,,,,sunavxokzybtomhbmvm.jpg,,,,,,,,,,,,,,,
377,25,Memory,7,,,,,,,00968960627fa.jpg,,,,,,,,,,,,,,,
378,25,Memory,7,,,,,,,00574940928fa.jpg,,,,,,,,,,,,,,,
379,25,Memory,7,,,,,,,00788941205fa.jpg,,,,,,,,,,,,,,,
380,25,Memory,7,,,,,,,00102931230fa.jpg,,,,,,,,,,,,,,,
381,25,Memory,7,,,,,,,sunacvbrcejzwmcgnoq.jpg,,,,,,,,,,,,,,,
382,25,Memory,7,,,,,,,00983960627fa.jpg,,,,,,,,,,,,,,,
383,25,Memory,7,,,,,,,00108960530fa.jpg,,,,,,,,,,,,,,,
384,25,Memory,7,,,,,,,sunbxzweleltykebgan.jpg,,,,,,,,,,,,,,,
385,25,Memory,7,,,,,,,sunaivdylrawbmhryfp.jpg,,,,,,,,,,,,,,,
386,25,Memory,7,,,,,,,01009960627fa.jpg,,,,,,,,,,,,,,,
387,25,Memory,7,,,,,,,00848940307fa.jpg,,,,,,,,,,,,,,,
388,25,Memory,7,,,,,,,sunaatjesvdupctftmn.jpg,,,,,,,,,,,,,,,
389,25,Memory,7,,,,,,,sunabbwggenhfbftyvi.jpg,,,,,,,,,,,,,,,
390,25,Memory,7,,,,,,,00185940422fb.jpg,,,,,,,,,,,,,,,
391,25,Memory,7,,,,,,,sunabjuovqvyfuzvqwt.jpg,,,,,,,,,,,,,,,
392,25,Memory,7,,,,,,,00145931230fb.jpg,,,,,,,,,,,,,,,
393,25,Memory,7,,,,,,,sunahbvlpavurqoxdeq.jpg,,,,,,,,,,,,,,,
394,25,Memory,7,,,,,,,sunaekgzpfilgjxpeyq.jpg,,,,,,,,,,,,,,,
395,25,Memory,7,,,,,,,sunagountlxpzkytsmp.jpg,,,,,,,,,,,,,,,
396,25,Memory,7,,,,,,,sunbagfpovqwbuexqdn.jpg,,,,,,,,,,,,,,,
397,25,Memory,7,,,,,,,sunanmoqeyprjjjfxjt.jpg,,,,,,,,,,,,,,,
398,25,Memory,7,,,,,,,00777941205fa.jpg,,,,,,,,,,,,,,,
399,25,Memory,7,,,,,,,00905960530fa.jpg,,,,,,,,,,,,,,,
