,Subject,Trial Type,Run,Cued Composite,Uncued Composite,Cued Face,Cued Place,Uncued Face,Uncued Place,Memory Image,Category,Cued Side,Cued Category,Attention Response Time (s),Familiarity Reaction Time (s),Familiarity Rating,Attention Level,Cue Validity,Post Invalid Cue,Pre Invalid Cue,Attention Button,Rating History,Stimulus Onset,Stimulus End,Attention Probe
0,10,Presentation,0,00115931230fa_sunaakmxzhuceuiryah.jpg,00265940128fb_sunabkmdplkdbvxriff.jpg,,,,,,,>,Face,,,,,1,,,,,,,x
1,10,Presentation,0,00887960530_sunalcrtwiycqobgelp.jpg,00885960530fa_sunakwlvxjpddialozd.jpg,,,,,,,>,Place,,,,,1,,,,,,,x
2,10,Presentation,0,00807941205fa_sunahawfngukizslzsd.jpg,00306940422fa_sunabueyoajufbkraki.jpg,,,,,,,<,Face,,,,,0,,,,,,,x
3,10,Presentation,0,00931960627fa_sunaptrqvaooxfvktvw.jpg,00921960627fa_sunapqkpqdfvxlbqwyo.jpg,,,,,,,<,Place,,,,,1,,,,,,,x
4,10,Presentation,0,00092931230fa_sunaaheqzstzxuadglu.jpg,00098931230fa_sunaajpqmulidejvjsr.jpg,,,,,,,>,Face,,,,,1,,,,,,,o
5,10,Presentation,0,00705941205fa_sunadtlxenqqxsyjvix.jpg,00529940519fa_sunacbeefkxpymwevpk.jpg,,,,,,,>,Place,,,,,1,,,,,,,o
6,10,Presentation,0,00725941201fa_sunaefgzwiramypjvtd.jpg,00140931230fb_sunaapllqyqlykszopd.jpg,,,,,,,<,Face,,,,,1,,,,,,,x
7,10,Presentation,0,00077931230fb_sunaafgqutfaishsxyu.jpg,00262940128fa_sunabizydfotqddlnjp.jpg,,,,,,,<,Place,,,,,1,,,,,,,x
8,10,Presentation,0,00138931230fa_sunaapfaivxqoynnwwp.jpg,00719941201fa_sunadvithllcgmfxsrn.jpg,,,,,,,>,Face,,,,,1,,,,,,,x
9,10,Presentation,0,00773941201fa_sunafvcflzhlqloapyo.jpg,00789960620fa_sunagpancjmxqfazssf.jpg,,,,,,,<,Place,,,,,1,,,,,,,o
10,10,Memory,0,,,,,,,00092931230fa.jpg,,,,,,,,,,,,,,,
11,10,Memory,0,,,,,,,sunabkmdplkdbvxriff.jpg,,,,,,,,,,,,,,,
12,10,Memory,0,,,,,,,sunadvithllcgmfxsrn.jpg,,,,,,,,,,,,,,,
13,10,Memory,0,,,,,,,00140931230fb.jpg,,,,,,,,,,,,,,,
14,10,Memory,0,,,,,,,sunbwyuesflwdpqtgoy.jpg,,,,,,,,,,,,,,,
15,10,Memory,0,,,,,,,00938960627fa.jpg,,,,,,,,,,,,,,,
16,10,Memory,0,,,,,,,00235940128fb.jpg,,,,,,,,,,,,,,,
17,10,Memory,0,,,,,,,01009960627fa.jpg,,,,,,,,,,,,,,,
18,10,Memory,0,,,,,,,00529940519fa.jpg,,,,,,,,,,,,,,,
19,10,Memory,0,,,,,,,00700941121fa.jpg,,,,,,,,,,,,,,,
20,10,Memory,0,,,,,,,sunaafgqutfaishsxyu.jpg,,,,,,,,,,,,,,,
21,10,Memory,0,,,,,,,00077931230fb.jpg,,,,,,,,,,,,,,,
22,10,Memory,0,,,,,,,00773941201fa.jpg,,,,,,,,,,,,,,,
23,10,Memory,0,,,,,,,sunadtlxenqqxsyjvix.jpg,,,,,,,,,,,,,,,
24,10,Memory,0,,,,,,,sunbbxkanhzjgbwyxqs.jpg,,,,,,,,,,,,,,,
25,10,Memory,0,,,,,,,sunaapllqyqlykszopd.jpg,,,,,,,,,,,,,,,
26,10,Memory,0,,,,,,,00977960627fa.jpg,,,,,,,,,,,,,,,
27,10,Memory,0,,,,,,,00120931230fa.jpg,,,,,,,,,,,,,,,
28,10,Memory,0,,,,,,,00098931230fa.jpg,,,,,,,,,,,,,,,
29,10,Memory,0,,,,,,,00265940128fb.jpg,,,,,,,,,,,,,,,
30,10,Memory,0,,,,,,,00719941201fa.jpg,,,,,,,,,,,,,,,
31,10,Memory,0,,,,,,,sunadsgmtznewzyasnk.jpg,,,,,,,,,,,,,,,
32,10,Memory,0,,,,,,,sunaajpqmulidejvjsr.jpg,,,,,,,,,,,,,,,
33,10,Memory,0,,,,,,,sunafvcflzhlqloapyo.jpg,,,,,,,,,,,,,,,
34,10,Memory,0,,,,,,,sunaivdjruhkrfywfed.jpg,,,,,,,,,,,,,,,
35,10,Memory,0,,,,,,,00834940307fa.jpg,,,,,,,,,,,,,,,
36,10,Memory,0,,,,,,,sunabclssnoeuigtawp.jpg,,,,,,,,,,,,,,,
37,10,Memory,0,,,,,,,sunabjzyxcjnmztdonj.jpg,,,,,,,,,,,,,,,
38,10,Memory,0,,,,,,,00705941205fa.jpg,,,,,,,,,,,,,,,
39,10,Memory,0,,,,,,,01005960627fa.jpg,,,,,,,,,,,,,,,
40,10,Memory,0,,,,,,,sunaptrqvaooxfvktvw.jpg,,,,,,,,,,,,,,,
41,10,Memory,0,,,,,,,sunaibnpvhkdpdnzcnz.jpg,,,,,,,,,,,,,,,
42,10,Memory,0,,,,,,,sunbxzweleltykebgan.jpg,,,,,,,,,,,,,,,
43,10,Memory,0,,,,,,,00931960627fa.jpg,,,,,,,,,,,,,,,
44,10,Memory,0,,,,,,,00264940128fb.jpg,,,,,,,,,,,,,,,
45,10,Memory,0,,,,,,,sunacbeefkxpymwevpk.jpg,,,,,,,,,,,,,,,
46,10,Memory,0,,,,,,,sunaakxgygjfqrzpyoz.jpg,,,,,,,,,,,,,,,
47,10,Memory,0,,,,,,,00847940307fa.jpg,,,,,,,,,,,,,,,
48,10,Memory,0,,,,,,,sunaaheqzstzxuadglu.jpg,,,,,,,,,,,,,,,
49,10,Memory,0,,,,,,,sunaqyylsngywqzwfmx.jpg,,,,,,,,,,,,,,,
50,10,Presentation,1,00554940519fa_sunacfdkbsrughwqwtt.jpg,00101931230fb_sunaajqmsaavkmgbsth.jpg,,,,,,,>,Face,,,,,1,,,,,,,x
51,10,Presentation,1,00784941205fb_sunagjzcrjvmxzqzljx.jpg,00949960627fb_sunasnqkkyhilqkxiqm.jpg,,,,,,,>,Place,,,,,1,,,,,,,o
52,10,Presentation,1,00901960530fa_sunammbnoambmhdxdwd.jpg,00766960620fa_sunafijbgncijwykrnl.jpg,,,,,,,>,Face,,,,,1,,,,,,,x
53,10,Presentation,1,00609940928fa_sunacycdoztxoluxjyk.jpg,00071941031fa_sunaaexqbtdswxrqjvz.jpg,,,,,,,<,Face,,,,,1,,,,,,,o
54,10,Presentation,1,00670941121fa_sunadochqcucscehsgk.jpg,00891960530fa_sunalkiibhqpxfamlll.jpg,,,,,,,<,Place,,,,,1,,,,,,,o
55,10,Presentation,1,00835940307fa_sunaijsqpvodplbwxkf.jpg,00957960627fa_sunavhxgmgrqsaptynb.jpg,,,,,,,>,Place,,,,,1,,,,,,,x
56,10,Presentation,1,00109931230fa_sunaajuzribjrizdshh.jpg,00990960627fa_sunbpflsdaxnddnwcqi.jpg,,,,,,,<,Face,,,,,1,,,,,,,x
57,10,Presentation,1,00892960530fa_sunalntxqqadigcletd.jpg,00989960627fa_sunbondbduabvijnmch.jpg,,,,,,,<,Place,,,,,1,,,,,,,o
58,10,Presentation,1,00208940128fa_sunaazzyhbvqjpmazjq.jpg,00950960627fa_sunasrjlmglmjzbmqxb.jpg,,,,,,,<,Face,,,,,1,,,,,,,o
59,10,Presentation,1,00720960620fa_sunaecpkgfewqqreqwe.jpg,00723941201fa_sunaedtgwjvvziytspa.jpg,,,,,,,>,Place,,,,,0,,,,,,,x
60,10,Memory,1,,,,,,,00950960627fa.jpg,,,,,,,,,,,,,,,
61,10,Memory,1,,,,,,,00193940928fa.jpg,,,,,,,,,,,,,,,
62,10,Memory,1,,,,,,,00957960627fa.jpg,,,,,,,,,,,,,,,
63,10,Memory,1,,,,,,,sunaazzyhbvqjpmazjq.jpg,,,,,,,,,,,,,,,
64,10,Memory,1,,,,,,,00670941121fa.jpg,,,,,,,,,,,,,,,
65,10,Memory,1,,,,,,,sunahedfrhtcwpneund.jpg,,,,,,,,,,,,,,,
66,10,Memory,1,,,,,,,sunasnqkkyhilqkxiqm.jpg,,,,,,,,,,,,,,,
67,10,Memory,1,,,,,,,sunasrjlmglmjzbmqxb.jpg,,,,,,,,,,,,,,,
68,10,Memory,1,,,,,,,sunavhxgmgrqsaptynb.jpg,,,,,,,,,,,,,,,
69,10,Memory,1,,,,,,,sunaprnrbmgkomdbchr.jpg,,,,,,,,,,,,,,,
70,10,Memory,1,,,,,,,sunabgfhvifeijihhjw.jpg,,,,,,,,,,,,,,,
71,10,Memory,1,,,,,,,sunagvjurcwdbixvnyi.jpg,,,,,,,,,,,,,,,
72,10,Memory,1,,,,,,,sunagjzcrjvmxzqzljx.jpg,,,,,,,,,,,,,,,
73,10,Memory,1,,,,,,,sunabcuurugvxwparpk.jpg,,,,,,,,,,,,,,,
74,10,Memory,1,,,,,,,00218940128fa.jpg,,,,,,,,,,,,,,,
75,10,Memory,1,,,,,,,sunaakjaacuzulqckgl.jpg,,,,,,,,,,,,,,,
76,10,Memory,1,,,,,,,00949960627fb.jpg,,,,,,,,,,,,,,,
77,10,Memory,1,,,,,,,sunaaxjpzcnxligjtjq.jpg,,,,,,,,,,,,,,,
78,10,Memory,1,,,,,,,00260940128fa.jpg,,,,,,,,,,,,,,,
79,10,Memory,1,,,,,,,00835940307fa.jpg,,,,,,,,,,,,,,,
80,10,Memory,1,,,,,,,sunaijsqpvodplbwxkf.jpg,,,,,,,,,,,,,,,
81,10,Memory,1,,,,,,,00800941205fb.jpg,,,,,,,,,,,,,,,
82,10,Memory,1,,,,,,,sunabbwggenhfbftyvi.jpg,,,,,,,,,,,,,,,
83,10,Memory,1,,,,,,,00811960530fa.jpg,,,,,,,,,,,,,,,
84,10,Memory,1,,,,,,,sunabckqabszusgcykj.jpg,,,,,,,,,,,,,,,
85,10,Memory,1,,,,,,,sunaecpkgfewqqreqwe.jpg,,,,,,,,,,,,,,,
86,10,Memory,1,,,,,,,sunadochqcucscehsgk.jpg,,,,,,,,,,,,,,,
87,10,Memory,1,,,,,,,sunafijbgncijwykrnl.jpg,,,,,,,,,,,,,,,
88,10,Memory,1,,,,,,,00112931230fa.jpg,,,,,,,,,,,,,,,
89,10,Memory,1,,,,,,,00784941205fb.jpg,,,,,,,,,,,,,,,
90,10,Memory,1,,,,,,,00766960620fa.jpg,,,,,,,,,,,,,,,
91,10,Memory,1,,,,,,,00208940128fa.jpg,,,,,,,,,,,,,,,
92,10,Memory,1,,,,,,,sunaajqmsaavkmgbsth.jpg,,,,,,,,,,,,,,,
93,10,Memory,1,,,,,,,00929960627fa.jpg,,,,,,,,,,,,,,,
94,10,Memory,1,,,,,,,00101931230fb.jpg,,,,,,,,,,,,,,,
95,10,Memory,1,,,,,,,00227940128fa.jpg,,,,,,,,,,,,,,,
96,10,Memory,1,,,,,,,sunabzjxlmkwnwzimua.jpg,,,,,,,,,,,,,,,
97,10,Memory,1,,,,,,,00720960620fa.jpg,,,,,,,,,,,,,,,
98,10,Memory,1,,,,,,,00242940128fa.jpg,,,,,,,,,,,,,,,
99,10,Memory,1,,,,,,,00498960627fa.jpg,,,,,,,,,,,,,,,
100,10,Presentation,2,01011960627fa_sundahdxwmcdluscvot.jpg,00779941205fa_sunagdzlvkqtpnfxfcg.jpg,,,,,,,<,Place,,,,,1,,,,,,,x
101,10,Presentation,2,00839940307fa_sunaipyohrqlwngaqif.jpg,00316940422fa_sunabxmguapjekttvwm.jpg,,,,,,,>,Place,,,,,1,,,,,,,x
102,10,Presentation,2,00080931230fb_sunaafjszryxyavjzln.jpg,01003960627fb_sunbwdrdvsweerwsdrj.jpg,,,,,,,<,Face,,,,,1,,,,,,,x
103,10,Presentation,2,00936960627fa_sunaqgjuuwvdcyiccjt.jpg,00294940422fb_sunabrlndkruqokhury.jpg,,,,,,,>,Place,,,,,1,,,,,,,o
104,10,Presentation,2,00969960627fa_sunbaoizrfijvhpnnjn.jpg,00972960627fa_sunbbfqwjpdxniyhies.jpg,,,,,,,<,Place,,,,,0,,,,,,,x
105,10,Presentation,2,00893960530Fa_sunaloffvbvysigxent.jpg,00782941205fa_sunagfvluwixdsozaql.jpg,,,,,,,>,Place,,,,,1,,,,,,,o
106,10,Presentation,2,00753941201fa_sunafcofuuzebuadceo.jpg,00130931230fa_sunaamvxnvouicstkjb.jpg,,,,,,,<,Face,,,,,0,,,,,,,x
107,10,Presentation,2,00571940928fa_sunacuatpqpqhyjhjqk.jpg,00880960530fa_sunakmnfgklupjijsgf.jpg,,,,,,,>,Face,,,,,1,,,,,,,x
108,10,Presentation,2,00557940519fa_sunachtuarilwyqnvjx.jpg,00874940307fa_sunajtrfunvzdfticna.jpg,,,,,,,<,Face,,,,,1,,,,,,,o
109,10,Presentation,2,00564940928fa_sunacmpqqfbsvlzinzl.jpg,00214940128fa_sunabbafjowbzcvbucc.jpg,,,,,,,>,Face,,,,,1,,,,,,,o
110,10,Memory,2,,,,,,,00919960620fa.jpg,,,,,,,,,,,,,,,
111,10,Memory,2,,,,,,,00294940422fb.jpg,,,,,,,,,,,,,,,
112,10,Memory,2,,,,,,,00803941205fa.jpg,,,,,,,,,,,,,,,
113,10,Memory,2,,,,,,,00507940519fa.jpg,,,,,,,,,,,,,,,
114,10,Memory,2,,,,,,,sunafcofuuzebuadceo.jpg,,,,,,,,,,,,,,,
115,10,Memory,2,,,,,,,sunaloffvbvysigxent.jpg,,,,,,,,,,,,,,,
116,10,Memory,2,,,,,,,00753941201fa.jpg,,,,,,,,,,,,,,,
117,10,Memory,2,,,,,,,sunabxmguapjekttvwm.jpg,,,,,,,,,,,,,,,
118,10,Memory,2,,,,,,,sunaaftlyfudyzuhqzf.jpg,,,,,,,,,,,,,,,
119,10,Memory,2,,,,,,,00185940422fb.jpg,,,,,,,,,,,,,,,
120,10,Memory,2,,,,,,,00876960620fa.jpg,,,,,,,,,,,,,,,
121,10,Memory,2,,,,,,,sunakmnfgklupjijsgf.jpg,,,,,,,,,,,,,,,
122,10,Memory,2,,,,,,,00969960627fa.jpg,,,,,,,,,,,,,,,
123,10,Memory,2,,,,,,,00089931230fa.jpg,,,,,,,,,,,,,,,
124,10,Memory,2,,,,,,,sunaawqdbpihmlbwyyn.jpg,,,,,,,,,,,,,,,
125,10,Memory,2,,,,,,,00136931230fb.jpg,,,,,,,,,,,,,,,
126,10,Memory,2,,,,,,,00745941205fa.jpg,,,,,,,,,,,,,,,
127,10,Memory,2,,,,,,,sunaezuszgtxnmsxdbk.jpg,,,,,,,,,,,,,,,
128,10,Memory,2,,,,,,,sunaeouogqolxvggaoq.jpg,,,,,,,,,,,,,,,
129,10,Memory,2,,,,,,,sunaamvxnvouicstkjb.jpg,,,,,,,,,,,,,,,
130,10,Memory,2,,,,,,,sundahdxwmcdluscvot.jpg,,,,,,,,,,,,,,,
131,10,Memory,2,,,,,,,00316940422fa.jpg,,,,,,,,,,,,,,,
132,10,Memory,2,,,,,,,01011960627fa.jpg,,,,,,,,,,,,,,,
133,10,Memory,2,,,,,,,00564940928fa.jpg,,,,,,,,,,,,,,,
134,10,Memory,2,,,,,,,sunaanptmsknhirrzed.jpg,,,,,,,,,,,,,,,
135,10,Memory,2,,,,,,,00880960530fa.jpg,,,,,,,,,,,,,,,
136,10,Memory,2,,,,,,,sunbbfqwjpdxniyhies.jpg,,,,,,,,,,,,,,,
137,10,Memory,2,,,,,,,sunabrlndkruqokhury.jpg,,,,,,,,,,,,,,,
138,10,Memory,2,,,,,,,sunajwqkfsykceonyig.jpg,,,,,,,,,,,,,,,
139,10,Memory,2,,,,,,,00130931230fa.jpg,,,,,,,,,,,,,,,
140,10,Memory,2,,,,,,,00751960620fa.jpg,,,,,,,,,,,,,,,
141,10,Memory,2,,,,,,,sunacmpqqfbsvlzinzl.jpg,,,,,,,,,,,,,,,
142,10,Memory,2,,,,,,,sunapmfmzadmosuogaz.jpg,,,,,,,,,,,,,,,
143,10,Memory,2,,,,,,,sunagvxkjokqimstxpe.jpg,,,,,,,,,,,,,,,
144,10,Memory,2,,,,,,,sunaagcpoejbuzyvddd.jpg,,,,,,,,,,,,,,,
145,10,Memory,2,,,,,,,00081941031fa.jpg,,,,,,,,,,,,,,,
146,10,Memory,2,,,,,,,sunbaoizrfijvhpnnjn.jpg,,,,,,,,,,,,,,,
147,10,Memory,2,,,,,,,sunacacflqoyxhsqzhe.jpg,,,,,,,,,,,,,,,
148,10,Memory,2,,,,,,,00972960627fa.jpg,,,,,,,,,,,,,,,
149,10,Memory,2,,,,,,,00893960530Fa.jpg,,,,,,,,,,,,,,,
150,10,Presentation,3,00263940128fb_sunabjuovqvyfuzvqwt.jpg,00620940928fa_sunacypmnujalygkunp.jpg,,,,,,,<,Face,,,,,1,,,,,,,o
151,10,Presentation,3,00559940519fa_sunacjkmnpawfzbyvae.jpg,00793941205fa_sunagtjwilqjvxohypn.jpg,,,,,,,>,Face,,,,,1,,,,,,,o
152,10,Presentation,3,00905960530fa_sunanmoqeyprjjjfxjt.jpg,00993960627fa_sunbprywzqxjcezkbch.jpg,,,,,,,<,Place,,,,,1,,,,,,,x
153,10,Presentation,3,00675941121fa_sunadoxcchtmsxewsau.jpg,00131931230fb_sunaangbuylfvckqqoo.jpg,,,,,,,<,Face,,,,,1,,,,,,,o
154,10,Presentation,3,00638941031fa_sunadfktsqjthoglcsm.jpg,00805941205fa_sunagwzdbtlixdhgolm.jpg,,,,,,,<,Place,,,,,1,,,,,,,o
155,10,Presentation,3,00777941205fa_sunagcinxkccdtrjmlv.jpg,00860940307fa_sunaizeyhvjzknwjudw.jpg,,,,,,,>,Place,,,,,1,,,,,,,x
156,10,Presentation,3,00783941205fa_sunagjeesomrwjsfqie.jpg,00986960627fa_sunbgzjryivyczuvkvm.jpg,,,,,,,>,Face,,,,,1,,,,,,,x
157,10,Presentation,3,00841940307fa_sunaisiwfgppimtnmxl.jpg,00877960530fa_sunajxpkuhbizeveguy.jpg,,,,,,,<,Place,,,,,1,,,,,,,x
158,10,Presentation,3,00825940307fa_sunahrltmuwbiehihpe.jpg,00568940928fa_sunacsdhbbsybcyxnel.jpg,,,,,,,>,Face,,,,,1,,,,,,,x
159,10,Presentation,3,00132931230fb_sunaanjcbzdvtvblsdy.jpg,00822940307fa_sunahqrxievfeusiqlt.jpg,,,,,,,>,Place,,,,,1,,,,,,,o
160,10,Memory,3,,,,,,,sunadoxcchtmsxewsau.jpg,,,,,,,,,,,,,,,
161,10,Memory,3,,,,,,,00675941121fa.jpg,,,,,,,,,,,,,,,
162,10,Memory,3,,,,,,,00895960530fa.jpg,,,,,,,,,,,,,,,
163,10,Memory,3,,,,,,,sunagwzdbtlixdhgolm.jpg,,,,,,,,,,,,,,,
164,10,Memory,3,,,,,,,sunacjkmnpawfzbyvae.jpg,,,,,,,,,,,,,,,
165,10,Memory,3,,,,,,,sunajxpkuhbizeveguy.jpg,,,,,,,,,,,,,,,
166,10,Memory,3,,,,,,,sunamczizlzavhzhpay.jpg,,,,,,,,,,,,,,,
167,10,Memory,3,,,,,,,sunaddsaeicthrfbkhe.jpg,,,,,,,,,,,,,,,
168,10,Memory,3,,,,,,,00267940128fb.jpg,,,,,,,,,,,,,,,
169,10,Memory,3,,,,,,,sunabwmcbaxwioksdgw.jpg,,,,,,,,,,,,,,,
170,10,Memory,3,,,,,,,sunajjxttslobudoqbv.jpg,,,,,,,,,,,,,,,
171,10,Memory,3,,,,,,,00783941205fa.jpg,,,,,,,,,,,,,,,
172,10,Memory,3,,,,,,,sunaanjcbzdvtvblsdy.jpg,,,,,,,,,,,,,,,
173,10,Memory,3,,,,,,,00877960530fa.jpg,,,,,,,,,,,,,,,
174,10,Memory,3,,,,,,,00620940928fa.jpg,,,,,,,,,,,,,,,
175,10,Memory,3,,,,,,,00314940422fa.jpg,,,,,,,,,,,,,,,
176,10,Memory,3,,,,,,,00568940928fa.jpg,,,,,,,,,,,,,,,
177,10,Memory,3,,,,,,,00263940128fb.jpg,,,,,,,,,,,,,,,
178,10,Memory,3,,,,,,,sunantryfbloeaomfta.jpg,,,,,,,,,,,,,,,
179,10,Memory,3,,,,,,,00785941205fa.jpg,,,,,,,,,,,,,,,
180,10,Memory,3,,,,,,,00589940928fa.jpg,,,,,,,,,,,,,,,
181,10,Memory,3,,,,,,,sunacypmnujalygkunp.jpg,,,,,,,,,,,,,,,
182,10,Memory,3,,,,,,,sunagjeesomrwjsfqie.jpg,,,,,,,,,,,,,,,
183,10,Memory,3,,,,,,,suncnkvbhypnivcohyx.jpg,,,,,,,,,,,,,,,
184,10,Memory,3,,,,,,,00805941205fa.jpg,,,,,,,,,,,,,,,
185,10,Memory,3,,,,,,,00906960530fa.jpg,,,,,,,,,,,,,,,
186,10,Memory,3,,,,,,,00132931230fb.jpg,,,,,,,,,,,,,,,
187,10,Memory,3,,,,,,,sunaglqunwuycxydmyu.jpg,,,,,,,,,,,,,,,
188,10,Memory,3,,,,,,,sunaangbuylfvckqqoo.jpg,,,,,,,,,,,,,,,
189,10,Memory,3,,,,,,,00868960307fa.jpg,,,,,,,,,,,,,,,
190,10,Memory,3,,,,,,,sunabjuovqvyfuzvqwt.jpg,,,,,,,,,,,,,,,
191,10,Memory,3,,,,,,,sunablfqiwfqomjarht.jpg,,,,,,,,,,,,,,,
192,10,Memory,3,,,,,,,00559940519fa.jpg,,,,,,,,,,,,,,,
193,10,Memory,3,,,,,,,sunacwggadqsfpovdjv.jpg,,,,,,,,,,,,,,,
194,10,Memory,3,,,,,,,01010960627fa.jpg,,,,,,,,,,,,,,,
195,10,Memory,3,,,,,,,sunbvbrvgbpanfrawft.jpg,,,,,,,,,,,,,,,
196,10,Memory,3,,,,,,,sunacsdhbbsybcyxnel.jpg,,,,,,,,,,,,,,,
197,10,Memory,3,,,,,,,00131931230fb.jpg,,,,,,,,,,,,,,,
198,10,Memory,3,,,,,,,00999960627fa.jpg,,,,,,,,,,,,,,,
199,10,Memory,3,,,,,,,00635941031fa.jpg,,,,,,,,,,,,,,,
200,10,Presentation,4,00124931230fa_sunaalhlvzmjmitybdn.jpg,00562941031fa_sunacjnahdmqfnjfwqx.jpg,,,,,,,>,Face,,,,,1,,,,,,,x
201,10,Presentation,4,00142931230fb_sunaapxkpvrhpjplsok.jpg,00796941205fa_sunaguchqqnrtodtezq.jpg,,,,,,,<,Place,,,,,1,,,,,,,x
202,10,Presentation,4,00576941031fa_sunacvjlsylseoghjup.jpg,00987960627fa_sunbloeoiozwjjsiamp.jpg,,,,,,,>,Place,,,,,1,,,,,,,x
203,10,Presentation,4,00983960627fa_sunbfyvfqiimvdaxlqn.jpg,00762941201fa_sunafgzgbisbopcyslr.jpg,,,,,,,>,Face,,,,,1,,,,,,,o
204,10,Presentation,4,00719960620fa_sunadzuvtmtmgupotmf.jpg,00866940307fa_sunajbwkywmsqkldfml.jpg,,,,,,,<,Face,,,,,1,,,,,,,x
205,10,Presentation,4,00728941205fa_sunaejnvnpltdmhbcsi.jpg,00634940928fa_sunadcphrizvfpljiqt.jpg,,,,,,,>,Face,,,,,1,,,,,,,o
206,10,Presentation,4,00647941031fa_sunadflbrkckmepztql.jpg,00741941201fa_sunaemcowdozyphwknd.jpg,,,,,,,<,Place,,,,,1,,,,,,,o
207,10,Presentation,4,00955960627fb_sunauburywlkjszngcq.jpg,00878960530fa_sunakgbnzxmfohgehnu.jpg,,,,,,,<,Face,,,,,1,,,,,,,x
208,10,Presentation,4,00935960627fa_sunaqbmgkgqucajzrkp.jpg,01207940128fa_sundbixjudsgeuuehrn.jpg,,,,,,,>,Place,,,,,1,,,,,,,o
209,10,Presentation,4,00129931230fb_sunaamsdyakblkfoydx.jpg,00961960627fa_sunawotxrevnqvamsfp.jpg,,,,,,,<,Place,,,,,1,,,,,,,o
210,10,Memory,4,,,,,,,00925960627fa.jpg,,,,,,,,,,,,,,,
211,10,Memory,4,,,,,,,sunaaeplwsfslcbtojr.jpg,,,,,,,,,,,,,,,
212,10,Memory,4,,,,,,,00961960627fa.jpg,,,,,,,,,,,,,,,
213,10,Memory,4,,,,,,,00754941201fa.jpg,,,,,,,,,,,,,,,
214,10,Memory,4,,,,,,,00955960627fb.jpg,,,,,,,,,,,,,,,
215,10,Memory,4,,,,,,,00288940422fa.jpg,,,,,,,,,,,,,,,
216,10,Memory,4,,,,,,,sunaemcowdozyphwknd.jpg,,,,,,,,,,,,,,,
217,10,Memory,4,,,,,,,00070940307fa.jpg,,,,,,,,,,,,,,,
218,10,Memory,4,,,,,,,00728941205fa.jpg,,,,,,,,,,,,,,,
219,10,Memory,4,,,,,,,sunabcfpwlpolnutyju.jpg,,,,,,,,,,,,,,,
220,10,Memory,4,,,,,,,00795941205fa.jpg,,,,,,,,,,,,,,,
221,10,Memory,4,,,,,,,sunacvjlsylseoghjup.jpg,,,,,,,,,,,,,,,
222,10,Memory,4,,,,,,,00741941201fa.jpg,,,,,,,,,,,,,,,
223,10,Memory,4,,,,,,,sunaathajvxrgptwhoj.jpg,,,,,,,,,,,,,,,
224,10,Memory,4,,,,,,,00221940128fa.jpg,,,,,,,,,,,,,,,
225,10,Memory,4,,,,,,,00576941031fa.jpg,,,,,,,,,,,,,,,
226,10,Memory,4,,,,,,,sunaffgsyyvoqdlkmnk.jpg,,,,,,,,,,,,,,,
227,10,Memory,4,,,,,,,00878960530fa.jpg,,,,,,,,,,,,,,,
228,10,Memory,4,,,,,,,00144931230fb.jpg,,,,,,,,,,,,,,,
229,10,Memory,4,,,,,,,00211940128fa.jpg,,,,,,,,,,,,,,,
230,10,Memory,4,,,,,,,sunakgbnzxmfohgehnu.jpg,,,,,,,,,,,,,,,
231,10,Memory,4,,,,,,,00129931230fb.jpg,,,,,,,,,,,,,,,
232,10,Memory,4,,,,,,,sunadcphrizvfpljiqt.jpg,,,,,,,,,,,,,,,
233,10,Memory,4,,,,,,,sunbasypfgzjtomktmu.jpg,,,,,,,,,,,,,,,
234,10,Memory,4,,,,,,,sunaapxkpvrhpjplsok.jpg,,,,,,,,,,,,,,,
235,10,Memory,4,,,,,,,sunabasphceswhwwqvv.jpg,,,,,,,,,,,,,,,
236,10,Memory,4,,,,,,,00970960627fa.jpg,,,,,,,,,,,,,,,
237,10,Memory,4,,,,,,,sunagtumacdlmciqamz.jpg,,,,,,,,,,,,,,,
238,10,Memory,4,,,,,,,sunaamsdyakblkfoydx.jpg,,,,,,,,,,,,,,,
239,10,Memory,4,,,,,,,sunaejnvnpltdmhbcsi.jpg,,,,,,,,,,,,,,,
240,10,Memory,4,,,,,,,sundbixjudsgeuuehrn.jpg,,,,,,,,,,,,,,,
241,10,Memory,4,,,,,,,sunapqwnqzxlsfvgsjm.jpg,,,,,,,,,,,,,,,
242,10,Memory,4,,,,,,,01207940128fa.jpg,,,,,,,,,,,,,,,
243,10,Memory,4,,,,,,,00634940928fa.jpg,,,,,,,,,,,,,,,
244,10,Memory,4,,,,,,,sunauburywlkjszngcq.jpg,,,,,,,,,,,,,,,
245,10,Memory,4,,,,,,,sunawotxrevnqvamsfp.jpg,,,,,,,,,,,,,,,
246,10,Memory,4,,,,,,,00245940128fa.jpg,,,,,,,,,,,,,,,
247,10,Memory,4,,,,,,,sunabppokiyglaxpcha.jpg,,,,,,,,,,,,,,,
248,10,Memory,4,,,,,,,00142931230fb.jpg,,,,,,,,,,,,,,,
249,10,Memory,4,,,,,,,sunabeyhmxodahoieyk.jpg,,,,,,,,,,,,,,,
250,10,Presentation,5,00598941031fa_sunacxtcahkymosigud.jpg,00760960620fa_sunaffstbkappprzxnv.jpg,,,,,,,>,Face,,,,,1,,,,,,,o
251,10,Presentation,5,00944960627fa_sunasbbntuiheekqyaq.jpg,00827940307fa_sunahtfxgsrmkiulnwk.jpg,,,,,,,>,Place,,,,,1,,,,,,,x
252,10,Presentation,5,00746941201fa_sunaetydippjxikifsb.jpg,00862940307fa_sunaizgnnplsvajzhkc.jpg,,,,,,,<,Place,,,,,1,,,,,,,x
253,10,Presentation,5,00280940422fb_sunabohxbskznglnrhv.jpg,00648941031fa_sunadfndyrtqqiasoig.jpg,,,,,,,<,Face,,,,,1,,,,,,,o
254,10,Presentation,5,00978960627fa_sunbddbivbptlrlauhy.jpg,00116931230fa_sunaakqepfoeqomfgxf.jpg,,,,,,,>,Face,,,,,1,,,,,,,o
255,10,Presentation,5,00630941031fa_sunadakkdovnuzlycvp.jpg,00763941205fa_sunafhmnhsdurlvddpw.jpg,,,,,,,<,Place,,,,,1,,,,,,,o
256,10,Presentation,5,00564941031fa_sunacsaovnjezqwbykf.jpg,00681941121fa_sunadqmjrhfjyuzyvdd.jpg,,,,,,,>,Face,,,,,1,,,,,,,o
257,10,Presentation,5,00071940128fa_sunaaexpnawiehinlpy.jpg,00909960530_sunaobtizabegtwfwul.jpg,,,,,,,<,Face,,,,,1,,,,,,,o
258,10,Presentation,5,00061931230fb_sunaaekxzjzrfgtkwjf.jpg,00308940422fb_sunabwfvcqqidycwypa.jpg,,,,,,,>,Place,,,,,1,,,,,,,o
259,10,Presentation,5,00828940307fa_sunahuynahneraqftyz.jpg,01007960627fa_sunbxarcshsnqsefemx.jpg,,,,,,,<,Place,,,,,1,,,,,,,o
260,10,Memory,5,,,,,,,00744941201fa.jpg,,,,,,,,,,,,,,,
261,10,Memory,5,,,,,,,sunaavodbcpygkggnfp.jpg,,,,,,,,,,,,,,,
262,10,Memory,5,,,,,,,sunahctntqrunhdxhtb.jpg,,,,,,,,,,,,,,,
263,10,Memory,5,,,,,,,00952960627fa.jpg,,,,,,,,,,,,,,,
264,10,Memory,5,,,,,,,sunahuynahneraqftyz.jpg,,,,,,,,,,,,,,,
265,10,Memory,5,,,,,,,00810941205fa.jpg,,,,,,,,,,,,,,,
266,10,Memory,5,,,,,,,sunaobtizabegtwfwul.jpg,,,,,,,,,,,,,,,
267,10,Memory,5,,,,,,,sunaaekxzjzrfgtkwjf.jpg,,,,,,,,,,,,,,,
268,10,Memory,5,,,,,,,sunadkazmlajmohnwfl.jpg,,,,,,,,,,,,,,,
269,10,Memory,5,,,,,,,01007960627fa.jpg,,,,,,,,,,,,,,,
270,10,Memory,5,,,,,,,00163931230fb.jpg,,,,,,,,,,,,,,,
271,10,Memory,5,,,,,,,00648941031fa.jpg,,,,,,,,,,,,,,,
272,10,Memory,5,,,,,,,sunbxarcshsnqsefemx.jpg,,,,,,,,,,,,,,,
273,10,Memory,5,,,,,,,00750941201fa.jpg,,,,,,,,,,,,,,,
274,10,Memory,5,,,,,,,sunaeuzwggvibufclwf.jpg,,,,,,,,,,,,,,,
275,10,Memory,5,,,,,,,00760960620fa.jpg,,,,,,,,,,,,,,,
276,10,Memory,5,,,,,,,00828940307fa.jpg,,,,,,,,,,,,,,,
277,10,Memory,5,,,,,,,sunaffstbkappprzxnv.jpg,,,,,,,,,,,,,,,
278,10,Memory,5,,,,,,,sunarceibpcyacbmfga.jpg,,,,,,,,,,,,,,,
279,10,Memory,5,,,,,,,sunacxtcahkymosigud.jpg,,,,,,,,,,,,,,,
280,10,Memory,5,,,,,,,sunabwfvcqqidycwypa.jpg,,,,,,,,,,,,,,,
281,10,Memory,5,,,,,,,sunadpnqovzckyikrjo.jpg,,,,,,,,,,,,,,,
282,10,Memory,5,,,,,,,00768941205fa.jpg,,,,,,,,,,,,,,,
283,10,Memory,5,,,,,,,00280940422fb.jpg,,,,,,,,,,,,,,,
284,10,Memory,5,,,,,,,sunabohxbskznglnrhv.jpg,,,,,,,,,,,,,,,
285,10,Memory,5,,,,,,,00061931230fb.jpg,,,,,,,,,,,,,,,
286,10,Memory,5,,,,,,,00063931230fa.jpg,,,,,,,,,,,,,,,
287,10,Memory,5,,,,,,,00598941031fa.jpg,,,,,,,,,,,,,,,
288,10,Memory,5,,,,,,,sunathzzbcwjykldrem.jpg,,,,,,,,,,,,,,,
289,10,Memory,5,,,,,,,00939960627fa.jpg,,,,,,,,,,,,,,,
290,10,Memory,5,,,,,,,00662941121fa.jpg,,,,,,,,,,,,,,,
291,10,Memory,5,,,,,,,sunadfndyrtqqiasoig.jpg,,,,,,,,,,,,,,,
292,10,Memory,5,,,,,,,sunafkmnlytenlsywia.jpg,,,,,,,,,,,,,,,
293,10,Memory,5,,,,,,,00676941121fa.jpg,,,,,,,,,,,,,,,
294,10,Memory,5,,,,,,,00308940422fb.jpg,,,,,,,,,,,,,,,
295,10,Memory,5,,,,,,,sunaetydippjxikifsb.jpg,,,,,,,,,,,,,,,
296,10,Memory,5,,,,,,,00746941201fa.jpg,,,,,,,,,,,,,,,
297,10,Memory,5,,,,,,,00909960530.jpg,,,,,,,,,,,,,,,
298,10,Memory,5,,,,,,,sunaaelyvurpntclgau.jpg,,,,,,,,,,,,,,,
299,10,Memory,5,,,,,,,sunaeomlfaabhpswasy.jpg,,,,,,,,,,,,,,,
300,10,Presentation,6,00108960530fa_sunaajtnvzzpsjdzres.jpg,00742941201fa_sunaenwuebvlpdmntju.jpg,,,,,,,<,Face,,,,,1,,,,,,,x
301,10,Presentation,6,00979960627fa_sunbdycacjfaujxitbw.jpg,00073931230fa_sunaafbmtoniaasysgu.jpg,,,,,,,>,Place,,,,,1,,,,,,,x
302,10,Presentation,6,00082931230fa_sunaafvitpexrpvumsa.jpg,00266940128fb_sunabkngeblodihjvbk.jpg,,,,,,,>,Face,,,,,1,,,,,,,x
303,10,Presentation,6,00482940519fa_sunabyfxcxhdebvdyfd.jpg,00313940422fa_sunabwjvmoaddlyxfjr.jpg,,,,,,,>,Place,,,,,0,,,,,,,x
304,10,Presentation,6,00922960627fa_sunapqkyghktgtosuuk.jpg,00960960627fa_sunawksfbacycuhbrsc.jpg,,,,,,,<,Place,,,,,1,,,,,,,o
305,10,Presentation,6,00096931230fa_sunaaiqiqcggrskoqgy.jpg,00184940128fa_sunaavtbadenwnzeutj.jpg,,,,,,,<,Face,,,,,1,,,,,,,x
306,10,Presentation,6,00792941205fa_sunagsiwrmuixqgdimb.jpg,00770941201fa_sunaflojskatpeqyzqp.jpg,,,,,,,<,Place,,,,,0,,,,,,,o
307,10,Presentation,6,00773960620fa_sunafvsxtzaizojicxx.jpg,00976960627fa_sunbbhqyyzmsxhsbjmp.jpg,,,,,,,>,Place,,,,,0,,,,,,,o
308,10,Presentation,6,00804960530fa_sunagwswhkvnsmuszlz.jpg,00119931230fb_sunaakvmbftkrgqhjun.jpg,,,,,,,<,Face,,,,,1,,,,,,,x
309,10,Presentation,6,00900960530fa_sunamlotskmmsjeogby.jpg,00854940307fa_sunaiwduelojtwaqeyh.jpg,,,,,,,>,Face,,,,,1,,,,,,,x
310,10,Memory,6,,,,,,,00313940422fa.jpg,,,,,,,,,,,,,,,
311,10,Memory,6,,,,,,,00848940307fa.jpg,,,,,,,,,,,,,,,
312,10,Memory,6,,,,,,,sunadrmfzmstgdjdcod.jpg,,,,,,,,,,,,,,,
313,10,Memory,6,,,,,,,00900960530fa.jpg,,,,,,,,,,,,,,,
314,10,Memory,6,,,,,,,sunamlotskmmsjeogby.jpg,,,,,,,,,,,,,,,
315,10,Memory,6,,,,,,,00266940128fb.jpg,,,,,,,,,,,,,,,
316,10,Memory,6,,,,,,,00933960627fa.jpg,,,,,,,,,,,,,,,
317,10,Memory,6,,,,,,,sunaafbmtoniaasysgu.jpg,,,,,,,,,,,,,,,
318,10,Memory,6,,,,,,,00548940519fa.jpg,,,,,,,,,,,,,,,
319,10,Memory,6,,,,,,,sunatstrpjxhvtbaczf.jpg,,,,,,,,,,,,,,,
320,10,Memory,6,,,,,,,00963960627fa.jpg,,,,,,,,,,,,,,,
321,10,Memory,6,,,,,,,sunaajtnvzzpsjdzres.jpg,,,,,,,,,,,,,,,
322,10,Memory,6,,,,,,,sunafvsxtzaizojicxx.jpg,,,,,,,,,,,,,,,
323,10,Memory,6,,,,,,,00073931230fa.jpg,,,,,,,,,,,,,,,
324,10,Memory,6,,,,,,,sunabkngeblodihjvbk.jpg,,,,,,,,,,,,,,,
325,10,Memory,6,,,,,,,00636941031fa.jpg,,,,,,,,,,,,,,,
326,10,Memory,6,,,,,,,sunaakvmbftkrgqhjun.jpg,,,,,,,,,,,,,,,
327,10,Memory,6,,,,,,,sunacerqowiaeoqkmsq.jpg,,,,,,,,,,,,,,,
328,10,Memory,6,,,,,,,sunagmwxxwymwojbvgi.jpg,,,,,,,,,,,,,,,
329,10,Memory,6,,,,,,,sunacvzhvcksnwqcqbw.jpg,,,,,,,,,,,,,,,
330,10,Memory,6,,,,,,,00792941205fa.jpg,,,,,,,,,,,,,,,
331,10,Memory,6,,,,,,,00158931230fb.jpg,,,,,,,,,,,,,,,
332,10,Memory,6,,,,,,,sunawksfbacycuhbrsc.jpg,,,,,,,,,,,,,,,
333,10,Memory,6,,,,,,,sunaddtdkycxbqlpfqa.jpg,,,,,,,,,,,,,,,
334,10,Memory,6,,,,,,,sunabwjvmoaddlyxfjr.jpg,,,,,,,,,,,,,,,
335,10,Memory,6,,,,,,,00787941205fa.jpg,,,,,,,,,,,,,,,
336,10,Memory,6,,,,,,,00108960530fa.jpg,,,,,,,,,,,,,,,
337,10,Memory,6,,,,,,,00694941121fa.jpg,,,,,,,,,,,,,,,
338,10,Memory,6,,,,,,,sunayaepykrqvenaqqy.jpg,,,,,,,,,,,,,,,
339,10,Memory,6,,,,,,,00581940928fa.jpg,,,,,,,,,,,,,,,
340,10,Memory,6,,,,,,,00773960620fa.jpg,,,,,,,,,,,,,,,
341,10,Memory,6,,,,,,,sunaavchcbptaerhcfy.jpg,,,,,,,,,,,,,,,
342,10,Memory,6,,,,,,,00960960627fa.jpg,,,,,,,,,,,,,,,
343,10,Memory,6,,,,,,,00953960627fa.jpg,,,,,,,,,,,,,,,
344,10,Memory,6,,,,,,,sunaivdylrawbmhryfp.jpg,,,,,,,,,,,,,,,
345,10,Memory,6,,,,,,,sunabyfxcxhdebvdyfd.jpg,,,,,,,,,,,,,,,
346,10,Memory,6,,,,,,,00119931230fb.jpg,,,,,,,,,,,,,,,
347,10,Memory,6,,,,,,,sunagsiwrmuixqgdimb.jpg,,,,,,,,,,,,,,,
348,10,Memory,6,,,,,,,00482940519fa.jpg,,,,,,,,,,,,,,,
349,10,Memory,6,,,,,,,sunapwjkcxdaeqehfql.jpg,,,,,,,,,,,,,,,
350,10,Presentation,7,00481940519fa_sunabxsuqbleluwczoy.jpg,00290940422fa_sunabqowuarvqqcnipn.jpg,,,,,,,<,Face,,,,,1,,,,,,,x
351,10,Presentation,7,00062931230fb_sunaaelotvjgibjtjhs.jpg,00090931230fa_sunaahedjlmtqekgyvj.jpg,,,,,,,>,Place,,,,,1,,,,,,,x
352,10,Presentation,7,00870940307fa_sunajrgtewnualfcerj.jpg,00791941205fa_sunagrmyoovzukhxmlo.jpg,,,,,,,<,Face,,,,,0,,,,,,,o
353,10,Presentation,7,00776941205fa_sunafxokyavhgptyfye.jpg,00973960627fa_sunbbgtoeuzierkkajt.jpg,,,,,,,<,Place,,,,,1,,,,,,,o
354,10,Presentation,7,00818940307fa_sunahpblecxtmuzkmxb.jpg,00197940128fa_sunaaylzyqlqrsmfwif.jpg,,,,,,,>,Face,,,,,1,,,,,,,o
355,10,Presentation,7,00788941205fa_sunagountlxpzkytsmp.jpg,00819940307fa_sunahqldjibofgsfdgb.jpg,,,,,,,>,Place,,,,,1,,,,,,,x
356,10,Presentation,7,00631940928fa_sunadbdqzigzwipuipr.jpg,00889960530fa_sunaletopenvvozhpxc.jpg,,,,,,,>,Face,,,,,1,,,,,,,o
357,10,Presentation,7,00778941205fa_sunagcthdfirrcawoic.jpg,01000960627fa_sunbvzmgrdvaakxusbu.jpg,,,,,,,>,Place,,,,,1,,,,,,,o
358,10,Presentation,7,00296940422fa_sunabrwnslxalcohfre.jpg,00869940307fa_sunajoveqhiprwqgoco.jpg,,,,,,,<,Place,,,,,1,,,,,,,o
359,10,Presentation,7,00761960627fa_sunafgdqbclkwfocdhg.jpg,00069931230fb_sunaaeowapdkwzqpgqr.jpg,,,,,,,<,Face,,,,,1,,,,,,,o
360,10,Memory,7,,,,,,,sunagrmyoovzukhxmlo.jpg,,,,,,,,,,,,,,,
361,10,Memory,7,,,,,,,sunajrgtewnualfcerj.jpg,,,,,,,,,,,,,,,
362,10,Memory,7,,,,,,,00191940128fb.jpg,,,,,,,,,,,,,,,
363,10,Memory,7,,,,,,,sunabqowuarvqqcnipn.jpg,,,,,,,,,,,,,,,
364,10,Memory,7,,,,,,,sunafxokyavhgptyfye.jpg,,,,,,,,,,,,,,,
365,10,Memory,7,,,,,,,sunbvzmgrdvaakxusbu.jpg,,,,,,,,,,,,,,,
366,10,Memory,7,,,,,,,sunaknlirqjqiwbbeeg.jpg,,,,,,,,,,,,,,,
367,10,Memory,7,,,,,,,00574940928fa.jpg,,,,,,,,,,,,,,,
368,10,Memory,7,,,,,,,sunaaelotvjgibjtjhs.jpg,,,,,,,,,,,,,,,
369,10,Memory,7,,,,,,,sunaawsdjisukbbginm.jpg,,,,,,,,,,,,,,,
370,10,Memory,7,,,,,,,00133931230fa.jpg,,,,,,,,,,,,,,,
371,10,Memory,7,,,,,,,sunaletopenvvozhpxc.jpg,,,,,,,,,,,,,,,
372,10,Memory,7,,,,,,,00154931230fa.jpg,,,,,,,,,,,,,,,
373,10,Memory,7,,,,,,,sunaavjinpnkappuonm.jpg,,,,,,,,,,,,,,,
374,10,Memory,7,,,,,,,sunacvbrcejzwmcgnoq.jpg,,,,,,,,,,,,,,,
375,10,Memory,7,,,,,,,00778941205fa.jpg,,,,,,,,,,,,,,,
376,10,Memory,7,,,,,,,sunaauueuhhvklldjik.jpg,,,,,,,,,,,,,,,
377,10,Memory,7,,,,,,,01000960627fa.jpg,,,,,,,,,,,,,,,
378,10,Memory,7,,,,,,,00889960530fa.jpg,,,,,,,,,,,,,,,
379,10,Memory,7,,,,,,,00791941205fa.jpg,,,,,,,,,,,,,,,
380,10,Memory,7,,,,,,,sunahqldjibofgsfdgb.jpg,,,,,,,,,,,,,,,
381,10,Memory,7,,,,,,,sunagcthdfirrcawoic.jpg,,,,,,,,,,,,,,,
382,10,Memory,7,,,,,,,sunaanlwnpqndclffxt.jpg,,,,,,,,,,,,,,,
383,10,Memory,7,,,,,,,00290940422fa.jpg,,,,,,,,,,,,,,,
384,10,Memory,7,,,,,,,00819940307fa.jpg,,,,,,,,,,,,,,,
385,10,Memory,7,,,,,,,00882960530fa.jpg,,,,,,,,,,,,,,,
386,10,Memory,7,,,,,,,00479940519fa.jpg,,,,,,,,,,,,,,,
387,10,Memory,7,,,,,,,00775941205fa.jpg,,,,,,,,,,,,,,,
388,10,Memory,7,,,,,,,00776941205fa.jpg,,,,,,,,,,,,,,,
389,10,Memory,7,,,,,,,00926960627Fa.jpg,,,,,,,,,,,,,,,
390,10,Memory,7,,,,,,,sunafvwfsmqkjrutjta.jpg,,,,,,,,,,,,,,,
391,10,Memory,7,,,,,,,sunabmytpyhsgigllxu.jpg,,,,,,,,,,,,,,,
392,10,Memory,7,,,,,,,00062931230fb.jpg,,,,,,,,,,,,,,,
393,10,Memory,7,,,,,,,sunapqwoeotxshkukbh.jpg,,,,,,,,,,,,,,,
394,10,Memory,7,,,,,,,00631940928fa.jpg,,,,,,,,,,,,,,,
395,10,Memory,7,,,,,,,00870940307fa.jpg,,,,,,,,,,,,,,,
396,10,Memory,7,,,,,,,00276940422fa.jpg,,,,,,,,,,,,,,,
397,10,Memory,7,,,,,,,sunadbdqzigzwipuipr.jpg,,,,,,,,,,,,,,,
398,10,Memory,7,,,,,,,sunabxsbfwjccqxxzxq.jpg,,,,,,,,,,,,,,,
399,10,Memory,7,,,,,,,00162931230fb.jpg,,,,,,,,,,,,,,,
