,Subject,Trial Type,Run,Cued Composite,Uncued Composite,Cued Face,Cued Place,Uncued Face,Uncued Place,Memory Image,Category,Cued Side,Cued Category,Attention Reaction Time (s),Familiarity Reaction Time (s),Familiarity Rating,Attention Level,Cue Validity,Post Invalid Cue,Pre Invalid Cue,Attention Button,Rating History,Stimulus Onset,Stimulus End,Attention Probe
0,3,Presentation,0,00793941205fa_sunagtjwilqjvxohypn.jpg,00882960530fa_sunaknlirqjqiwbbeeg.jpg,00793941205fa.jpg,sunagtjwilqjvxohypn.jpg,00882960530fa.jpg,sunaknlirqjqiwbbeeg.jpg,,,>,Face,,,,,1,,,,,,,o
1,3,Presentation,0,00116931230fa_sunaakqepfoeqomfgxf.jpg,00864940307fa_sunajawzbrlrwafowen.jpg,00116931230fa.jpg,sunaakqepfoeqomfgxf.jpg,00864940307fa.jpg,sunajawzbrlrwafowen.jpg,,,<,Place,,,,,1,,,,,,,o
2,3,Presentation,0,00780960530fa_sunagetqixeypsysbpn.jpg,00901960530fa_sunammbnoambmhdxdwd.jpg,00780960530fa.jpg,sunagetqixeypsysbpn.jpg,00901960530fa.jpg,sunammbnoambmhdxdwd.jpg,,,>,Face,,,,,1,,,,,,,o
3,3,Presentation,0,00069931230fb_sunaaeowapdkwzqpgqr.jpg,00963960627fa_sunayaepykrqvenaqqy.jpg,00069931230fb.jpg,sunaaeowapdkwzqpgqr.jpg,00963960627fa.jpg,sunayaepykrqvenaqqy.jpg,,,<,Place,,,,,1,,,,,,,x
4,3,Presentation,0,00841940307fa_sunaisiwfgppimtnmxl.jpg,00598940928fa_sunacxeheuiigkcgquf.jpg,00841940307fa.jpg,sunaisiwfgppimtnmxl.jpg,00598940928fa.jpg,sunacxeheuiigkcgquf.jpg,,,<,Face,,,,,1,,,,,,,x
5,3,Presentation,0,00129931230fb_sunaamsdyakblkfoydx.jpg,00154931230fa_sunaauueuhhvklldjik.jpg,00129931230fb.jpg,sunaamsdyakblkfoydx.jpg,00154931230fa.jpg,sunaauueuhhvklldjik.jpg,,,<,Face,,,,,1,,,,,,,x
6,3,Presentation,0,00982960627fa_sunbesrwkdsffeogeqq.jpg,00235940128fb_sunabclssnoeuigtawp.jpg,00982960627fa.jpg,sunbesrwkdsffeogeqq.jpg,00235940128fb.jpg,sunabclssnoeuigtawp.jpg,,,<,Place,,,,,1,,,,,,,x
7,3,Presentation,0,00290940422fa_sunabqowuarvqqcnipn.jpg,00564941031fa_sunacsaovnjezqwbykf.jpg,00290940422fa.jpg,sunabqowuarvqqcnipn.jpg,00564941031fa.jpg,sunacsaovnjezqwbykf.jpg,,,>,Place,,,,,1,,,,,,,o
8,3,Presentation,0,00548940519fa_sunacerqowiaeoqkmsq.jpg,00314940422fa_sunabwmcbaxwioksdgw.jpg,00548940519fa.jpg,sunacerqowiaeoqkmsq.jpg,00314940422fa.jpg,sunabwmcbaxwioksdgw.jpg,,,>,Face,,,,,1,,,,,,,o
9,3,Presentation,0,00153931230fa_sunaauhozyxzeeqstxi.jpg,00126931230fb_sunaamdjwemxpmmtypi.jpg,00153931230fa.jpg,sunaauhozyxzeeqstxi.jpg,00126931230fb.jpg,sunaamdjwemxpmmtypi.jpg,,,>,Place,,,,,1,,,,,,,o
10,3,Memory,0,,,,,,,sunajawzbrlrwafowen.jpg,,,,,,,,,,,,,,,
11,3,Memory,0,,,,,,,sunajtrfunvzdfticna.jpg,,,,,,,,,,,,,,,
12,3,Memory,0,,,,,,,sunbaoizrfijvhpnnjn.jpg,,,,,,,,,,,,,,,
13,3,Memory,0,,,,,,,00308940422fb.jpg,,,,,,,,,,,,,,,
14,3,Memory,0,,,,,,,00874940307fa.jpg,,,,,,,,,,,,,,,
15,3,Memory,0,,,,,,,00540940519fa.jpg,,,,,,,,,,,,,,,
16,3,Memory,0,,,,,,,00564941031fa.jpg,,,,,,,,,,,,,,,
17,3,Memory,0,,,,,,,00780960530fa.jpg,,,,,,,,,,,,,,,
18,3,Memory,0,,,,,,,sunafvsxtzaizojicxx.jpg,,,,,,,,,,,,,,,
19,3,Memory,0,,,,,,,sunacdnquypmsshhsbk.jpg,,,,,,,,,,,,,,,
20,3,Memory,0,,,,,,,sunacvjlsylseoghjup.jpg,,,,,,,,,,,,,,,
21,3,Memory,0,,,,,,,sunaakqepfoeqomfgxf.jpg,,,,,,,,,,,,,,,
22,3,Memory,0,,,,,,,sunacsaovnjezqwbykf.jpg,,,,,,,,,,,,,,,
23,3,Memory,0,,,,,,,00235940128fb.jpg,,,,,,,,,,,,,,,
24,3,Memory,0,,,,,,,00576941031fa.jpg,,,,,,,,,,,,,,,
25,3,Memory,0,,,,,,,00559940519fa.jpg,,,,,,,,,,,,,,,
26,3,Memory,0,,,,,,,sunagetqixeypsysbpn.jpg,,,,,,,,,,,,,,,
27,3,Memory,0,,,,,,,00773960620fa.jpg,,,,,,,,,,,,,,,
28,3,Memory,0,,,,,,,00841940307fa.jpg,,,,,,,,,,,,,,,
29,3,Memory,0,,,,,,,sunacjkmnpawfzbyvae.jpg,,,,,,,,,,,,,,,
30,3,Memory,0,,,,,,,sunaknlirqjqiwbbeeg.jpg,,,,,,,,,,,,,,,
31,3,Memory,0,,,,,,,00126931230fb.jpg,,,,,,,,,,,,,,,
32,3,Memory,0,,,,,,,sunbwtlihsuptkrckid.jpg,,,,,,,,,,,,,,,
33,3,Memory,0,,,,,,,00184940128fa.jpg,,,,,,,,,,,,,,,
34,3,Memory,0,,,,,,,sunaamdjwemxpmmtypi.jpg,,,,,,,,,,,,,,,
35,3,Memory,0,,,,,,,sunaixpqndlwhwjtjek.jpg,,,,,,,,,,,,,,,
36,3,Memory,0,,,,,,,sunaisiwfgppimtnmxl.jpg,,,,,,,,,,,,,,,
37,3,Memory,0,,,,,,,00969960627fa.jpg,,,,,,,,,,,,,,,
38,3,Memory,0,,,,,,,00864940307fa.jpg,,,,,,,,,,,,,,,
39,3,Memory,0,,,,,,,00116931230fa.jpg,,,,,,,,,,,,,,,
40,3,Memory,0,,,,,,,sunaavtbadenwnzeutj.jpg,,,,,,,,,,,,,,,
41,3,Memory,0,,,,,,,00858940307fa.jpg,,,,,,,,,,,,,,,
42,3,Memory,0,,,,,,,00153931230fa.jpg,,,,,,,,,,,,,,,
43,3,Memory,0,,,,,,,sunabclssnoeuigtawp.jpg,,,,,,,,,,,,,,,
44,3,Memory,0,,,,,,,sunaauhozyxzeeqstxi.jpg,,,,,,,,,,,,,,,
45,3,Memory,0,,,,,,,sunbesrwkdsffeogeqq.jpg,,,,,,,,,,,,,,,
46,3,Memory,0,,,,,,,00982960627fa.jpg,,,,,,,,,,,,,,,
47,3,Memory,0,,,,,,,00882960530fa.jpg,,,,,,,,,,,,,,,
48,3,Memory,0,,,,,,,01004960627fa.jpg,,,,,,,,,,,,,,,
49,3,Memory,0,,,,,,,sunabwfvcqqidycwypa.jpg,,,,,,,,,,,,,,,
50,3,Presentation,1,00754941201fa_sunaffgsyyvoqdlkmnk.jpg,00877960530fa_sunajxpkuhbizeveguy.jpg,00754941201fa.jpg,sunaffgsyyvoqdlkmnk.jpg,00877960530fa.jpg,sunajxpkuhbizeveguy.jpg,,,>,Place,,,,,1,,,,,,,x
51,3,Presentation,1,00984960627fa_sunbfzchmomnvzhbxdg.jpg,00302940422fa_sunabtlfmiwtljmoues.jpg,00984960627fa.jpg,sunbfzchmomnvzhbxdg.jpg,00302940422fa.jpg,sunabtlfmiwtljmoues.jpg,,,<,Place,,,,,1,,,,,,,x
52,3,Presentation,1,00971960627fa_sunbbegcweqnetpdlrh.jpg,00581940928fa_sunacvzhvcksnwqcqbw.jpg,00971960627fa.jpg,sunbbegcweqnetpdlrh.jpg,00581940928fa.jpg,sunacvzhvcksnwqcqbw.jpg,,,>,Place,,,,,1,,,,,,,o
53,3,Presentation,1,00860940307fa_sunaizeyhvjzknwjudw.jpg,00663941121fa_sunadnjjzohjhbohlwq.jpg,00860940307fa.jpg,sunaizeyhvjzknwjudw.jpg,00663941121fa.jpg,sunadnjjzohjhbohlwq.jpg,,,<,Place,,,,,1,,,,,,,x
54,3,Presentation,1,00774941201fa_sunafvtpfczkzopbgue.jpg,00993960627fa_sunbprywzqxjcezkbch.jpg,00774941201fa.jpg,sunafvtpfczkzopbgue.jpg,00993960627fa.jpg,sunbprywzqxjcezkbch.jpg,,,>,Face,,,,,1,,,,,,,x
55,3,Presentation,1,00908960530fa_sunanwjjyqqwzqrqagd.jpg,00719941201fa_sunadvithllcgmfxsrn.jpg,00908960530fa.jpg,sunanwjjyqqwzqrqagd.jpg,00719941201fa.jpg,sunadvithllcgmfxsrn.jpg,,,<,Face,,,,,1,,,,,,,o
56,3,Presentation,1,01007960627fa_sunbxarcshsnqsefemx.jpg,00071941031fa_sunaaexqbtdswxrqjvz.jpg,01007960627fa.jpg,sunbxarcshsnqsefemx.jpg,00071941031fa.jpg,sunaaexqbtdswxrqjvz.jpg,,,<,Place,,,,,1,,,,,,,o
57,3,Presentation,1,00953960627fa_sunatstrpjxhvtbaczf.jpg,00944960627fa_sunasbbntuiheekqyaq.jpg,00953960627fa.jpg,sunatstrpjxhvtbaczf.jpg,00944960627fa.jpg,sunasbbntuiheekqyaq.jpg,,,<,Face,,,,,0,,,,,,,o
58,3,Presentation,1,01003960627fb_sunbwdrdvsweerwsdrj.jpg,00123931230fb_sunaalcrrdbjgdztbiz.jpg,01003960627fb.jpg,sunbwdrdvsweerwsdrj.jpg,00123931230fb.jpg,sunaalcrrdbjgdztbiz.jpg,,,>,Face,,,,,1,,,,,,,x
59,3,Presentation,1,00884960530fa_sunakodkcslgqhqlgwl.jpg,00911960530fa_sunaooaqzputrowwbsw.jpg,00884960530fa.jpg,sunakodkcslgqhqlgwl.jpg,00911960530fa.jpg,sunaooaqzputrowwbsw.jpg,,,>,Face,,,,,1,,,,,,,x
60,3,Memory,1,,,,,,,sunadvithllcgmfxsrn.jpg,,,,,,,,,,,,,,,
61,3,Memory,1,,,,,,,sunaizeyhvjzknwjudw.jpg,,,,,,,,,,,,,,,
62,3,Memory,1,,,,,,,00077931230fb.jpg,,,,,,,,,,,,,,,
63,3,Memory,1,,,,,,,00751960620fa.jpg,,,,,,,,,,,,,,,
64,3,Memory,1,,,,,,,sunacjnahdmqfnjfwqx.jpg,,,,,,,,,,,,,,,
65,3,Memory,1,,,,,,,00884960530fa.jpg,,,,,,,,,,,,,,,
66,3,Memory,1,,,,,,,00868960307fa.jpg,,,,,,,,,,,,,,,
67,3,Memory,1,,,,,,,sunabgfhvifeijihhjw.jpg,,,,,,,,,,,,,,,
68,3,Memory,1,,,,,,,00860940307fa.jpg,,,,,,,,,,,,,,,
69,3,Memory,1,,,,,,,sunaprnrbmgkomdbchr.jpg,,,,,,,,,,,,,,,
70,3,Memory,1,,,,,,,sunaozisvwfbmlkfhzv.jpg,,,,,,,,,,,,,,,
71,3,Memory,1,,,,,,,00984960627fa.jpg,,,,,,,,,,,,,,,
72,3,Memory,1,,,,,,,00812941205fa.jpg,,,,,,,,,,,,,,,
73,3,Memory,1,,,,,,,00944960627fa.jpg,,,,,,,,,,,,,,,
74,3,Memory,1,,,,,,,sunajjxttslobudoqbv.jpg,,,,,,,,,,,,,,,
75,3,Memory,1,,,,,,,sunanwjjyqqwzqrqagd.jpg,,,,,,,,,,,,,,,
76,3,Memory,1,,,,,,,sunaafgqutfaishsxyu.jpg,,,,,,,,,,,,,,,
77,3,Memory,1,,,,,,,sunahqrxievfeusiqlt.jpg,,,,,,,,,,,,,,,
78,3,Memory,1,,,,,,,sunanmoqeyprjjjfxjt.jpg,,,,,,,,,,,,,,,
79,3,Memory,1,,,,,,,sunbfzchmomnvzhbxdg.jpg,,,,,,,,,,,,,,,
80,3,Memory,1,,,,,,,sunacvzhvcksnwqcqbw.jpg,,,,,,,,,,,,,,,
81,3,Memory,1,,,,,,,00581940928fa.jpg,,,,,,,,,,,,,,,
82,3,Memory,1,,,,,,,sunatstrpjxhvtbaczf.jpg,,,,,,,,,,,,,,,
83,3,Memory,1,,,,,,,sunaezuszgtxnmsxdbk.jpg,,,,,,,,,,,,,,,
84,3,Memory,1,,,,,,,sunaalcrrdbjgdztbiz.jpg,,,,,,,,,,,,,,,
85,3,Memory,1,,,,,,,sunasbbntuiheekqyaq.jpg,,,,,,,,,,,,,,,
86,3,Memory,1,,,,,,,00719941201fa.jpg,,,,,,,,,,,,,,,
87,3,Memory,1,,,,,,,00562941031fa.jpg,,,,,,,,,,,,,,,
88,3,Memory,1,,,,,,,00908960530fa.jpg,,,,,,,,,,,,,,,
89,3,Memory,1,,,,,,,00953960627fa.jpg,,,,,,,,,,,,,,,
90,3,Memory,1,,,,,,,00123931230fb.jpg,,,,,,,,,,,,,,,
91,3,Memory,1,,,,,,,00260940128fa.jpg,,,,,,,,,,,,,,,
92,3,Memory,1,,,,,,,sunabtlfmiwtljmoues.jpg,,,,,,,,,,,,,,,
93,3,Memory,1,,,,,,,sunakodkcslgqhqlgwl.jpg,,,,,,,,,,,,,,,
94,3,Memory,1,,,,,,,00914960620fa.jpg,,,,,,,,,,,,,,,
95,3,Memory,1,,,,,,,00929960627fa.jpg,,,,,,,,,,,,,,,
96,3,Memory,1,,,,,,,sunahgtbwgsmtqeodwh.jpg,,,,,,,,,,,,,,,
97,3,Memory,1,,,,,,,00822940307fa.jpg,,,,,,,,,,,,,,,
98,3,Memory,1,,,,,,,00302940422fa.jpg,,,,,,,,,,,,,,,
99,3,Memory,1,,,,,,,00905960530fa.jpg,,,,,,,,,,,,,,,
100,3,Presentation,2,00887960530_sunalcrtwiycqobgelp.jpg,00090931230fa_sunaahedjlmtqekgyvj.jpg,00887960530.jpg,sunalcrtwiycqobgelp.jpg,00090931230fa.jpg,sunaahedjlmtqekgyvj.jpg,,,>,Face,,,,,1,,,,,,,o
101,3,Presentation,2,00892960530fa_sunalntxqqadigcletd.jpg,00803941205fa_sunagvxkjokqimstxpe.jpg,00892960530fa.jpg,sunalntxqqadigcletd.jpg,00803941205fa.jpg,sunagvxkjokqimstxpe.jpg,,,<,Face,,,,,1,,,,,,,o
102,3,Presentation,2,00871940307_sunajrujcsdxmfbssmc.jpg,00221940128fa_sunabcfpwlpolnutyju.jpg,00871940307.jpg,sunajrujcsdxmfbssmc.jpg,00221940128fa.jpg,sunabcfpwlpolnutyju.jpg,,,>,Place,,,,,1,,,,,,,x
103,3,Presentation,2,00791941205fa_sunagrmyoovzukhxmlo.jpg,00481940519fa_sunabxsuqbleluwczoy.jpg,00791941205fa.jpg,sunagrmyoovzukhxmlo.jpg,00481940519fa.jpg,sunabxsuqbleluwczoy.jpg,,,<,Face,,,,,1,,,,,,,o
104,3,Presentation,2,00089931230fa_sunaagcpoejbuzyvddd.jpg,00761960627fa_sunafgdqbclkwfocdhg.jpg,00089931230fa.jpg,sunaagcpoejbuzyvddd.jpg,00761960627fa.jpg,sunafgdqbclkwfocdhg.jpg,,,>,Face,,,,,1,,,,,,,o
105,3,Presentation,2,00564940928fa_sunacmpqqfbsvlzinzl.jpg,00648941031fa_sunadfndyrtqqiasoig.jpg,00564940928fa.jpg,sunacmpqqfbsvlzinzl.jpg,00648941031fa.jpg,sunadfndyrtqqiasoig.jpg,,,<,Place,,,,,1,,,,,,,o
106,3,Presentation,2,00276940422fa_sunabmytpyhsgigllxu.jpg,00790941205fa_sunagpjzsbltchlwvou.jpg,00276940422fa.jpg,sunabmytpyhsgigllxu.jpg,00790941205fa.jpg,sunagpjzsbltchlwvou.jpg,,,>,Face,,,,,1,,,,,,,x
107,3,Presentation,2,00209940128fb_sunabaergayifsgacxt.jpg,00749941201fa_sunaeuvjbmdpknaqqaj.jpg,00209940128fb.jpg,sunabaergayifsgacxt.jpg,00749941201fa.jpg,sunaeuvjbmdpknaqqaj.jpg,,,>,Place,,,,,1,,,,,,,x
108,3,Presentation,2,00809960620fa_sunahbvlpavurqoxdeq.jpg,00483940519fa_sunabyvpwkgsjtijdwj.jpg,00809960620fa.jpg,sunahbvlpavurqoxdeq.jpg,00483940519fa.jpg,sunabyvpwkgsjtijdwj.jpg,,,<,Place,,,,,1,,,,,,,o
109,3,Presentation,2,00939960627fa_sunarceibpcyacbmfga.jpg,00065931230fb_sunaaemixhfquhnxxlm.jpg,00939960627fa.jpg,sunarceibpcyacbmfga.jpg,00065931230fb.jpg,sunaaemixhfquhnxxlm.jpg,,,<,Place,,,,,0,,,,,,,o
110,3,Memory,2,,,,,,,00986960627fa.jpg,,,,,,,,,,,,,,,
111,3,Memory,2,,,,,,,00676941121fa.jpg,,,,,,,,,,,,,,,
112,3,Memory,2,,,,,,,00887960530.jpg,,,,,,,,,,,,,,,
113,3,Memory,2,,,,,,,sunagvxkjokqimstxpe.jpg,,,,,,,,,,,,,,,
114,3,Memory,2,,,,,,,sunabyvpwkgsjtijdwj.jpg,,,,,,,,,,,,,,,
115,3,Memory,2,,,,,,,00752960620fa.jpg,,,,,,,,,,,,,,,
116,3,Memory,2,,,,,,,sunadpnqovzckyikrjo.jpg,,,,,,,,,,,,,,,
117,3,Memory,2,,,,,,,sunaazezcsunmhttzxz.jpg,,,,,,,,,,,,,,,
118,3,Memory,2,,,,,,,sunbgzjryivyczuvkvm.jpg,,,,,,,,,,,,,,,
119,3,Memory,2,,,,,,,sunacepzfrmtkiqonpy.jpg,,,,,,,,,,,,,,,
120,3,Memory,2,,,,,,,sunaajqmsaavkmgbsth.jpg,,,,,,,,,,,,,,,
121,3,Memory,2,,,,,,,00761960627fa.jpg,,,,,,,,,,,,,,,
122,3,Memory,2,,,,,,,00276940422fa.jpg,,,,,,,,,,,,,,,
123,3,Memory,2,,,,,,,00198940128fb.jpg,,,,,,,,,,,,,,,
124,3,Memory,2,,,,,,,00543940519fa.jpg,,,,,,,,,,,,,,,
125,3,Memory,2,,,,,,,sunafgdqbclkwfocdhg.jpg,,,,,,,,,,,,,,,
126,3,Memory,2,,,,,,,sunadkazmlajmohnwfl.jpg,,,,,,,,,,,,,,,
127,3,Memory,2,,,,,,,00892960530fa.jpg,,,,,,,,,,,,,,,
128,3,Memory,2,,,,,,,00816941205fa.jpg,,,,,,,,,,,,,,,
129,3,Memory,2,,,,,,,00803941205fa.jpg,,,,,,,,,,,,,,,
130,3,Memory,2,,,,,,,00809960620fa.jpg,,,,,,,,,,,,,,,
131,3,Memory,2,,,,,,,00662941121fa.jpg,,,,,,,,,,,,,,,
132,3,Memory,2,,,,,,,00101931230fb.jpg,,,,,,,,,,,,,,,
133,3,Memory,2,,,,,,,00747941201fa.jpg,,,,,,,,,,,,,,,
134,3,Memory,2,,,,,,,sunaeutbrtswvsozxyk.jpg,,,,,,,,,,,,,,,
135,3,Memory,2,,,,,,,sunarfdklgdnjgeqfjg.jpg,,,,,,,,,,,,,,,
136,3,Memory,2,,,,,,,sunalcrtwiycqobgelp.jpg,,,,,,,,,,,,,,,
137,3,Memory,2,,,,,,,sunafbwnojpqeyzssoe.jpg,,,,,,,,,,,,,,,
138,3,Memory,2,,,,,,,sunahmhrncocyhsjpxk.jpg,,,,,,,,,,,,,,,
139,3,Memory,2,,,,,,,00790941205fa.jpg,,,,,,,,,,,,,,,
140,3,Memory,2,,,,,,,sunaaemixhfquhnxxlm.jpg,,,,,,,,,,,,,,,
141,3,Memory,2,,,,,,,sunahbvlpavurqoxdeq.jpg,,,,,,,,,,,,,,,
142,3,Memory,2,,,,,,,00065931230fb.jpg,,,,,,,,,,,,,,,
143,3,Memory,2,,,,,,,sunabaergayifsgacxt.jpg,,,,,,,,,,,,,,,
144,3,Memory,2,,,,,,,00483940519fa.jpg,,,,,,,,,,,,,,,
145,3,Memory,2,,,,,,,sunagpjzsbltchlwvou.jpg,,,,,,,,,,,,,,,
146,3,Memory,2,,,,,,,00942960627fa.jpg,,,,,,,,,,,,,,,
147,3,Memory,2,,,,,,,sunabmytpyhsgigllxu.jpg,,,,,,,,,,,,,,,
148,3,Memory,2,,,,,,,sunalntxqqadigcletd.jpg,,,,,,,,,,,,,,,
149,3,Memory,2,,,,,,,00209940128fb.jpg,,,,,,,,,,,,,,,
150,3,Presentation,3,00609940928fa_sunacycdoztxoluxjyk.jpg,00062931230fb_sunaaelotvjgibjtjhs.jpg,00609940928fa.jpg,sunacycdoztxoluxjyk.jpg,00062931230fb.jpg,sunaaelotvjgibjtjhs.jpg,,,<,Place,,,,,1,,,,,,,o
151,3,Presentation,3,00836940307fa_sunainqelldeebvxtcz.jpg,01207940128fa_sundbixjudsgeuuehrn.jpg,00836940307fa.jpg,sunainqelldeebvxtcz.jpg,01207940128fa.jpg,sundbixjudsgeuuehrn.jpg,,,>,Place,,,,,1,,,,,,,o
152,3,Presentation,3,00313940422fa_sunabwjvmoaddlyxfjr.jpg,00670941121fa_sunadochqcucscehsgk.jpg,00313940422fa.jpg,sunabwjvmoaddlyxfjr.jpg,00670941121fa.jpg,sunadochqcucscehsgk.jpg,,,>,Place,,,,,1,,,,,,,o
153,3,Presentation,3,00854940307fa_sunaiwduelojtwaqeyh.jpg,00838940307fa_sunaiozxhxgtfrmoagh.jpg,00854940307fa.jpg,sunaiwduelojtwaqeyh.jpg,00838940307fa.jpg,sunaiozxhxgtfrmoagh.jpg,,,>,Face,,,,,1,,,,,,,x
154,3,Presentation,3,00630941031fa_sunadakkdovnuzlycvp.jpg,00507940519fa_sunacacflqoyxhsqzhe.jpg,00630941031fa.jpg,sunadakkdovnuzlycvp.jpg,00507940519fa.jpg,sunacacflqoyxhsqzhe.jpg,,,<,Face,,,,,1,,,,,,,x
155,3,Presentation,3,00479940519fa_sunabxsbfwjccqxxzxq.jpg,00965960627fa_sunaydywdmvlfddbxbk.jpg,00479940519fa.jpg,sunabxsbfwjccqxxzxq.jpg,00965960627fa.jpg,sunaydywdmvlfddbxbk.jpg,,,<,Face,,,,,0,,,,,,,x
156,3,Presentation,3,00568940928fa_sunacsdhbbsybcyxnel.jpg,00194940128fb_sunaayehfdqcyxggsej.jpg,00568940928fa.jpg,sunacsdhbbsybcyxnel.jpg,00194940128fb.jpg,sunaayehfdqcyxggsej.jpg,,,<,Face,,,,,1,,,,,,,x
157,3,Presentation,3,00131931230fb_sunaangbuylfvckqqoo.jpg,00144931230fb_sunaathajvxrgptwhoj.jpg,00131931230fb.jpg,sunaangbuylfvckqqoo.jpg,00144931230fb.jpg,sunaathajvxrgptwhoj.jpg,,,>,Face,,,,,1,,,,,,,x
158,3,Presentation,3,00294940422fb_sunabrlndkruqokhury.jpg,00071940128fa_sunaaexpnawiehinlpy.jpg,00294940422fb.jpg,sunabrlndkruqokhury.jpg,00071940128fa.jpg,sunaaexpnawiehinlpy.jpg,,,<,Place,,,,,1,,,,,,,o
159,3,Presentation,3,00127931230fa_sunaampvucecsfbdafn.jpg,00960960627fa_sunawksfbacycuhbrsc.jpg,00127931230fa.jpg,sunaampvucecsfbdafn.jpg,00960960627fa.jpg,sunawksfbacycuhbrsc.jpg,,,>,Place,,,,,0,,,,,,,o
160,3,Memory,3,,,,,,,sundahdxwmcdluscvot.jpg,,,,,,,,,,,,,,,
161,3,Memory,3,,,,,,,00854940307fa.jpg,,,,,,,,,,,,,,,
162,3,Memory,3,,,,,,,00102931230fa.jpg,,,,,,,,,,,,,,,
163,3,Memory,3,,,,,,,sunbddbivbptlrlauhy.jpg,,,,,,,,,,,,,,,
164,3,Memory,3,,,,,,,sunadbdqzigzwipuipr.jpg,,,,,,,,,,,,,,,
165,3,Memory,3,,,,,,,sundbixjudsgeuuehrn.jpg,,,,,,,,,,,,,,,
166,3,Memory,3,,,,,,,00071940128fa.jpg,,,,,,,,,,,,,,,
167,3,Memory,3,,,,,,,00609940928fa.jpg,,,,,,,,,,,,,,,
168,3,Memory,3,,,,,,,sunaaekxzjzrfgtkwjf.jpg,,,,,,,,,,,,,,,
169,3,Memory,3,,,,,,,00978960627fa.jpg,,,,,,,,,,,,,,,
170,3,Memory,3,,,,,,,sunaiwduelojtwaqeyh.jpg,,,,,,,,,,,,,,,
171,3,Memory,3,,,,,,,sunbasypfgzjtomktmu.jpg,,,,,,,,,,,,,,,
172,3,Memory,3,,,,,,,sunaathajvxrgptwhoj.jpg,,,,,,,,,,,,,,,
173,3,Memory,3,,,,,,,00870940307fa.jpg,,,,,,,,,,,,,,,
174,3,Memory,3,,,,,,,sunacsdhbbsybcyxnel.jpg,,,,,,,,,,,,,,,
175,3,Memory,3,,,,,,,sunadochqcucscehsgk.jpg,,,,,,,,,,,,,,,
176,3,Memory,3,,,,,,,00670941121fa.jpg,,,,,,,,,,,,,,,
177,3,Memory,3,,,,,,,sunaejnvnpltdmhbcsi.jpg,,,,,,,,,,,,,,,
178,3,Memory,3,,,,,,,00294940422fb.jpg,,,,,,,,,,,,,,,
179,3,Memory,3,,,,,,,sunajrgtewnualfcerj.jpg,,,,,,,,,,,,,,,
180,3,Memory,3,,,,,,,00568940928fa.jpg,,,,,,,,,,,,,,,
181,3,Memory,3,,,,,,,sunaayehfdqcyxggsej.jpg,,,,,,,,,,,,,,,
182,3,Memory,3,,,,,,,00970960627fa.jpg,,,,,,,,,,,,,,,
183,3,Memory,3,,,,,,,00631940928fa.jpg,,,,,,,,,,,,,,,
184,3,Memory,3,,,,,,,00630941031fa.jpg,,,,,,,,,,,,,,,
185,3,Memory,3,,,,,,,sunaanptmsknhirrzed.jpg,,,,,,,,,,,,,,,
186,3,Memory,3,,,,,,,sunabrlndkruqokhury.jpg,,,,,,,,,,,,,,,
187,3,Memory,3,,,,,,,sunadakkdovnuzlycvp.jpg,,,,,,,,,,,,,,,
188,3,Memory,3,,,,,,,00136931230fb.jpg,,,,,,,,,,,,,,,
189,3,Memory,3,,,,,,,sunaajspcoepticvplv.jpg,,,,,,,,,,,,,,,
190,3,Memory,3,,,,,,,sunaaexpnawiehinlpy.jpg,,,,,,,,,,,,,,,
191,3,Memory,3,,,,,,,00144931230fb.jpg,,,,,,,,,,,,,,,
192,3,Memory,3,,,,,,,01207940128fa.jpg,,,,,,,,,,,,,,,
193,3,Memory,3,,,,,,,00728941205fa.jpg,,,,,,,,,,,,,,,
194,3,Memory,3,,,,,,,sunacycdoztxoluxjyk.jpg,,,,,,,,,,,,,,,
195,3,Memory,3,,,,,,,01011960627fa.jpg,,,,,,,,,,,,,,,
196,3,Memory,3,,,,,,,sunaafbmtoniaasysgu.jpg,,,,,,,,,,,,,,,
197,3,Memory,3,,,,,,,00194940128fb.jpg,,,,,,,,,,,,,,,
198,3,Memory,3,,,,,,,00061931230fb.jpg,,,,,,,,,,,,,,,
199,3,Memory,3,,,,,,,00073931230fa.jpg,,,,,,,,,,,,,,,
200,3,Presentation,4,00635941031fa_sunaddsaeicthrfbkhe.jpg,00574940928fa_sunacvbrcejzwmcgnoq.jpg,00635941031fa.jpg,sunaddsaeicthrfbkhe.jpg,00574940928fa.jpg,sunacvbrcejzwmcgnoq.jpg,,,<,Place,,,,,1,,,,,,,x
201,3,Presentation,4,00633940928fa_sunadbhmrgrrpyzglxs.jpg,00819940307fa_sunahqldjibofgsfdgb.jpg,00633940928fa.jpg,sunadbhmrgrrpyzglxs.jpg,00819940307fa.jpg,sunahqldjibofgsfdgb.jpg,,,<,Face,,,,,1,,,,,,,x
202,3,Presentation,4,00804960530fa_sunagwswhkvnsmuszlz.jpg,00770941201fa_sunaflojskatpeqyzqp.jpg,00804960530fa.jpg,sunagwswhkvnsmuszlz.jpg,00770941201fa.jpg,sunaflojskatpeqyzqp.jpg,,,>,Place,,,,,1,,,,,,,x
203,3,Presentation,4,00498960627fa_sunabzjxlmkwnwzimua.jpg,00753941201fa_sunafcofuuzebuadceo.jpg,00498960627fa.jpg,sunabzjxlmkwnwzimua.jpg,00753941201fa.jpg,sunafcofuuzebuadceo.jpg,,,<,Face,,,,,1,,,,,,,o
204,3,Presentation,4,00081941031fa_sunaaftlyfudyzuhqzf.jpg,00989960627fa_sunbondbduabvijnmch.jpg,00081941031fa.jpg,sunaaftlyfudyzuhqzf.jpg,00989960627fa.jpg,sunbondbduabvijnmch.jpg,,,<,Place,,,,,1,,,,,,,x
205,3,Presentation,4,00636941031fa_sunaddtdkycxbqlpfqa.jpg,00292940422fb_sunabrjdpmoedcdjbpo.jpg,00636941031fa.jpg,sunaddtdkycxbqlpfqa.jpg,00292940422fb.jpg,sunabrjdpmoedcdjbpo.jpg,,,>,Face,,,,,1,,,,,,,o
206,3,Presentation,4,00145931230fb_sunaatjesvdupctftmn.jpg,00775941205fa_sunafvwfsmqkjrutjta.jpg,00145931230fb.jpg,sunaatjesvdupctftmn.jpg,00775941205fa.jpg,sunafvwfsmqkjrutjta.jpg,,,<,Face,,,,,1,,,,,,,o
207,3,Presentation,4,00772941201fa_sunafpfpiiujzoesnqg.jpg,00933960627fa_sunapwjkcxdaeqehfql.jpg,00772941201fa.jpg,sunafpfpiiujzoesnqg.jpg,00933960627fa.jpg,sunapwjkcxdaeqehfql.jpg,,,>,Face,,,,,1,,,,,,,x
208,3,Presentation,4,00915960620fa_sunapileznnbbmrwoei.jpg,00903960620fa_sunanainkqdvktzoxyl.jpg,00915960620fa.jpg,sunapileznnbbmrwoei.jpg,00903960620fa.jpg,sunanainkqdvktzoxyl.jpg,,,>,Place,,,,,1,,,,,,,o
209,3,Presentation,4,00847940307fa_sunaivdjruhkrfywfed.jpg,00827940307fa_sunahtfxgsrmkiulnwk.jpg,00847940307fa.jpg,sunaivdjruhkrfywfed.jpg,00827940307fa.jpg,sunahtfxgsrmkiulnwk.jpg,,,>,Place,,,,,1,,,,,,,o
210,3,Memory,4,,,,,,,sunafpfpiiujzoesnqg.jpg,,,,,,,,,,,,,,,
211,3,Memory,4,,,,,,,00876960620fa.jpg,,,,,,,,,,,,,,,
212,3,Memory,4,,,,,,,00801941205fa.jpg,,,,,,,,,,,,,,,
213,3,Memory,4,,,,,,,00987960627fa.jpg,,,,,,,,,,,,,,,
214,3,Memory,4,,,,,,,sunahqldjibofgsfdgb.jpg,,,,,,,,,,,,,,,
215,3,Memory,4,,,,,,,sunafcofuuzebuadceo.jpg,,,,,,,,,,,,,,,
216,3,Memory,4,,,,,,,sunbondbduabvijnmch.jpg,,,,,,,,,,,,,,,
217,3,Memory,4,,,,,,,sunagvprlbprarvgdvj.jpg,,,,,,,,,,,,,,,
218,3,Memory,4,,,,,,,00239940128fa.jpg,,,,,,,,,,,,,,,
219,3,Memory,4,,,,,,,00191940128fb.jpg,,,,,,,,,,,,,,,
220,3,Memory,4,,,,,,,00720960620fa.jpg,,,,,,,,,,,,,,,
221,3,Memory,4,,,,,,,sunadbhmrgrrpyzglxs.jpg,,,,,,,,,,,,,,,
222,3,Memory,4,,,,,,,sunabctlikybqabezjv.jpg,,,,,,,,,,,,,,,
223,3,Memory,4,,,,,,,00081941031fa.jpg,,,,,,,,,,,,,,,
224,3,Memory,4,,,,,,,00804960530fa.jpg,,,,,,,,,,,,,,,
225,3,Memory,4,,,,,,,sunagwswhkvnsmuszlz.jpg,,,,,,,,,,,,,,,
226,3,Memory,4,,,,,,,00775941205fa.jpg,,,,,,,,,,,,,,,
227,3,Memory,4,,,,,,,sunafxokyavhgptyfye.jpg,,,,,,,,,,,,,,,
228,3,Memory,4,,,,,,,sunafgzgbisbopcyslr.jpg,,,,,,,,,,,,,,,
229,3,Memory,4,,,,,,,sunbpvgllfdejxcpjqp.jpg,,,,,,,,,,,,,,,
230,3,Memory,4,,,,,,,00819940307fa.jpg,,,,,,,,,,,,,,,
231,3,Memory,4,,,,,,,sunapileznnbbmrwoei.jpg,,,,,,,,,,,,,,,
232,3,Memory,4,,,,,,,00989960627fa.jpg,,,,,,,,,,,,,,,
233,3,Memory,4,,,,,,,sunaaftlyfudyzuhqzf.jpg,,,,,,,,,,,,,,,
234,3,Memory,4,,,,,,,sunaawsdjisukbbginm.jpg,,,,,,,,,,,,,,,
235,3,Memory,4,,,,,,,sunahtfxgsrmkiulnwk.jpg,,,,,,,,,,,,,,,
236,3,Memory,4,,,,,,,00915960620fa.jpg,,,,,,,,,,,,,,,
237,3,Memory,4,,,,,,,sunaecpkgfewqqreqwe.jpg,,,,,,,,,,,,,,,
238,3,Memory,4,,,,,,,00996960627fa.jpg,,,,,,,,,,,,,,,
239,3,Memory,4,,,,,,,sunajwqkfsykceonyig.jpg,,,,,,,,,,,,,,,
240,3,Memory,4,,,,,,,00633940928fa.jpg,,,,,,,,,,,,,,,
241,3,Memory,4,,,,,,,00827940307fa.jpg,,,,,,,,,,,,,,,
242,3,Memory,4,,,,,,,00753941201fa.jpg,,,,,,,,,,,,,,,
243,3,Memory,4,,,,,,,00772941201fa.jpg,,,,,,,,,,,,,,,
244,3,Memory,4,,,,,,,00776941205fa.jpg,,,,,,,,,,,,,,,
245,3,Memory,4,,,,,,,00762941201fa.jpg,,,,,,,,,,,,,,,
246,3,Memory,4,,,,,,,sunafvwfsmqkjrutjta.jpg,,,,,,,,,,,,,,,
247,3,Memory,4,,,,,,,sunbloeoiozwjjsiamp.jpg,,,,,,,,,,,,,,,
248,3,Memory,4,,,,,,,sunaptrqvaooxfvktvw.jpg,,,,,,,,,,,,,,,
249,3,Memory,4,,,,,,,00931960627fa.jpg,,,,,,,,,,,,,,,
250,3,Presentation,5,00943960627fa_sunarpsxqkduedrrzyi.jpg,00060931230fa_sunaaehaikpckyjsety.jpg,00943960627fa.jpg,sunarpsxqkduedrrzyi.jpg,00060931230fa.jpg,sunaaehaikpckyjsety.jpg,,,>,Face,,,,,1,,,,,,,x
251,3,Presentation,5,00267940128fb_sunablfqiwfqomjarht.jpg,00138931230fa_sunaapfaivxqoynnwwp.jpg,00267940128fb.jpg,sunablfqiwfqomjarht.jpg,00138931230fa.jpg,sunaapfaivxqoynnwwp.jpg,,,>,Place,,,,,1,,,,,,,o
252,3,Presentation,5,00115931230fa_sunaakmxzhuceuiryah.jpg,00898960530fa_sunamkmeblgteyggink.jpg,00115931230fa.jpg,sunaakmxzhuceuiryah.jpg,00898960530fa.jpg,sunamkmeblgteyggink.jpg,,,<,Face,,,,,1,,,,,,,x
253,3,Presentation,5,00966960627fa_sunaygrtwrwfezqjizr.jpg,00967960627fa_sunbaejotfklekvpxcz.jpg,00966960627fa.jpg,sunaygrtwrwfezqjizr.jpg,00967960627fa.jpg,sunbaejotfklekvpxcz.jpg,,,<,Place,,,,,1,,,,,,,x
254,3,Presentation,5,00859940307fa_sunaiycurtqsfkvcaso.jpg,00211940128fa_sunabasphceswhwwqvv.jpg,00859940307fa.jpg,sunaiycurtqsfkvcaso.jpg,00211940128fa.jpg,sunabasphceswhwwqvv.jpg,,,<,Face,,,,,1,,,,,,,x
255,3,Presentation,5,00880960530fa_sunakmnfgklupjijsgf.jpg,00866940307fa_sunajbwkywmsqkldfml.jpg,00880960530fa.jpg,sunakmnfgklupjijsgf.jpg,00866940307fa.jpg,sunajbwkywmsqkldfml.jpg,,,>,Face,,,,,1,,,,,,,o
256,3,Presentation,5,00829940307fa_sunahwgbqkqcrwprgvh.jpg,00063931230fa_sunaaelyvurpntclgau.jpg,00829940307fa.jpg,sunahwgbqkqcrwprgvh.jpg,00063931230fa.jpg,sunaaelyvurpntclgau.jpg,,,<,Place,,,,,1,,,,,,,x
257,3,Presentation,5,00080931230fb_sunaafjszryxyavjzln.jpg,00162931230fb_sunaavjinpnkappuonm.jpg,00080931230fb.jpg,sunaafjszryxyavjzln.jpg,00162931230fb.jpg,sunaavjinpnkappuonm.jpg,,,<,Place,,,,,1,,,,,,,o
258,3,Presentation,5,00634940928fa_sunadcphrizvfpljiqt.jpg,00554940519fa_sunacfdkbsrughwqwtt.jpg,00634940928fa.jpg,sunadcphrizvfpljiqt.jpg,00554940519fa.jpg,sunacfdkbsrughwqwtt.jpg,,,>,Place,,,,,1,,,,,,,x
259,3,Presentation,5,00746941201fa_sunaetydippjxikifsb.jpg,00828940307fa_sunahuynahneraqftyz.jpg,00746941201fa.jpg,sunaetydippjxikifsb.jpg,00828940307fa.jpg,sunahuynahneraqftyz.jpg,,,>,Face,,,,,1,,,,,,,o
260,3,Memory,5,,,,,,,00063931230fa.jpg,,,,,,,,,,,,,,,
261,3,Memory,5,,,,,,,sunaedtgwjvvziytspa.jpg,,,,,,,,,,,,,,,
262,3,Memory,5,,,,,,,01009960627fa.jpg,,,,,,,,,,,,,,,
263,3,Memory,5,,,,,,,sunaapllqyqlykszopd.jpg,,,,,,,,,,,,,,,
264,3,Memory,5,,,,,,,00115931230fa.jpg,,,,,,,,,,,,,,,
265,3,Memory,5,,,,,,,00997960627fa.jpg,,,,,,,,,,,,,,,
266,3,Memory,5,,,,,,,00140931230fb.jpg,,,,,,,,,,,,,,,
267,3,Memory,5,,,,,,,00859940307fa.jpg,,,,,,,,,,,,,,,
268,3,Memory,5,,,,,,,sunagountlxpzkytsmp.jpg,,,,,,,,,,,,,,,
269,3,Memory,5,,,,,,,00788941205fa.jpg,,,,,,,,,,,,,,,
270,3,Memory,5,,,,,,,sunabjzyxcjnmztdonj.jpg,,,,,,,,,,,,,,,
271,3,Memory,5,,,,,,,00162931230fb.jpg,,,,,,,,,,,,,,,
272,3,Memory,5,,,,,,,00138931230fa.jpg,,,,,,,,,,,,,,,
273,3,Memory,5,,,,,,,00080931230fb.jpg,,,,,,,,,,,,,,,
274,3,Memory,5,,,,,,,00705941205fa.jpg,,,,,,,,,,,,,,,
275,3,Memory,5,,,,,,,sunaaelyvurpntclgau.jpg,,,,,,,,,,,,,,,
276,3,Memory,5,,,,,,,sunbaejotfklekvpxcz.jpg,,,,,,,,,,,,,,,
277,3,Memory,5,,,,,,,sunbxzweleltykebgan.jpg,,,,,,,,,,,,,,,
278,3,Memory,5,,,,,,,sunaavjinpnkappuonm.jpg,,,,,,,,,,,,,,,
279,3,Memory,5,,,,,,,sunaapfaivxqoynnwwp.jpg,,,,,,,,,,,,,,,
280,3,Memory,5,,,,,,,00723941201fa.jpg,,,,,,,,,,,,,,,
281,3,Memory,5,,,,,,,sunagwzdbtlixdhgolm.jpg,,,,,,,,,,,,,,,
282,3,Memory,5,,,,,,,sunabrwnslxalcohfre.jpg,,,,,,,,,,,,,,,
283,3,Memory,5,,,,,,,00799941205fa.jpg,,,,,,,,,,,,,,,
284,3,Memory,5,,,,,,,sunaiycurtqsfkvcaso.jpg,,,,,,,,,,,,,,,
285,3,Memory,5,,,,,,,00805941205fa.jpg,,,,,,,,,,,,,,,
286,3,Memory,5,,,,,,,sunadtlxenqqxsyjvix.jpg,,,,,,,,,,,,,,,
287,3,Memory,5,,,,,,,sunagutjvdvnhxejerz.jpg,,,,,,,,,,,,,,,
288,3,Memory,5,,,,,,,sunamkmeblgteyggink.jpg,,,,,,,,,,,,,,,
289,3,Memory,5,,,,,,,00296940422fa.jpg,,,,,,,,,,,,,,,
290,3,Memory,5,,,,,,,sunablfqiwfqomjarht.jpg,,,,,,,,,,,,,,,
291,3,Memory,5,,,,,,,00967960627fa.jpg,,,,,,,,,,,,,,,
292,3,Memory,5,,,,,,,00746941201fa.jpg,,,,,,,,,,,,,,,
293,3,Memory,5,,,,,,,00264940128fb.jpg,,,,,,,,,,,,,,,
294,3,Memory,5,,,,,,,00898960530fa.jpg,,,,,,,,,,,,,,,
295,3,Memory,5,,,,,,,sunaakmxzhuceuiryah.jpg,,,,,,,,,,,,,,,
296,3,Memory,5,,,,,,,sunaafjszryxyavjzln.jpg,,,,,,,,,,,,,,,
297,3,Memory,5,,,,,,,sunaetydippjxikifsb.jpg,,,,,,,,,,,,,,,
298,3,Memory,5,,,,,,,sunbtpilbhhbmhmeuzq.jpg,,,,,,,,,,,,,,,
299,3,Memory,5,,,,,,,00267940128fb.jpg,,,,,,,,,,,,,,,
300,3,Presentation,6,00795941205fa_sunagtumacdlmciqamz.jpg,00848940307fa_sunaivdylrawbmhryfp.jpg,00795941205fa.jpg,sunagtumacdlmciqamz.jpg,00848940307fa.jpg,sunaivdylrawbmhryfp.jpg,,,<,Place,,,,,1,,,,,,,o
301,3,Presentation,6,00130931230fa_sunaamvxnvouicstkjb.jpg,00921960627fa_sunapqkpqdfvxlbqwyo.jpg,00130931230fa.jpg,sunaamvxnvouicstkjb.jpg,00921960627fa.jpg,sunapqkpqdfvxlbqwyo.jpg,,,>,Face,,,,,0,,,,,,,x
302,3,Presentation,6,00132931230fb_sunaanjcbzdvtvblsdy.jpg,00122931230fa_sunaakxjfbrrequcjmx.jpg,00132931230fb.jpg,sunaanjcbzdvtvblsdy.jpg,00122931230fa.jpg,sunaakxjfbrrequcjmx.jpg,,,<,Place,,,,,0,,,,,,,o
303,3,Presentation,6,00095931230fa_sunaahzooisqkwlxwoz.jpg,00638941031fa_sunadfktsqjthoglcsm.jpg,00095931230fa.jpg,sunaahzooisqkwlxwoz.jpg,00638941031fa.jpg,sunadfktsqjthoglcsm.jpg,,,<,Face,,,,,1,,,,,,,x
304,3,Presentation,6,00245940128fa_sunabeyhmxodahoieyk.jpg,00242940128fa_sunabcuurugvxwparpk.jpg,00245940128fa.jpg,sunabeyhmxodahoieyk.jpg,00242940128fa.jpg,sunabcuurugvxwparpk.jpg,,,>,Place,,,,,1,,,,,,,o
305,3,Presentation,6,00990960627fa_sunbpflsdaxnddnwcqi.jpg,00959960627fa_sunavxokzybtomhbmvm.jpg,00990960627fa.jpg,sunbpflsdaxnddnwcqi.jpg,00959960627fa.jpg,sunavxokzybtomhbmvm.jpg,,,<,Face,,,,,1,,,,,,,x
306,3,Presentation,6,00482940519fa_sunabyfxcxhdebvdyfd.jpg,00532960627fa_sunaccdtpgenvcbcbcf.jpg,00482940519fa.jpg,sunabyfxcxhdebvdyfd.jpg,00532960627fa.jpg,sunaccdtpgenvcbcbcf.jpg,,,>,Place,,,,,1,,,,,,,o
307,3,Presentation,6,00797960620fa_sunagufzbeteqdjxais.jpg,00999960627fa_sunbvbrvgbpanfrawft.jpg,00797960620fa.jpg,sunagufzbeteqdjxais.jpg,00999960627fa.jpg,sunbvbrvgbpanfrawft.jpg,,,>,Face,,,,,1,,,,,,,x
308,3,Presentation,6,00271940422fa_sunabmbnddafmywtjjj.jpg,00787941205fa_sunagmwxxwymwojbvgi.jpg,00271940422fa.jpg,sunabmbnddafmywtjjj.jpg,00787941205fa.jpg,sunagmwxxwymwojbvgi.jpg,,,<,Face,,,,,0,,,,,,,x
309,3,Presentation,6,00227940128fa_sunabckqabszusgcykj.jpg,00783941205fa_sunagjeesomrwjsfqie.jpg,00227940128fa.jpg,sunabckqabszusgcykj.jpg,00783941205fa.jpg,sunagjeesomrwjsfqie.jpg,,,>,Place,,,,,1,,,,,,,o
310,3,Memory,6,,,,,,,00122931230fa.jpg,,,,,,,,,,,,,,,
311,3,Memory,6,,,,,,,sunagtumacdlmciqamz.jpg,,,,,,,,,,,,,,,
312,3,Memory,6,,,,,,,00795941205fa.jpg,,,,,,,,,,,,,,,
313,3,Memory,6,,,,,,,00783941205fa.jpg,,,,,,,,,,,,,,,
314,3,Memory,6,,,,,,,00245940128fa.jpg,,,,,,,,,,,,,,,
315,3,Memory,6,,,,,,,00910960530fa.jpg,,,,,,,,,,,,,,,
316,3,Memory,6,,,,,,,00130931230fa.jpg,,,,,,,,,,,,,,,
317,3,Memory,6,,,,,,,sunaccdtpgenvcbcbcf.jpg,,,,,,,,,,,,,,,
318,3,Memory,6,,,,,,,00782941205fa.jpg,,,,,,,,,,,,,,,
319,3,Memory,6,,,,,,,sunadrmfzmstgdjdcod.jpg,,,,,,,,,,,,,,,
320,3,Memory,6,,,,,,,sunaekgzpfilgjxpeyq.jpg,,,,,,,,,,,,,,,
321,3,Memory,6,,,,,,,00922960627fa.jpg,,,,,,,,,,,,,,,
322,3,Memory,6,,,,,,,00848940307fa.jpg,,,,,,,,,,,,,,,
323,3,Memory,6,,,,,,,00957960627fa.jpg,,,,,,,,,,,,,,,
324,3,Memory,6,,,,,,,00132931230fb.jpg,,,,,,,,,,,,,,,
325,3,Memory,6,,,,,,,sunagmwxxwymwojbvgi.jpg,,,,,,,,,,,,,,,
326,3,Memory,6,,,,,,,sunabeyhmxodahoieyk.jpg,,,,,,,,,,,,,,,
327,3,Memory,6,,,,,,,00214940128fa.jpg,,,,,,,,,,,,,,,
328,3,Memory,6,,,,,,,sunaanjcbzdvtvblsdy.jpg,,,,,,,,,,,,,,,
329,3,Memory,6,,,,,,,sunagfvluwixdsozaql.jpg,,,,,,,,,,,,,,,
330,3,Memory,6,,,,,,,sunaamvxnvouicstkjb.jpg,,,,,,,,,,,,,,,
331,3,Memory,6,,,,,,,sunapqkyghktgtosuuk.jpg,,,,,,,,,,,,,,,
332,3,Memory,6,,,,,,,sunaivdylrawbmhryfp.jpg,,,,,,,,,,,,,,,
333,3,Memory,6,,,,,,,sunavhxgmgrqsaptynb.jpg,,,,,,,,,,,,,,,
334,3,Memory,6,,,,,,,00694941121fa.jpg,,,,,,,,,,,,,,,
335,3,Memory,6,,,,,,,00949960627fb.jpg,,,,,,,,,,,,,,,
336,3,Memory,6,,,,,,,00950960627fa.jpg,,,,,,,,,,,,,,,
337,3,Memory,6,,,,,,,sunagjeesomrwjsfqie.jpg,,,,,,,,,,,,,,,
338,3,Memory,6,,,,,,,sunabbwggenhfbftyvi.jpg,,,,,,,,,,,,,,,
339,3,Memory,6,,,,,,,00730960620fa.jpg,,,,,,,,,,,,,,,
340,3,Memory,6,,,,,,,sunaofikylqtxphvdem.jpg,,,,,,,,,,,,,,,
341,3,Memory,6,,,,,,,sunabbafjowbzcvbucc.jpg,,,,,,,,,,,,,,,
342,3,Memory,6,,,,,,,sunabckqabszusgcykj.jpg,,,,,,,,,,,,,,,
343,3,Memory,6,,,,,,,00787941205fa.jpg,,,,,,,,,,,,,,,
344,3,Memory,6,,,,,,,00227940128fa.jpg,,,,,,,,,,,,,,,
345,3,Memory,6,,,,,,,00532960627fa.jpg,,,,,,,,,,,,,,,
346,3,Memory,6,,,,,,,sunaakxjfbrrequcjmx.jpg,,,,,,,,,,,,,,,
347,3,Memory,6,,,,,,,sunasnqkkyhilqkxiqm.jpg,,,,,,,,,,,,,,,
348,3,Memory,6,,,,,,,sunasrjlmglmjzbmqxb.jpg,,,,,,,,,,,,,,,
349,3,Memory,6,,,,,,,00218940128fa.jpg,,,,,,,,,,,,,,,
350,3,Presentation,7,00825940307fa_sunahrltmuwbiehihpe.jpg,00745941205fa_sunaeouogqolxvggaoq.jpg,00825940307fa.jpg,sunahrltmuwbiehihpe.jpg,00745941205fa.jpg,sunaeouogqolxvggaoq.jpg,,,>,Face,,,,,1,,,,,,,o
351,3,Presentation,7,00968960627fa_sunbagfpovqwbuexqdn.jpg,00120931230fa_sunaakxgygjfqrzpyoz.jpg,00968960627fa.jpg,sunbagfpovqwbuexqdn.jpg,00120931230fa.jpg,sunaakxgygjfqrzpyoz.jpg,,,>,Place,,,,,0,,,,,,,x
352,3,Presentation,7,00125931230fa_sunaalltyvjhbzhkmvg.jpg,00893960530Fa_sunaloffvbvysigxent.jpg,00125931230fa.jpg,sunaalltyvjhbzhkmvg.jpg,00893960530Fa.jpg,sunaloffvbvysigxent.jpg,,,<,Face,,,,,1,,,,,,,o
353,3,Presentation,7,00972960627fa_sunbbfqwjpdxniyhies.jpg,00760960620fa_sunaffstbkappprzxnv.jpg,00972960627fa.jpg,sunbbfqwjpdxniyhies.jpg,00760960620fa.jpg,sunaffstbkappprzxnv.jpg,,,<,Place,,,,,1,,,,,,,o
354,3,Presentation,7,00147931230fb_sunaatpkocdkocwxpkb.jpg,00979960627fa_sunbdycacjfaujxitbw.jpg,00147931230fb.jpg,sunaatpkocdkocwxpkb.jpg,00979960627fa.jpg,sunbdycacjfaujxitbw.jpg,,,>,Place,,,,,1,,,,,,,x
355,3,Presentation,7,00098931230fa_sunaajpqmulidejvjsr.jpg,00926960627Fa_sunapqwoeotxshkukbh.jpg,00098931230fa.jpg,sunaajpqmulidejvjsr.jpg,00926960627Fa.jpg,sunapqwoeotxshkukbh.jpg,,,<,Face,,,,,1,,,,,,,x
356,3,Presentation,7,00988960627fa_sunbmaiocftdtvnzgap.jpg,00938960627fa_sunaqyylsngywqzwfmx.jpg,00988960627fa.jpg,sunbmaiocftdtvnzgap.jpg,00938960627fa.jpg,sunaqyylsngywqzwfmx.jpg,,,>,Place,,,,,1,,,,,,,x
357,3,Presentation,7,00919960620fa_sunapmfmzadmosuogaz.jpg,00571940928fa_sunacuatpqpqhyjhjqk.jpg,00919960620fa.jpg,sunapmfmzadmosuogaz.jpg,00571940928fa.jpg,sunacuatpqpqhyjhjqk.jpg,,,<,Face,,,,,1,,,,,,,x
358,3,Presentation,7,00792941205fa_sunagsiwrmuixqgdimb.jpg,00796941205fa_sunaguchqqnrtodtezq.jpg,00792941205fa.jpg,sunagsiwrmuixqgdimb.jpg,00796941205fa.jpg,sunaguchqqnrtodtezq.jpg,,,<,Place,,,,,1,,,,,,,o
359,3,Presentation,7,00900960530fa_sunamlotskmmsjeogby.jpg,00800941205fb_sunagvjurcwdbixvnyi.jpg,00900960530fa.jpg,sunamlotskmmsjeogby.jpg,00800941205fb.jpg,sunagvjurcwdbixvnyi.jpg,,,>,Face,,,,,1,,,,,,,x
360,3,Memory,7,,,,,,,sunaguchqqnrtodtezq.jpg,,,,,,,,,,,,,,,
361,3,Memory,7,,,,,,,00778941205fa.jpg,,,,,,,,,,,,,,,
362,3,Memory,7,,,,,,,00810941205fa.jpg,,,,,,,,,,,,,,,
363,3,Memory,7,,,,,,,00926960627Fa.jpg,,,,,,,,,,,,,,,
364,3,Memory,7,,,,,,,00120931230fa.jpg,,,,,,,,,,,,,,,
365,3,Memory,7,,,,,,,sunbbfqwjpdxniyhies.jpg,,,,,,,,,,,,,,,
366,3,Memory,7,,,,,,,00952960627fa.jpg,,,,,,,,,,,,,,,
367,3,Memory,7,,,,,,,00743941201fa.jpg,,,,,,,,,,,,,,,
368,3,Memory,7,,,,,,,00972960627fa.jpg,,,,,,,,,,,,,,,
369,3,Memory,7,,,,,,,sunaakxgygjfqrzpyoz.jpg,,,,,,,,,,,,,,,
370,3,Memory,7,,,,,,,sunaqyylsngywqzwfmx.jpg,,,,,,,,,,,,,,,
371,3,Memory,7,,,,,,,00147931230fb.jpg,,,,,,,,,,,,,,,
372,3,Memory,7,,,,,,,00784941205fb.jpg,,,,,,,,,,,,,,,
373,3,Memory,7,,,,,,,sunbmaiocftdtvnzgap.jpg,,,,,,,,,,,,,,,
374,3,Memory,7,,,,,,,sunaffstbkappprzxnv.jpg,,,,,,,,,,,,,,,
375,3,Memory,7,,,,,,,sunapmfmzadmosuogaz.jpg,,,,,,,,,,,,,,,
376,3,Memory,7,,,,,,,00773941201fa.jpg,,,,,,,,,,,,,,,
377,3,Memory,7,,,,,,,sunahawfngukizslzsd.jpg,,,,,,,,,,,,,,,
378,3,Memory,7,,,,,,,sunathzzbcwjykldrem.jpg,,,,,,,,,,,,,,,
379,3,Memory,7,,,,,,,sunapqwoeotxshkukbh.jpg,,,,,,,,,,,,,,,
380,3,Memory,7,,,,,,,00968960627fa.jpg,,,,,,,,,,,,,,,
381,3,Memory,7,,,,,,,00938960627fa.jpg,,,,,,,,,,,,,,,
382,3,Memory,7,,,,,,,sunahctntqrunhdxhtb.jpg,,,,,,,,,,,,,,,
383,3,Memory,7,,,,,,,sunagjzcrjvmxzqzljx.jpg,,,,,,,,,,,,,,,
384,3,Memory,7,,,,,,,00919960620fa.jpg,,,,,,,,,,,,,,,
385,3,Memory,7,,,,,,,sunaatpkocdkocwxpkb.jpg,,,,,,,,,,,,,,,
386,3,Memory,7,,,,,,,00807941205fa.jpg,,,,,,,,,,,,,,,
387,3,Memory,7,,,,,,,00630940928fa.jpg,,,,,,,,,,,,,,,
388,3,Memory,7,,,,,,,sunaczwgyukesaajxnx.jpg,,,,,,,,,,,,,,,
389,3,Memory,7,,,,,,,sunagcthdfirrcawoic.jpg,,,,,,,,,,,,,,,
390,3,Memory,7,,,,,,,sunafvcflzhlqloapyo.jpg,,,,,,,,,,,,,,,
391,3,Memory,7,,,,,,,00988960627fa.jpg,,,,,,,,,,,,,,,
392,3,Memory,7,,,,,,,sunabanoxjtqxamkucc.jpg,,,,,,,,,,,,,,,
393,3,Memory,7,,,,,,,00210940128fb.jpg,,,,,,,,,,,,,,,
394,3,Memory,7,,,,,,,00093931230fa.jpg,,,,,,,,,,,,,,,
395,3,Memory,7,,,,,,,sunaeoghzrjarigmwua.jpg,,,,,,,,,,,,,,,
396,3,Memory,7,,,,,,,00796941205fa.jpg,,,,,,,,,,,,,,,
397,3,Memory,7,,,,,,,sunaahwnmtqsrhocysw.jpg,,,,,,,,,,,,,,,
398,3,Memory,7,,,,,,,00760960620fa.jpg,,,,,,,,,,,,,,,
399,3,Memory,7,,,,,,,sunbagfpovqwbuexqdn.jpg,,,,,,,,,,,,,,,
