,Subject,Trial Type,Run,Cued Composite,Uncued Composite,Cued Face,Cued Place,Uncued Face,Uncued Place,Memory Image,Category,Cued Side,Cued Category,Attention Reaction Time (s),Familiarity Reaction Time (s),Familiarity Rating,Attention Level,Cue Validity,Post Invalid Cue,Pre Invalid Cue,Attention Button,Rating History,Stimulus Onset,Stimulus End,Attention Probe
0,17,Presentation,0,00871940307_sunajrujcsdxmfbssmc.jpg,00979960627fa_sunbdycacjfaujxitbw.jpg,00871940307.jpg,sunajrujcsdxmfbssmc.jpg,00979960627fa.jpg,sunbdycacjfaujxitbw.jpg,,,<,Place,,,,,1,,,,,,,x
1,17,Presentation,0,00970960627fa_sunbasypfgzjtomktmu.jpg,00877960530fa_sunajxpkuhbizeveguy.jpg,00970960627fa.jpg,sunbasypfgzjtomktmu.jpg,00877960530fa.jpg,sunajxpkuhbizeveguy.jpg,,,<,Place,,,,,1,,,,,,,x
2,17,Presentation,0,00214940128fa_sunabbafjowbzcvbucc.jpg,00098931230fa_sunaajpqmulidejvjsr.jpg,00214940128fa.jpg,sunabbafjowbzcvbucc.jpg,00098931230fa.jpg,sunaajpqmulidejvjsr.jpg,,,<,Place,,,,,1,,,,,,,o
3,17,Presentation,0,00790941205fa_sunagpjzsbltchlwvou.jpg,00262940128fa_sunabizydfotqddlnjp.jpg,00790941205fa.jpg,sunagpjzsbltchlwvou.jpg,00262940128fa.jpg,sunabizydfotqddlnjp.jpg,,,<,Place,,,,,1,,,,,,,o
4,17,Presentation,0,00564941031fa_sunacsaovnjezqwbykf.jpg,00780960530fa_sunagetqixeypsysbpn.jpg,00564941031fa.jpg,sunacsaovnjezqwbykf.jpg,00780960530fa.jpg,sunagetqixeypsysbpn.jpg,,,<,Place,,,,,1,,,,,,,o
5,17,Presentation,0,00280940422fb_sunabohxbskznglnrhv.jpg,00076931230fa_sunaafewhewbxmjiurz.jpg,00280940422fb.jpg,sunabohxbskznglnrhv.jpg,00076931230fa.jpg,sunaafewhewbxmjiurz.jpg,,,<,Place,,,,,1,,,,,,,x
6,17,Presentation,0,00952960627fa_sunathzzbcwjykldrem.jpg,00922960627fa_sunapqkyghktgtosuuk.jpg,00952960627fa.jpg,sunathzzbcwjykldrem.jpg,00922960627fa.jpg,sunapqkyghktgtosuuk.jpg,,,<,Place,,,,,1,,,,,,,x
7,17,Presentation,0,00112931230fa_sunaakjaacuzulqckgl.jpg,00532960627fa_sunaccdtpgenvcbcbcf.jpg,00112931230fa.jpg,sunaakjaacuzulqckgl.jpg,00532960627fa.jpg,sunaccdtpgenvcbcbcf.jpg,,,<,Place,,,,,1,,,,,,,x
8,17,Presentation,0,00498960627fa_sunabzjxlmkwnwzimua.jpg,00774941201fa_sunafvtpfczkzopbgue.jpg,00498960627fa.jpg,sunabzjxlmkwnwzimua.jpg,00774941201fa.jpg,sunafvtpfczkzopbgue.jpg,,,<,Place,,,,,1,,,,,,,x
9,17,Presentation,0,00854940307fa_sunaiwduelojtwaqeyh.jpg,00783941205fa_sunagjeesomrwjsfqie.jpg,00854940307fa.jpg,sunaiwduelojtwaqeyh.jpg,00783941205fa.jpg,sunagjeesomrwjsfqie.jpg,,,<,Place,,,,,1,,,,,,,x
10,17,Memory,0,,,,,,,sunaiwduelojtwaqeyh.jpg,,,,,,,,,,,,,,,
11,17,Memory,0,,,,,,,00957960627fa.jpg,,,,,,,,,,,,,,,
12,17,Memory,0,,,,,,,sunahawfngukizslzsd.jpg,,,,,,,,,,,,,,,
13,17,Memory,0,,,,,,,sunajbwkywmsqkldfml.jpg,,,,,,,,,,,,,,,
14,17,Memory,0,,,,,,,00098931230fa.jpg,,,,,,,,,,,,,,,
15,17,Memory,0,,,,,,,00564941031fa.jpg,,,,,,,,,,,,,,,
16,17,Memory,0,,,,,,,sunabxmguapjekttvwm.jpg,,,,,,,,,,,,,,,
17,17,Memory,0,,,,,,,sunavhxgmgrqsaptynb.jpg,,,,,,,,,,,,,,,
18,17,Memory,0,,,,,,,sunafvsxtzaizojicxx.jpg,,,,,,,,,,,,,,,
19,17,Memory,0,,,,,,,sunaajpqmulidejvjsr.jpg,,,,,,,,,,,,,,,
20,17,Memory,0,,,,,,,00498960627fa.jpg,,,,,,,,,,,,,,,
21,17,Memory,0,,,,,,,00774941201fa.jpg,,,,,,,,,,,,,,,
22,17,Memory,0,,,,,,,00185940422fb.jpg,,,,,,,,,,,,,,,
23,17,Memory,0,,,,,,,sunbgklxeqjhdbyfhhy.jpg,,,,,,,,,,,,,,,
24,17,Memory,0,,,,,,,00780960530fa.jpg,,,,,,,,,,,,,,,
25,17,Memory,0,,,,,,,sunbasypfgzjtomktmu.jpg,,,,,,,,,,,,,,,
26,17,Memory,0,,,,,,,00760960620fa.jpg,,,,,,,,,,,,,,,
27,17,Memory,0,,,,,,,sunaawqdbpihmlbwyyn.jpg,,,,,,,,,,,,,,,
28,17,Memory,0,,,,,,,sunathzzbcwjykldrem.jpg,,,,,,,,,,,,,,,
29,17,Memory,0,,,,,,,00854940307fa.jpg,,,,,,,,,,,,,,,
30,17,Memory,0,,,,,,,sunabizydfotqddlnjp.jpg,,,,,,,,,,,,,,,
31,17,Memory,0,,,,,,,sunafvtpfczkzopbgue.jpg,,,,,,,,,,,,,,,
32,17,Memory,0,,,,,,,00985960627fa.jpg,,,,,,,,,,,,,,,
33,17,Memory,0,,,,,,,sunagjeesomrwjsfqie.jpg,,,,,,,,,,,,,,,
34,17,Memory,0,,,,,,,sunbbfqwjpdxniyhies.jpg,,,,,,,,,,,,,,,
35,17,Memory,0,,,,,,,00972960627fa.jpg,,,,,,,,,,,,,,,
36,17,Memory,0,,,,,,,sunacsaovnjezqwbykf.jpg,,,,,,,,,,,,,,,
37,17,Memory,0,,,,,,,00866940307fa.jpg,,,,,,,,,,,,,,,
38,17,Memory,0,,,,,,,00262940128fa.jpg,,,,,,,,,,,,,,,
39,17,Memory,0,,,,,,,00773960620fa.jpg,,,,,,,,,,,,,,,
40,17,Memory,0,,,,,,,00783941205fa.jpg,,,,,,,,,,,,,,,
41,17,Memory,0,,,,,,,00970960627fa.jpg,,,,,,,,,,,,,,,
42,17,Memory,0,,,,,,,sunaffstbkappprzxnv.jpg,,,,,,,,,,,,,,,
43,17,Memory,0,,,,,,,sunaavtbadenwnzeutj.jpg,,,,,,,,,,,,,,,
44,17,Memory,0,,,,,,,sunabzjxlmkwnwzimua.jpg,,,,,,,,,,,,,,,
45,17,Memory,0,,,,,,,00184940128fa.jpg,,,,,,,,,,,,,,,
46,17,Memory,0,,,,,,,sunagetqixeypsysbpn.jpg,,,,,,,,,,,,,,,
47,17,Memory,0,,,,,,,00952960627fa.jpg,,,,,,,,,,,,,,,
48,17,Memory,0,,,,,,,00316940422fa.jpg,,,,,,,,,,,,,,,
49,17,Memory,0,,,,,,,00807941205fa.jpg,,,,,,,,,,,,,,,
50,17,Presentation,1,00766960620fa_sunafijbgncijwykrnl.jpg,00743941201fa_sunaeoghzrjarigmwua.jpg,00766960620fa.jpg,sunafijbgncijwykrnl.jpg,00743941201fa.jpg,sunaeoghzrjarigmwua.jpg,,,<,Face,,,,,1,,,,,,,o
51,17,Presentation,1,00482940519fa_sunabyfxcxhdebvdyfd.jpg,00966960627fa_sunaygrtwrwfezqjizr.jpg,00482940519fa.jpg,sunabyfxcxhdebvdyfd.jpg,00966960627fa.jpg,sunaygrtwrwfezqjizr.jpg,,,<,Face,,,,,0,,,,,,,x
52,17,Presentation,1,00071941031fa_sunaaexqbtdswxrqjvz.jpg,00723941201fa_sunaedtgwjvvziytspa.jpg,00071941031fa.jpg,sunaaexqbtdswxrqjvz.jpg,00723941201fa.jpg,sunaedtgwjvvziytspa.jpg,,,<,Face,,,,,0,,,,,,,o
53,17,Presentation,1,00996960627fa_sunbpvgllfdejxcpjqp.jpg,00147931230fb_sunaatpkocdkocwxpkb.jpg,00996960627fa.jpg,sunbpvgllfdejxcpjqp.jpg,00147931230fb.jpg,sunaatpkocdkocwxpkb.jpg,,,<,Face,,,,,1,,,,,,,o
54,17,Presentation,1,00635941031fa_sunaddsaeicthrfbkhe.jpg,00885960530fa_sunakwlvxjpddialozd.jpg,00635941031fa.jpg,sunaddsaeicthrfbkhe.jpg,00885960530fa.jpg,sunakwlvxjpddialozd.jpg,,,<,Face,,,,,1,,,,,,,x
55,17,Presentation,1,00908960530fa_sunanwjjyqqwzqrqagd.jpg,00801941205fa_sunagvprlbprarvgdvj.jpg,00908960530fa.jpg,sunanwjjyqqwzqrqagd.jpg,00801941205fa.jpg,sunagvprlbprarvgdvj.jpg,,,<,Face,,,,,1,,,,,,,o
56,17,Presentation,1,00943960627fa_sunarpsxqkduedrrzyi.jpg,00858940307fa_sunaixpqndlwhwjtjek.jpg,00943960627fa.jpg,sunarpsxqkduedrrzyi.jpg,00858940307fa.jpg,sunaixpqndlwhwjtjek.jpg,,,<,Face,,,,,1,,,,,,,x
57,17,Presentation,1,00675941121fa_sunadoxcchtmsxewsau.jpg,00812941205fa_sunahgtbwgsmtqeodwh.jpg,00675941121fa.jpg,sunadoxcchtmsxewsau.jpg,00812941205fa.jpg,sunahgtbwgsmtqeodwh.jpg,,,<,Face,,,,,1,,,,,,,x
58,17,Presentation,1,00559940519fa_sunacjkmnpawfzbyvae.jpg,00921960627fa_sunapqkpqdfvxlbqwyo.jpg,00559940519fa.jpg,sunacjkmnpawfzbyvae.jpg,00921960627fa.jpg,sunapqkpqdfvxlbqwyo.jpg,,,<,Face,,,,,1,,,,,,,x
59,17,Presentation,1,00895960530fa_sunamczizlzavhzhpay.jpg,00936960627fa_sunaqgjuuwvdcyiccjt.jpg,00895960530fa.jpg,sunamczizlzavhzhpay.jpg,00936960627fa.jpg,sunaqgjuuwvdcyiccjt.jpg,,,<,Face,,,,,0,,,,,,,o
60,17,Memory,1,,,,,,,00816941205fa.jpg,,,,,,,,,,,,,,,
61,17,Memory,1,,,,,,,sunaakxgygjfqrzpyoz.jpg,,,,,,,,,,,,,,,
62,17,Memory,1,,,,,,,sunaaexqbtdswxrqjvz.jpg,,,,,,,,,,,,,,,
63,17,Memory,1,,,,,,,sunafijbgncijwykrnl.jpg,,,,,,,,,,,,,,,
64,17,Memory,1,,,,,,,00559940519fa.jpg,,,,,,,,,,,,,,,
65,17,Memory,1,,,,,,,sunahbvlpavurqoxdeq.jpg,,,,,,,,,,,,,,,
66,17,Memory,1,,,,,,,sunaygrtwrwfezqjizr.jpg,,,,,,,,,,,,,,,
67,17,Memory,1,,,,,,,00858940307fa.jpg,,,,,,,,,,,,,,,
68,17,Memory,1,,,,,,,00681941121fa.jpg,,,,,,,,,,,,,,,
69,17,Memory,1,,,,,,,00966960627fa.jpg,,,,,,,,,,,,,,,
70,17,Memory,1,,,,,,,sunabyvpwkgsjtijdwj.jpg,,,,,,,,,,,,,,,
71,17,Memory,1,,,,,,,00120931230fa.jpg,,,,,,,,,,,,,,,
72,17,Memory,1,,,,,,,00895960530fa.jpg,,,,,,,,,,,,,,,
73,17,Memory,1,,,,,,,sunamczizlzavhzhpay.jpg,,,,,,,,,,,,,,,
74,17,Memory,1,,,,,,,sunadqmjrhfjyuzyvdd.jpg,,,,,,,,,,,,,,,
75,17,Memory,1,,,,,,,sunapqkpqdfvxlbqwyo.jpg,,,,,,,,,,,,,,,
76,17,Memory,1,,,,,,,00967960627fa.jpg,,,,,,,,,,,,,,,
77,17,Memory,1,,,,,,,00766960620fa.jpg,,,,,,,,,,,,,,,
78,17,Memory,1,,,,,,,sunabrjdpmoedcdjbpo.jpg,,,,,,,,,,,,,,,
79,17,Memory,1,,,,,,,00292940422fb.jpg,,,,,,,,,,,,,,,
80,17,Memory,1,,,,,,,00065931230fb.jpg,,,,,,,,,,,,,,,
81,17,Memory,1,,,,,,,00809960620fa.jpg,,,,,,,,,,,,,,,
82,17,Memory,1,,,,,,,00483940519fa.jpg,,,,,,,,,,,,,,,
83,17,Memory,1,,,,,,,sunabwfvcqqidycwypa.jpg,,,,,,,,,,,,,,,
84,17,Memory,1,,,,,,,00071941031fa.jpg,,,,,,,,,,,,,,,
85,17,Memory,1,,,,,,,sunakwlvxjpddialozd.jpg,,,,,,,,,,,,,,,
86,17,Memory,1,,,,,,,sunahmhrncocyhsjpxk.jpg,,,,,,,,,,,,,,,
87,17,Memory,1,,,,,,,sunaedtgwjvvziytspa.jpg,,,,,,,,,,,,,,,
88,17,Memory,1,,,,,,,00885960530fa.jpg,,,,,,,,,,,,,,,
89,17,Memory,1,,,,,,,sunacjkmnpawfzbyvae.jpg,,,,,,,,,,,,,,,
90,17,Memory,1,,,,,,,00730960620fa.jpg,,,,,,,,,,,,,,,
91,17,Memory,1,,,,,,,sunbpvgllfdejxcpjqp.jpg,,,,,,,,,,,,,,,
92,17,Memory,1,,,,,,,00996960627fa.jpg,,,,,,,,,,,,,,,
93,17,Memory,1,,,,,,,sunaixpqndlwhwjtjek.jpg,,,,,,,,,,,,,,,
94,17,Memory,1,,,,,,,sunaaemixhfquhnxxlm.jpg,,,,,,,,,,,,,,,
95,17,Memory,1,,,,,,,00308940422fb.jpg,,,,,,,,,,,,,,,
96,17,Memory,1,,,,,,,sunbaejotfklekvpxcz.jpg,,,,,,,,,,,,,,,
97,17,Memory,1,,,,,,,sunaekgzpfilgjxpeyq.jpg,,,,,,,,,,,,,,,
98,17,Memory,1,,,,,,,00723941201fa.jpg,,,,,,,,,,,,,,,
99,17,Memory,1,,,,,,,00921960627fa.jpg,,,,,,,,,,,,,,,
100,17,Presentation,2,00894960620fa_sunalqmfgeadpqsyzpd.jpg,00146960620fb_sunaatpeezlljqaxlhj.jpg,00894960620fa.jpg,sunalqmfgeadpqsyzpd.jpg,00146960620fb.jpg,sunaatpeezlljqaxlhj.jpg,,,>,Face,,,,,1,,,,,,,o
101,17,Presentation,2,00893960530Fa_sunaloffvbvysigxent.jpg,00719960620fa_sunadzuvtmtmgupotmf.jpg,00893960530Fa.jpg,sunaloffvbvysigxent.jpg,00719960620fa.jpg,sunadzuvtmtmgupotmf.jpg,,,>,Face,,,,,1,,,,,,,x
102,17,Presentation,2,00197940128fa_sunaaylzyqlqrsmfwif.jpg,00102931230fa_sunaajspcoepticvplv.jpg,00197940128fa.jpg,sunaaylzyqlqrsmfwif.jpg,00102931230fa.jpg,sunaajspcoepticvplv.jpg,,,>,Face,,,,,1,,,,,,,o
103,17,Presentation,2,00142931230fb_sunaapxkpvrhpjplsok.jpg,00131931230fb_sunaangbuylfvckqqoo.jpg,00142931230fb.jpg,sunaapxkpvrhpjplsok.jpg,00131931230fb.jpg,sunaangbuylfvckqqoo.jpg,,,>,Face,,,,,1,,,,,,,o
104,17,Presentation,2,00571940928fa_sunacuatpqpqhyjhjqk.jpg,00753941201fa_sunafcofuuzebuadceo.jpg,00571940928fa.jpg,sunacuatpqpqhyjhjqk.jpg,00753941201fa.jpg,sunafcofuuzebuadceo.jpg,,,>,Face,,,,,1,,,,,,,o
105,17,Presentation,2,00782941205fa_sunagfvluwixdsozaql.jpg,00136931230fb_sunaanptmsknhirrzed.jpg,00782941205fa.jpg,sunagfvluwixdsozaql.jpg,00136931230fb.jpg,sunaanptmsknhirrzed.jpg,,,>,Face,,,,,1,,,,,,,o
106,17,Presentation,2,00787941205fa_sunagmwxxwymwojbvgi.jpg,00786941205fa_sunagmhildamktmqjss.jpg,00787941205fa.jpg,sunagmwxxwymwojbvgi.jpg,00786941205fa.jpg,sunagmhildamktmqjss.jpg,,,>,Face,,,,,1,,,,,,,o
107,17,Presentation,2,00803941205fa_sunagvxkjokqimstxpe.jpg,00271940422fa_sunabmbnddafmywtjjj.jpg,00803941205fa.jpg,sunagvxkjokqimstxpe.jpg,00271940422fa.jpg,sunabmbnddafmywtjjj.jpg,,,>,Face,,,,,1,,,,,,,x
108,17,Presentation,2,00775941205fa_sunafvwfsmqkjrutjta.jpg,00838940307fa_sunaiozxhxgtfrmoagh.jpg,00775941205fa.jpg,sunafvwfsmqkjrutjta.jpg,00838940307fa.jpg,sunaiozxhxgtfrmoagh.jpg,,,>,Face,,,,,1,,,,,,,x
109,17,Presentation,2,00791941205fa_sunagrmyoovzukhxmlo.jpg,00163931230fb_sunaavodbcpygkggnfp.jpg,00791941205fa.jpg,sunagrmyoovzukhxmlo.jpg,00163931230fb.jpg,sunaavodbcpygkggnfp.jpg,,,>,Face,,,,,1,,,,,,,o
110,17,Memory,2,,,,,,,00905960530fa.jpg,,,,,,,,,,,,,,,
111,17,Memory,2,,,,,,,sunabmbnddafmywtjjj.jpg,,,,,,,,,,,,,,,
112,17,Memory,2,,,,,,,sunacuatpqpqhyjhjqk.jpg,,,,,,,,,,,,,,,
113,17,Memory,2,,,,,,,00786941205fa.jpg,,,,,,,,,,,,,,,
114,17,Memory,2,,,,,,,00753941201fa.jpg,,,,,,,,,,,,,,,
115,17,Memory,2,,,,,,,00126931230fb.jpg,,,,,,,,,,,,,,,
116,17,Memory,2,,,,,,,00719960620fa.jpg,,,,,,,,,,,,,,,
117,17,Memory,2,,,,,,,00266940128fb.jpg,,,,,,,,,,,,,,,
118,17,Memory,2,,,,,,,sunaapllqyqlykszopd.jpg,,,,,,,,,,,,,,,
119,17,Memory,2,,,,,,,sunagvxkjokqimstxpe.jpg,,,,,,,,,,,,,,,
120,17,Memory,2,,,,,,,sunaapxkpvrhpjplsok.jpg,,,,,,,,,,,,,,,
121,17,Memory,2,,,,,,,00227940128fa.jpg,,,,,,,,,,,,,,,
122,17,Memory,2,,,,,,,sunagmhildamktmqjss.jpg,,,,,,,,,,,,,,,
123,17,Memory,2,,,,,,,sunafcofuuzebuadceo.jpg,,,,,,,,,,,,,,,
124,17,Memory,2,,,,,,,00146960620fb.jpg,,,,,,,,,,,,,,,
125,17,Memory,2,,,,,,,sunanmoqeyprjjjfxjt.jpg,,,,,,,,,,,,,,,
126,17,Memory,2,,,,,,,sunaamdjwemxpmmtypi.jpg,,,,,,,,,,,,,,,
127,17,Memory,2,,,,,,,00910960530fa.jpg,,,,,,,,,,,,,,,
128,17,Memory,2,,,,,,,sunabllobxadqcyttej.jpg,,,,,,,,,,,,,,,
129,17,Memory,2,,,,,,,sunabckqabszusgcykj.jpg,,,,,,,,,,,,,,,
130,17,Memory,2,,,,,,,sunadzuvtmtmgupotmf.jpg,,,,,,,,,,,,,,,
131,17,Memory,2,,,,,,,sunaofikylqtxphvdem.jpg,,,,,,,,,,,,,,,
132,17,Memory,2,,,,,,,00142931230fb.jpg,,,,,,,,,,,,,,,
133,17,Memory,2,,,,,,,00803941205fa.jpg,,,,,,,,,,,,,,,
134,17,Memory,2,,,,,,,sunagmwxxwymwojbvgi.jpg,,,,,,,,,,,,,,,
135,17,Memory,2,,,,,,,sunagrmyoovzukhxmlo.jpg,,,,,,,,,,,,,,,
136,17,Memory,2,,,,,,,00787941205fa.jpg,,,,,,,,,,,,,,,
137,17,Memory,2,,,,,,,00270940422fb.jpg,,,,,,,,,,,,,,,
138,17,Memory,2,,,,,,,00961960627fa.jpg,,,,,,,,,,,,,,,
139,17,Memory,2,,,,,,,00140931230fb.jpg,,,,,,,,,,,,,,,
140,17,Memory,2,,,,,,,sunawotxrevnqvamsfp.jpg,,,,,,,,,,,,,,,
141,17,Memory,2,,,,,,,sunaahzooisqkwlxwoz.jpg,,,,,,,,,,,,,,,
142,17,Memory,2,,,,,,,00276940422fa.jpg,,,,,,,,,,,,,,,
143,17,Memory,2,,,,,,,00571940928fa.jpg,,,,,,,,,,,,,,,
144,17,Memory,2,,,,,,,00095931230fa.jpg,,,,,,,,,,,,,,,
145,17,Memory,2,,,,,,,sunabkngeblodihjvbk.jpg,,,,,,,,,,,,,,,
146,17,Memory,2,,,,,,,sunaatpeezlljqaxlhj.jpg,,,,,,,,,,,,,,,
147,17,Memory,2,,,,,,,00271940422fa.jpg,,,,,,,,,,,,,,,
148,17,Memory,2,,,,,,,00791941205fa.jpg,,,,,,,,,,,,,,,
149,17,Memory,2,,,,,,,sunabmytpyhsgigllxu.jpg,,,,,,,,,,,,,,,
150,17,Presentation,3,00913960530fa_sunaooffzffbhcpirmm.jpg,00784941205fb_sunagjzcrjvmxzqzljx.jpg,00913960530fa.jpg,sunaooffzffbhcpirmm.jpg,00784941205fb.jpg,sunagjzcrjvmxzqzljx.jpg,,,<,Place,,,,,1,,,,,,,x
151,17,Presentation,3,00313940422fa_sunabwjvmoaddlyxfjr.jpg,00906960530fa_sunantryfbloeaomfta.jpg,00313940422fa.jpg,sunabwjvmoaddlyxfjr.jpg,00906960530fa.jpg,sunantryfbloeaomfta.jpg,,,<,Place,,,,,1,,,,,,,o
152,17,Presentation,3,00987960627fa_sunbloeoiozwjjsiamp.jpg,00306940422fa_sunabueyoajufbkraki.jpg,00987960627fa.jpg,sunbloeoiozwjjsiamp.jpg,00306940422fa.jpg,sunabueyoajufbkraki.jpg,,,<,Place,,,,,1,,,,,,,x
153,17,Presentation,3,00090931230fa_sunaahedjlmtqekgyvj.jpg,00479940519fa_sunabxsbfwjccqxxzxq.jpg,00090931230fa.jpg,sunaahedjlmtqekgyvj.jpg,00479940519fa.jpg,sunabxsbfwjccqxxzxq.jpg,,,<,Place,,,,,0,,,,,,,o
154,17,Presentation,3,01005960627fa_sunbwyuesflwdpqtgoy.jpg,00728941205fa_sunaejnvnpltdmhbcsi.jpg,01005960627fa.jpg,sunbwyuesflwdpqtgoy.jpg,00728941205fa.jpg,sunaejnvnpltdmhbcsi.jpg,,,<,Place,,,,,1,,,,,,,x
155,17,Presentation,3,00130931230fa_sunaamvxnvouicstkjb.jpg,00914960620fa_sunaozisvwfbmlkfhzv.jpg,00130931230fa.jpg,sunaamvxnvouicstkjb.jpg,00914960620fa.jpg,sunaozisvwfbmlkfhzv.jpg,,,<,Place,,,,,1,,,,,,,x
156,17,Presentation,3,00554940519fa_sunacfdkbsrughwqwtt.jpg,00815941205fa_sunahiphsekjihkafsl.jpg,00554940519fa.jpg,sunacfdkbsrughwqwtt.jpg,00815941205fa.jpg,sunahiphsekjihkafsl.jpg,,,<,Place,,,,,1,,,,,,,o
157,17,Presentation,3,00314940422fa_sunabwmcbaxwioksdgw.jpg,00933960627fa_sunapwjkcxdaeqehfql.jpg,00314940422fa.jpg,sunabwmcbaxwioksdgw.jpg,00933960627fa.jpg,sunapwjkcxdaeqehfql.jpg,,,<,Place,,,,,0,,,,,,,o
158,17,Presentation,3,00294940422fb_sunabrlndkruqokhury.jpg,00574940928fa_sunacvbrcejzwmcgnoq.jpg,00294940422fb.jpg,sunabrlndkruqokhury.jpg,00574940928fa.jpg,sunacvbrcejzwmcgnoq.jpg,,,<,Place,,,,,1,,,,,,,o
159,17,Presentation,3,00096931230fa_sunaaiqiqcggrskoqgy.jpg,00260940128fa_sunabgfhvifeijihhjw.jpg,00096931230fa.jpg,sunaaiqiqcggrskoqgy.jpg,00260940128fa.jpg,sunabgfhvifeijihhjw.jpg,,,<,Place,,,,,1,,,,,,,x
160,17,Memory,3,,,,,,,00900960530fa.jpg,,,,,,,,,,,,,,,
161,17,Memory,3,,,,,,,00676941121fa.jpg,,,,,,,,,,,,,,,
162,17,Memory,3,,,,,,,sunaooffzffbhcpirmm.jpg,,,,,,,,,,,,,,,
163,17,Memory,3,,,,,,,sunaejnvnpltdmhbcsi.jpg,,,,,,,,,,,,,,,
164,17,Memory,3,,,,,,,00933960627fa.jpg,,,,,,,,,,,,,,,
165,17,Memory,3,,,,,,,00862940307fa.jpg,,,,,,,,,,,,,,,
166,17,Memory,3,,,,,,,sunagdzlvkqtpnfxfcg.jpg,,,,,,,,,,,,,,,
167,17,Memory,3,,,,,,,00815941205fa.jpg,,,,,,,,,,,,,,,
168,17,Memory,3,,,,,,,sunaahedjlmtqekgyvj.jpg,,,,,,,,,,,,,,,
169,17,Memory,3,,,,,,,00554940519fa.jpg,,,,,,,,,,,,,,,
170,17,Memory,3,,,,,,,sunahiphsekjihkafsl.jpg,,,,,,,,,,,,,,,
171,17,Memory,3,,,,,,,00787960620fa.jpg,,,,,,,,,,,,,,,
172,17,Memory,3,,,,,,,sunaamvxnvouicstkjb.jpg,,,,,,,,,,,,,,,
173,17,Memory,3,,,,,,,sunabgfhvifeijihhjw.jpg,,,,,,,,,,,,,,,
174,17,Memory,3,,,,,,,00294940422fb.jpg,,,,,,,,,,,,,,,
175,17,Memory,3,,,,,,,00130931230fa.jpg,,,,,,,,,,,,,,,
176,17,Memory,3,,,,,,,sunacfdkbsrughwqwtt.jpg,,,,,,,,,,,,,,,
177,17,Memory,3,,,,,,,00784941205fb.jpg,,,,,,,,,,,,,,,
178,17,Memory,3,,,,,,,sunbbxkanhzjgbwyxqs.jpg,,,,,,,,,,,,,,,
179,17,Memory,3,,,,,,,00751960620fa.jpg,,,,,,,,,,,,,,,
180,17,Memory,3,,,,,,,sunaajtnvzzpsjdzres.jpg,,,,,,,,,,,,,,,
181,17,Memory,3,,,,,,,00093931230fa.jpg,,,,,,,,,,,,,,,
182,17,Memory,3,,,,,,,00108960530fa.jpg,,,,,,,,,,,,,,,
183,17,Memory,3,,,,,,,sunaahwnmtqsrhocysw.jpg,,,,,,,,,,,,,,,
184,17,Memory,3,,,,,,,sunaezuszgtxnmsxdbk.jpg,,,,,,,,,,,,,,,
185,17,Memory,3,,,,,,,sunaeutbrtswvsozxyk.jpg,,,,,,,,,,,,,,,
186,17,Memory,3,,,,,,,sunaizgnnplsvajzhkc.jpg,,,,,,,,,,,,,,,
187,17,Memory,3,,,,,,,sunabrlndkruqokhury.jpg,,,,,,,,,,,,,,,
188,17,Memory,3,,,,,,,00728941205fa.jpg,,,,,,,,,,,,,,,
189,17,Memory,3,,,,,,,sunamlotskmmsjeogby.jpg,,,,,,,,,,,,,,,
190,17,Memory,3,,,,,,,00977960627fa.jpg,,,,,,,,,,,,,,,
191,17,Memory,3,,,,,,,00779941205fa.jpg,,,,,,,,,,,,,,,
192,17,Memory,3,,,,,,,sunapwjkcxdaeqehfql.jpg,,,,,,,,,,,,,,,
193,17,Memory,3,,,,,,,00913960530fa.jpg,,,,,,,,,,,,,,,
194,17,Memory,3,,,,,,,sunagjzcrjvmxzqzljx.jpg,,,,,,,,,,,,,,,
195,17,Memory,3,,,,,,,00260940128fa.jpg,,,,,,,,,,,,,,,
196,17,Memory,3,,,,,,,sunagoufulkpsxrmklt.jpg,,,,,,,,,,,,,,,
197,17,Memory,3,,,,,,,00090931230fa.jpg,,,,,,,,,,,,,,,
198,17,Memory,3,,,,,,,00747941201fa.jpg,,,,,,,,,,,,,,,
199,17,Memory,3,,,,,,,sunadpnqovzckyikrjo.jpg,,,,,,,,,,,,,,,
200,17,Presentation,4,00153931230fa_sunaauhozyxzeeqstxi.jpg,00926960627Fa_sunapqwoeotxshkukbh.jpg,00153931230fa.jpg,sunaauhozyxzeeqstxi.jpg,00926960627Fa.jpg,sunapqwoeotxshkukbh.jpg,,,>,Place,,,,,1,,,,,,,x
201,17,Presentation,4,00086931230fa_sunaafynehyrzpsoaml.jpg,00989960627fa_sunbondbduabvijnmch.jpg,00086931230fa.jpg,sunaafynehyrzpsoaml.jpg,00989960627fa.jpg,sunbondbduabvijnmch.jpg,,,>,Place,,,,,1,,,,,,,o
202,17,Presentation,4,00127931230fa_sunaampvucecsfbdafn.jpg,00889960530fa_sunaletopenvvozhpxc.jpg,00127931230fa.jpg,sunaampvucecsfbdafn.jpg,00889960530fa.jpg,sunaletopenvvozhpxc.jpg,,,>,Place,,,,,1,,,,,,,o
203,17,Presentation,4,00242940128fa_sunabcuurugvxwparpk.jpg,00296940422fa_sunabrwnslxalcohfre.jpg,00242940128fa.jpg,sunabcuurugvxwparpk.jpg,00296940422fa.jpg,sunabrwnslxalcohfre.jpg,,,>,Place,,,,,1,,,,,,,x
204,17,Presentation,4,00880960530fa_sunakmnfgklupjijsgf.jpg,00092931230fa_sunaaheqzstzxuadglu.jpg,00880960530fa.jpg,sunakmnfgklupjijsgf.jpg,00092931230fa.jpg,sunaaheqzstzxuadglu.jpg,,,>,Place,,,,,1,,,,,,,x
205,17,Presentation,4,00123931230fb_sunaalcrrdbjgdztbiz.jpg,00869940307fa_sunajoveqhiprwqgoco.jpg,00123931230fb.jpg,sunaalcrrdbjgdztbiz.jpg,00869940307fa.jpg,sunajoveqhiprwqgoco.jpg,,,>,Place,,,,,1,,,,,,,x
206,17,Presentation,4,00133931230fa_sunaanlwnpqndclffxt.jpg,00947960627fa_sunasmmcxdddtmtazwx.jpg,00133931230fa.jpg,sunaanlwnpqndclffxt.jpg,00947960627fa.jpg,sunasmmcxdddtmtazwx.jpg,,,>,Place,,,,,1,,,,,,,x
207,17,Presentation,4,00990960627fa_sunbpflsdaxnddnwcqi.jpg,00997960627fa_sunbtpilbhhbmhmeuzq.jpg,00990960627fa.jpg,sunbpflsdaxnddnwcqi.jpg,00997960627fa.jpg,sunbtpilbhhbmhmeuzq.jpg,,,>,Place,,,,,1,,,,,,,x
208,17,Presentation,4,00839940307fa_sunaipyohrqlwngaqif.jpg,00789960620fa_sunagpancjmxqfazssf.jpg,00839940307fa.jpg,sunaipyohrqlwngaqif.jpg,00789960620fa.jpg,sunagpancjmxqfazssf.jpg,,,>,Place,,,,,1,,,,,,,x
209,17,Presentation,4,00507940519fa_sunacacflqoyxhsqzhe.jpg,00929960627fa_sunaprnrbmgkomdbchr.jpg,00507940519fa.jpg,sunacacflqoyxhsqzhe.jpg,00929960627fa.jpg,sunaprnrbmgkomdbchr.jpg,,,>,Place,,,,,1,,,,,,,o
210,17,Memory,4,,,,,,,00789960620fa.jpg,,,,,,,,,,,,,,,
211,17,Memory,4,,,,,,,00770941201fa.jpg,,,,,,,,,,,,,,,
212,17,Memory,4,,,,,,,sunaflojskatpeqyzqp.jpg,,,,,,,,,,,,,,,
213,17,Memory,4,,,,,,,00694941121fa.jpg,,,,,,,,,,,,,,,
214,17,Memory,4,,,,,,,sunaipyohrqlwngaqif.jpg,,,,,,,,,,,,,,,
215,17,Memory,4,,,,,,,sunbpflsdaxnddnwcqi.jpg,,,,,,,,,,,,,,,
216,17,Memory,4,,,,,,,sunadrmfzmstgdjdcod.jpg,,,,,,,,,,,,,,,
217,17,Memory,4,,,,,,,00839940307fa.jpg,,,,,,,,,,,,,,,
218,17,Memory,4,,,,,,,00841940307fa.jpg,,,,,,,,,,,,,,,
219,17,Memory,4,,,,,,,sunabxsuqbleluwczoy.jpg,,,,,,,,,,,,,,,
220,17,Memory,4,,,,,,,00947960627fa.jpg,,,,,,,,,,,,,,,
221,17,Memory,4,,,,,,,01003960627fb.jpg,,,,,,,,,,,,,,,
222,17,Memory,4,,,,,,,sunawksfbacycuhbrsc.jpg,,,,,,,,,,,,,,,
223,17,Memory,4,,,,,,,sunaafvitpexrpvumsa.jpg,,,,,,,,,,,,,,,
224,17,Memory,4,,,,,,,00785941205fa.jpg,,,,,,,,,,,,,,,
225,17,Memory,4,,,,,,,sunasmmcxdddtmtazwx.jpg,,,,,,,,,,,,,,,
226,17,Memory,4,,,,,,,00662941121fa.jpg,,,,,,,,,,,,,,,
227,17,Memory,4,,,,,,,00889960530fa.jpg,,,,,,,,,,,,,,,
228,17,Memory,4,,,,,,,sunadkazmlajmohnwfl.jpg,,,,,,,,,,,,,,,
229,17,Memory,4,,,,,,,sunaalcrrdbjgdztbiz.jpg,,,,,,,,,,,,,,,
230,17,Memory,4,,,,,,,sunabcuurugvxwparpk.jpg,,,,,,,,,,,,,,,
231,17,Memory,4,,,,,,,sunagpancjmxqfazssf.jpg,,,,,,,,,,,,,,,
232,17,Memory,4,,,,,,,sunbwdrdvsweerwsdrj.jpg,,,,,,,,,,,,,,,
233,17,Memory,4,,,,,,,00960960627fa.jpg,,,,,,,,,,,,,,,
234,17,Memory,4,,,,,,,00153931230fa.jpg,,,,,,,,,,,,,,,
235,17,Memory,4,,,,,,,00123931230fb.jpg,,,,,,,,,,,,,,,
236,17,Memory,4,,,,,,,00481940519fa.jpg,,,,,,,,,,,,,,,
237,17,Memory,4,,,,,,,00296940422fa.jpg,,,,,,,,,,,,,,,
238,17,Memory,4,,,,,,,sunaauhozyxzeeqstxi.jpg,,,,,,,,,,,,,,,
239,17,Memory,4,,,,,,,sunaletopenvvozhpxc.jpg,,,,,,,,,,,,,,,
240,17,Memory,4,,,,,,,00777941205fa.jpg,,,,,,,,,,,,,,,
241,17,Memory,4,,,,,,,sunagcinxkccdtrjmlv.jpg,,,,,,,,,,,,,,,
242,17,Memory,4,,,,,,,00990960627fa.jpg,,,,,,,,,,,,,,,
243,17,Memory,4,,,,,,,sunbondbduabvijnmch.jpg,,,,,,,,,,,,,,,
244,17,Memory,4,,,,,,,sunaglqunwuycxydmyu.jpg,,,,,,,,,,,,,,,
245,17,Memory,4,,,,,,,sunaisiwfgppimtnmxl.jpg,,,,,,,,,,,,,,,
246,17,Memory,4,,,,,,,00082931230fa.jpg,,,,,,,,,,,,,,,
247,17,Memory,4,,,,,,,sunabrwnslxalcohfre.jpg,,,,,,,,,,,,,,,
248,17,Memory,4,,,,,,,00242940128fa.jpg,,,,,,,,,,,,,,,
249,17,Memory,4,,,,,,,00989960627fa.jpg,,,,,,,,,,,,,,,
250,17,Presentation,5,00788941205fa_sunagountlxpzkytsmp.jpg,00109931230fa_sunaajuzribjrizdshh.jpg,00788941205fa.jpg,sunagountlxpzkytsmp.jpg,00109931230fa.jpg,sunaajuzribjrizdshh.jpg,,,<,Face,,,,,1,,,,,,,o
251,17,Presentation,5,00942960627fa_sunarfdklgdnjgeqfjg.jpg,00129931230fb_sunaamsdyakblkfoydx.jpg,00942960627fa.jpg,sunarfdklgdnjgeqfjg.jpg,00129931230fb.jpg,sunaamsdyakblkfoydx.jpg,,,<,Face,,,,,1,,,,,,,x
252,17,Presentation,5,00827940307fa_sunahtfxgsrmkiulnwk.jpg,00562941031fa_sunacjnahdmqfnjfwqx.jpg,00827940307fa.jpg,sunahtfxgsrmkiulnwk.jpg,00562941031fa.jpg,sunacjnahdmqfnjfwqx.jpg,,,<,Face,,,,,1,,,,,,,o
253,17,Presentation,5,01002960627fb_sunbwaafjdebjzttuvq.jpg,00111931230fb_sunaakgekhjklxmvulj.jpg,01002960627fb.jpg,sunbwaafjdebjzttuvq.jpg,00111931230fb.jpg,sunaakgekhjklxmvulj.jpg,,,<,Face,,,,,1,,,,,,,x
254,17,Presentation,5,00700941121fa_sunadsgmtznewzyasnk.jpg,00805941205fa_sunagwzdbtlixdhgolm.jpg,00700941121fa.jpg,sunadsgmtznewzyasnk.jpg,00805941205fa.jpg,sunagwzdbtlixdhgolm.jpg,,,<,Face,,,,,1,,,,,,,o
255,17,Presentation,5,00221940128fa_sunabcfpwlpolnutyju.jpg,00860940307fa_sunaizeyhvjzknwjudw.jpg,00221940128fa.jpg,sunabcfpwlpolnutyju.jpg,00860940307fa.jpg,sunaizeyhvjzknwjudw.jpg,,,<,Face,,,,,0,,,,,,,o
256,17,Presentation,5,00235940128fb_sunabclssnoeuigtawp.jpg,00061931230fb_sunaaekxzjzrfgtkwjf.jpg,00235940128fb.jpg,sunabclssnoeuigtawp.jpg,00061931230fb.jpg,sunaaekxzjzrfgtkwjf.jpg,,,<,Face,,,,,1,,,,,,,x
257,17,Presentation,5,00122931230fa_sunaakxjfbrrequcjmx.jpg,00968960627fa_sunbagfpovqwbuexqdn.jpg,00122931230fa.jpg,sunaakxjfbrrequcjmx.jpg,00968960627fa.jpg,sunbagfpovqwbuexqdn.jpg,,,<,Face,,,,,1,,,,,,,x
258,17,Presentation,5,00263940128fb_sunabjuovqvyfuzvqwt.jpg,00719941201fa_sunadvithllcgmfxsrn.jpg,00263940128fb.jpg,sunabjuovqvyfuzvqwt.jpg,00719941201fa.jpg,sunadvithllcgmfxsrn.jpg,,,<,Face,,,,,1,,,,,,,o
259,17,Presentation,5,00116931230fa_sunaakqepfoeqomfgxf.jpg,00636941031fa_sunaddtdkycxbqlpfqa.jpg,00116931230fa.jpg,sunaakqepfoeqomfgxf.jpg,00636941031fa.jpg,sunaddtdkycxbqlpfqa.jpg,,,<,Face,,,,,1,,,,,,,x
260,17,Memory,5,,,,,,,00145931230fb.jpg,,,,,,,,,,,,,,,
261,17,Memory,5,,,,,,,sunaduslxfzlbxlllnz.jpg,,,,,,,,,,,,,,,
262,17,Memory,5,,,,,,,sunbagfpovqwbuexqdn.jpg,,,,,,,,,,,,,,,
263,17,Memory,5,,,,,,,00857940307fa.jpg,,,,,,,,,,,,,,,
264,17,Memory,5,,,,,,,sunbmaiocftdtvnzgap.jpg,,,,,,,,,,,,,,,
265,17,Memory,5,,,,,,,sunacvzhvcksnwqcqbw.jpg,,,,,,,,,,,,,,,
266,17,Memory,5,,,,,,,00063931230fa.jpg,,,,,,,,,,,,,,,
267,17,Memory,5,,,,,,,00968960627fa.jpg,,,,,,,,,,,,,,,
268,17,Memory,5,,,,,,,sunahtfxgsrmkiulnwk.jpg,,,,,,,,,,,,,,,
269,17,Memory,5,,,,,,,sunbxzweleltykebgan.jpg,,,,,,,,,,,,,,,
270,17,Memory,5,,,,,,,01009960627fa.jpg,,,,,,,,,,,,,,,
271,17,Memory,5,,,,,,,01002960627fb.jpg,,,,,,,,,,,,,,,
272,17,Memory,5,,,,,,,sunagwzdbtlixdhgolm.jpg,,,,,,,,,,,,,,,
273,17,Memory,5,,,,,,,sunabjuovqvyfuzvqwt.jpg,,,,,,,,,,,,,,,
274,17,Memory,5,,,,,,,sunaaekxzjzrfgtkwjf.jpg,,,,,,,,,,,,,,,
275,17,Memory,5,,,,,,,00630941031fa.jpg,,,,,,,,,,,,,,,
276,17,Memory,5,,,,,,,00705960530fa.jpg,,,,,,,,,,,,,,,
277,17,Memory,5,,,,,,,sunaatjesvdupctftmn.jpg,,,,,,,,,,,,,,,
278,17,Memory,5,,,,,,,sunacjnahdmqfnjfwqx.jpg,,,,,,,,,,,,,,,
279,17,Memory,5,,,,,,,00581940928fa.jpg,,,,,,,,,,,,,,,
280,17,Memory,5,,,,,,,00988960627fa.jpg,,,,,,,,,,,,,,,
281,17,Memory,5,,,,,,,sunaiwfobocrruqznsv.jpg,,,,,,,,,,,,,,,
282,17,Memory,5,,,,,,,00263940128fb.jpg,,,,,,,,,,,,,,,
283,17,Memory,5,,,,,,,sunaffgsyyvoqdlkmnk.jpg,,,,,,,,,,,,,,,
284,17,Memory,5,,,,,,,00071940128fa.jpg,,,,,,,,,,,,,,,
285,17,Memory,5,,,,,,,sunaaelyvurpntclgau.jpg,,,,,,,,,,,,,,,
286,17,Memory,5,,,,,,,sunbwaafjdebjzttuvq.jpg,,,,,,,,,,,,,,,
287,17,Memory,5,,,,,,,00719941201fa.jpg,,,,,,,,,,,,,,,
288,17,Memory,5,,,,,,,00562941031fa.jpg,,,,,,,,,,,,,,,
289,17,Memory,5,,,,,,,sunaakqepfoeqomfgxf.jpg,,,,,,,,,,,,,,,
290,17,Memory,5,,,,,,,sunaaexpnawiehinlpy.jpg,,,,,,,,,,,,,,,
291,17,Memory,5,,,,,,,00061931230fb.jpg,,,,,,,,,,,,,,,
292,17,Memory,5,,,,,,,00805941205fa.jpg,,,,,,,,,,,,,,,
293,17,Memory,5,,,,,,,sunadvithllcgmfxsrn.jpg,,,,,,,,,,,,,,,
294,17,Memory,5,,,,,,,00221940128fa.jpg,,,,,,,,,,,,,,,
295,17,Memory,5,,,,,,,sunadakkdovnuzlycvp.jpg,,,,,,,,,,,,,,,
296,17,Memory,5,,,,,,,sunabcfpwlpolnutyju.jpg,,,,,,,,,,,,,,,
297,17,Memory,5,,,,,,,00116931230fa.jpg,,,,,,,,,,,,,,,
298,17,Memory,5,,,,,,,00754941201fa.jpg,,,,,,,,,,,,,,,
299,17,Memory,5,,,,,,,00827940307fa.jpg,,,,,,,,,,,,,,,
300,17,Presentation,6,00903960620fa_sunanainkqdvktzoxyl.jpg,00264940128fb_sunabjzyxcjnmztdonj.jpg,00903960620fa.jpg,sunanainkqdvktzoxyl.jpg,00264940128fb.jpg,sunabjzyxcjnmztdonj.jpg,,,>,Face,,,,,1,,,,,,,o
301,17,Presentation,6,00742941201fa_sunaenwuebvlpdmntju.jpg,00795941205fa_sunagtumacdlmciqamz.jpg,00742941201fa.jpg,sunaenwuebvlpdmntju.jpg,00795941205fa.jpg,sunagtumacdlmciqamz.jpg,,,>,Face,,,,,1,,,,,,,o
302,17,Presentation,6,00848940307fa_sunaivdylrawbmhryfp.jpg,00124931230fa_sunaalhlvzmjmitybdn.jpg,00848940307fa.jpg,sunaivdylrawbmhryfp.jpg,00124931230fa.jpg,sunaalhlvzmjmitybdn.jpg,,,>,Face,,,,,1,,,,,,,x
303,17,Presentation,6,00825940307fa_sunahrltmuwbiehihpe.jpg,00892960530fa_sunalntxqqadigcletd.jpg,00825940307fa.jpg,sunahrltmuwbiehihpe.jpg,00892960530fa.jpg,sunalntxqqadigcletd.jpg,,,>,Face,,,,,1,,,,,,,o
304,17,Presentation,6,00876960620fa_sunajwqkfsykceonyig.jpg,00097931230fa_sunaajayojuslbbnneg.jpg,00876960620fa.jpg,sunajwqkfsykceonyig.jpg,00097931230fa.jpg,sunaajayojuslbbnneg.jpg,,,>,Face,,,,,1,,,,,,,x
305,17,Presentation,6,00609940928fa_sunacycdoztxoluxjyk.jpg,00648941031fa_sunadfndyrtqqiasoig.jpg,00609940928fa.jpg,sunacycdoztxoluxjyk.jpg,00648941031fa.jpg,sunadfndyrtqqiasoig.jpg,,,>,Face,,,,,0,,,,,,,x
306,17,Presentation,6,00882960530fa_sunaknlirqjqiwbbeeg.jpg,00818940307fa_sunahpblecxtmuzkmxb.jpg,00882960530fa.jpg,sunaknlirqjqiwbbeeg.jpg,00818940307fa.jpg,sunahpblecxtmuzkmxb.jpg,,,>,Face,,,,,1,,,,,,,o
307,17,Presentation,6,00919960620fa_sunapmfmzadmosuogaz.jpg,00245940128fa_sunabeyhmxodahoieyk.jpg,00919960620fa.jpg,sunapmfmzadmosuogaz.jpg,00245940128fa.jpg,sunabeyhmxodahoieyk.jpg,,,>,Face,,,,,1,,,,,,,o
308,17,Presentation,6,00799941205fa_sunagutjvdvnhxejerz.jpg,00898960530fa_sunamkmeblgteyggink.jpg,00799941205fa.jpg,sunagutjvdvnhxejerz.jpg,00898960530fa.jpg,sunamkmeblgteyggink.jpg,,,>,Face,,,,,1,,,,,,,x
309,17,Presentation,6,00836940307fa_sunainqelldeebvxtcz.jpg,00749941201fa_sunaeuvjbmdpknaqqaj.jpg,00836940307fa.jpg,sunainqelldeebvxtcz.jpg,00749941201fa.jpg,sunaeuvjbmdpknaqqaj.jpg,,,>,Face,,,,,1,,,,,,,o
310,17,Memory,6,,,,,,,sunaenwuebvlpdmntju.jpg,,,,,,,,,,,,,,,
311,17,Memory,6,,,,,,,00973960627fa.jpg,,,,,,,,,,,,,,,
312,17,Memory,6,,,,,,,sunagufzbeteqdjxais.jpg,,,,,,,,,,,,,,,
313,17,Memory,6,,,,,,,00194940128fb.jpg,,,,,,,,,,,,,,,
314,17,Memory,6,,,,,,,00097931230fa.jpg,,,,,,,,,,,,,,,
315,17,Memory,6,,,,,,,00742941201fa.jpg,,,,,,,,,,,,,,,
316,17,Memory,6,,,,,,,00209940128fb.jpg,,,,,,,,,,,,,,,
317,17,Memory,6,,,,,,,00797960620fa.jpg,,,,,,,,,,,,,,,
318,17,Memory,6,,,,,,,00609940928fa.jpg,,,,,,,,,,,,,,,
319,17,Memory,6,,,,,,,00529940519fa.jpg,,,,,,,,,,,,,,,
320,17,Memory,6,,,,,,,sunacwggadqsfpovdjv.jpg,,,,,,,,,,,,,,,
321,17,Memory,6,,,,,,,sunahrltmuwbiehihpe.jpg,,,,,,,,,,,,,,,
322,17,Memory,6,,,,,,,sunacbeefkxpymwevpk.jpg,,,,,,,,,,,,,,,
323,17,Memory,6,,,,,,,00836940307fa.jpg,,,,,,,,,,,,,,,
324,17,Memory,6,,,,,,,00778941205fa.jpg,,,,,,,,,,,,,,,
325,17,Memory,6,,,,,,,00825940307fa.jpg,,,,,,,,,,,,,,,
326,17,Memory,6,,,,,,,sunaauueuhhvklldjik.jpg,,,,,,,,,,,,,,,
327,17,Memory,6,,,,,,,sunaivdylrawbmhryfp.jpg,,,,,,,,,,,,,,,
328,17,Memory,6,,,,,,,sunaajayojuslbbnneg.jpg,,,,,,,,,,,,,,,
329,17,Memory,6,,,,,,,00749941201fa.jpg,,,,,,,,,,,,,,,
330,17,Memory,6,,,,,,,sunachtuarilwyqnvjx.jpg,,,,,,,,,,,,,,,
331,17,Memory,6,,,,,,,sunbbgtoeuzierkkajt.jpg,,,,,,,,,,,,,,,
332,17,Memory,6,,,,,,,sunacycdoztxoluxjyk.jpg,,,,,,,,,,,,,,,
333,17,Memory,6,,,,,,,00848940307fa.jpg,,,,,,,,,,,,,,,
334,17,Memory,6,,,,,,,00648941031fa.jpg,,,,,,,,,,,,,,,
335,17,Memory,6,,,,,,,00557940519fa.jpg,,,,,,,,,,,,,,,
336,17,Memory,6,,,,,,,sunaeuvjbmdpknaqqaj.jpg,,,,,,,,,,,,,,,
337,17,Memory,6,,,,,,,00124931230fa.jpg,,,,,,,,,,,,,,,
338,17,Memory,6,,,,,,,sunagcthdfirrcawoic.jpg,,,,,,,,,,,,,,,
339,17,Memory,6,,,,,,,00898960530fa.jpg,,,,,,,,,,,,,,,
340,17,Memory,6,,,,,,,00811960530fa.jpg,,,,,,,,,,,,,,,
341,17,Memory,6,,,,,,,sunahedfrhtcwpneund.jpg,,,,,,,,,,,,,,,
342,17,Memory,6,,,,,,,00154931230fa.jpg,,,,,,,,,,,,,,,
343,17,Memory,6,,,,,,,00589940928fa.jpg,,,,,,,,,,,,,,,
344,17,Memory,6,,,,,,,sunamkmeblgteyggink.jpg,,,,,,,,,,,,,,,
345,17,Memory,6,,,,,,,sunadfndyrtqqiasoig.jpg,,,,,,,,,,,,,,,
346,17,Memory,6,,,,,,,sunaayehfdqcyxggsej.jpg,,,,,,,,,,,,,,,
347,17,Memory,6,,,,,,,sunabaergayifsgacxt.jpg,,,,,,,,,,,,,,,
348,17,Memory,6,,,,,,,sunainqelldeebvxtcz.jpg,,,,,,,,,,,,,,,
349,17,Memory,6,,,,,,,sunaalhlvzmjmitybdn.jpg,,,,,,,,,,,,,,,
350,17,Presentation,7,00911960530fa_sunaooaqzputrowwbsw.jpg,00070940307fa_sunaaeplwsfslcbtojr.jpg,00911960530fa.jpg,sunaooaqzputrowwbsw.jpg,00070940307fa.jpg,sunaaeplwsfslcbtojr.jpg,,,>,Place,,,,,1,,,,,,,o
351,17,Presentation,7,00935960627fa_sunaqbmgkgqucajzrkp.jpg,00959960627fa_sunavxokzybtomhbmvm.jpg,00935960627fa.jpg,sunaqbmgkgqucajzrkp.jpg,00959960627fa.jpg,sunavxokzybtomhbmvm.jpg,,,>,Place,,,,,1,,,,,,,x
352,17,Presentation,7,00191940128fb_sunaawsdjisukbbginm.jpg,00804960530fa_sunagwswhkvnsmuszlz.jpg,00191940128fb.jpg,sunaawsdjisukbbginm.jpg,00804960530fa.jpg,sunagwswhkvnsmuszlz.jpg,,,>,Place,,,,,1,,,,,,,o
353,17,Presentation,7,00909960530_sunaobtizabegtwfwul.jpg,00138931230fa_sunaapfaivxqoynnwwp.jpg,00909960530.jpg,sunaobtizabegtwfwul.jpg,00138931230fa.jpg,sunaapfaivxqoynnwwp.jpg,,,>,Place,,,,,1,,,,,,,o
354,17,Presentation,7,00771941205fa_sunafowswglhxcsufpo.jpg,00543940519fa_sunacepzfrmtkiqonpy.jpg,00771941205fa.jpg,sunafowswglhxcsufpo.jpg,00543940519fa.jpg,sunacepzfrmtkiqonpy.jpg,,,>,Place,,,,,1,,,,,,,o
355,17,Presentation,7,00750941201fa_sunaeuzwggvibufclwf.jpg,00976960627fa_sunbbhqyyzmsxhsbjmp.jpg,00750941201fa.jpg,sunaeuzwggvibufclwf.jpg,00976960627fa.jpg,sunbbhqyyzmsxhsbjmp.jpg,,,>,Place,,,,,1,,,,,,,x
356,17,Presentation,7,00115931230fa_sunaakmxzhuceuiryah.jpg,00598940928fa_sunacxeheuiigkcgquf.jpg,00115931230fa.jpg,sunaakmxzhuceuiryah.jpg,00598940928fa.jpg,sunacxeheuiigkcgquf.jpg,,,>,Place,,,,,1,,,,,,,o
357,17,Presentation,7,00772941201fa_sunafpfpiiujzoesnqg.jpg,00548940519fa_sunacerqowiaeoqkmsq.jpg,00772941201fa.jpg,sunafpfpiiujzoesnqg.jpg,00548940519fa.jpg,sunacerqowiaeoqkmsq.jpg,,,>,Place,,,,,1,,,,,,,o
358,17,Presentation,7,00633940928fa_sunadbhmrgrrpyzglxs.jpg,00062931230fb_sunaaelotvjgibjtjhs.jpg,00633940928fa.jpg,sunadbhmrgrrpyzglxs.jpg,00062931230fb.jpg,sunaaelotvjgibjtjhs.jpg,,,>,Place,,,,,0,,,,,,,x
359,17,Presentation,7,00598941031fa_sunacxtcahkymosigud.jpg,00720960620fa_sunaecpkgfewqqreqwe.jpg,00598941031fa.jpg,sunacxtcahkymosigud.jpg,00720960620fa.jpg,sunaecpkgfewqqreqwe.jpg,,,>,Place,,,,,1,,,,,,,x
360,17,Memory,7,,,,,,,sunaafbmtoniaasysgu.jpg,,,,,,,,,,,,,,,
361,17,Memory,7,,,,,,,sunaaelotvjgibjtjhs.jpg,,,,,,,,,,,,,,,
362,17,Memory,7,,,,,,,00543940519fa.jpg,,,,,,,,,,,,,,,
363,17,Memory,7,,,,,,,00935960627fa.jpg,,,,,,,,,,,,,,,
364,17,Memory,7,,,,,,,00727941205fa.jpg,,,,,,,,,,,,,,,
365,17,Memory,7,,,,,,,00633940928fa.jpg,,,,,,,,,,,,,,,
366,17,Memory,7,,,,,,,00198940128fb.jpg,,,,,,,,,,,,,,,
367,17,Memory,7,,,,,,,sunacerqowiaeoqkmsq.jpg,,,,,,,,,,,,,,,
368,17,Memory,7,,,,,,,00744941201fa.jpg,,,,,,,,,,,,,,,
369,17,Memory,7,,,,,,,00984960627fa.jpg,,,,,,,,,,,,,,,
370,17,Memory,7,,,,,,,00750941201fa.jpg,,,,,,,,,,,,,,,
371,17,Memory,7,,,,,,,00976960627fa.jpg,,,,,,,,,,,,,,,
372,17,Memory,7,,,,,,,sunafowswglhxcsufpo.jpg,,,,,,,,,,,,,,,
373,17,Memory,7,,,,,,,00062931230fb.jpg,,,,,,,,,,,,,,,
374,17,Memory,7,,,,,,,sunbbhqyyzmsxhsbjmp.jpg,,,,,,,,,,,,,,,
375,17,Memory,7,,,,,,,sunbvzmgrdvaakxusbu.jpg,,,,,,,,,,,,,,,
376,17,Memory,7,,,,,,,00771941205fa.jpg,,,,,,,,,,,,,,,
377,17,Memory,7,,,,,,,sunacepzfrmtkiqonpy.jpg,,,,,,,,,,,,,,,
378,17,Memory,7,,,,,,,00548940519fa.jpg,,,,,,,,,,,,,,,
379,17,Memory,7,,,,,,,00073931230fa.jpg,,,,,,,,,,,,,,,
380,17,Memory,7,,,,,,,sunaijsqpvodplbwxkf.jpg,,,,,,,,,,,,,,,
381,17,Memory,7,,,,,,,sunaeomlfaabhpswasy.jpg,,,,,,,,,,,,,,,
382,17,Memory,7,,,,,,,01000960627fa.jpg,,,,,,,,,,,,,,,
383,17,Memory,7,,,,,,,00999960627fa.jpg,,,,,,,,,,,,,,,
384,17,Memory,7,,,,,,,00720960620fa.jpg,,,,,,,,,,,,,,,
385,17,Memory,7,,,,,,,sunajtrfunvzdfticna.jpg,,,,,,,,,,,,,,,
386,17,Memory,7,,,,,,,sunbvbrvgbpanfrawft.jpg,,,,,,,,,,,,,,,
387,17,Memory,7,,,,,,,sunaecpkgfewqqreqwe.jpg,,,,,,,,,,,,,,,
388,17,Memory,7,,,,,,,sunakodkcslgqhqlgwl.jpg,,,,,,,,,,,,,,,
389,17,Memory,7,,,,,,,00874940307fa.jpg,,,,,,,,,,,,,,,
390,17,Memory,7,,,,,,,00884960530fa.jpg,,,,,,,,,,,,,,,
391,17,Memory,7,,,,,,,sunaooaqzputrowwbsw.jpg,,,,,,,,,,,,,,,
392,17,Memory,7,,,,,,,00911960530fa.jpg,,,,,,,,,,,,,,,
393,17,Memory,7,,,,,,,00835940307fa.jpg,,,,,,,,,,,,,,,
394,17,Memory,7,,,,,,,sunadbhmrgrrpyzglxs.jpg,,,,,,,,,,,,,,,
395,17,Memory,7,,,,,,,sunbfzchmomnvzhbxdg.jpg,,,,,,,,,,,,,,,
396,17,Memory,7,,,,,,,sunaazezcsunmhttzxz.jpg,,,,,,,,,,,,,,,
397,17,Memory,7,,,,,,,sunaeuzwggvibufclwf.jpg,,,,,,,,,,,,,,,
398,17,Memory,7,,,,,,,sunaeisnjeetzmkbuad.jpg,,,,,,,,,,,,,,,
399,17,Memory,7,,,,,,,sunaqbmgkgqucajzrkp.jpg,,,,,,,,,,,,,,,
