,Subject,Trial Type,Run,Cued Composite,Uncued Composite,Cued Face,Cued Place,Uncued Face,Uncued Place,Memory Image,Category,Cued Side,Cued Category,Attention Reaction Time (s),Familiarity Reaction Time (s),Familiarity Rating,Attention Level,Cue Validity,Post Invalid Cue,Pre Invalid Cue,Attention Button,Rating History,Stimulus Onset,Stimulus End,Attention Probe
110,17,Memory,2,,,,,,,00905960530fa.jpg,,,,,2.241,2.0,,,,,,,1539204561.905483,1539204564.355874,
111,17,Memory,2,,,,,,,sunabmbnddafmywtjjj.jpg,,,,,0.965,3.0,,,,,,,1539204565.639362,1539204567.875398,
112,17,Memory,2,,,,,,,sunacuatpqpqhyjhjqk.jpg,,,,,0.982,4.0,,,,,,,1539204569.15838,1539204571.237184,
113,17,Memory,2,,,,,,,00786941205fa.jpg,,,,,1.334,2.0,,,,,,,1539204572.559546,1539204574.822219,
114,17,Memory,2,,,,,,,00753941201fa.jpg,,,,,1.011,3.0,,,,,,,1539204576.092931,1539204578.240451,
115,17,Memory,2,,,,,,,00126931230fb.jpg,,,,,1.041,3.0,,,,,,,1539204579.528205,1539204581.791998,
116,17,Memory,2,,,,,,,00719960620fa.jpg,,,,,0.74,3.0,,,,,,,1539204583.062962,1539204585.247591,
117,17,Memory,2,,,,,,,00266940128fb.jpg,,,,,0.742,3.0,,,,,,,1539204586.530456,1539204588.66018,
118,17,Memory,2,,,,,,,sunaapllqyqlykszopd.jpg,,,,,1.008,3.0,,,,,,,1539204589.932093,1539204592.229732,
119,17,Memory,2,,,,,,,sunagvxkjokqimstxpe.jpg,,,,,0.991,2.0,,,,,,,1539204593.515757,1539204595.795693,
120,17,Memory,2,,,,,,,sunaapxkpvrhpjplsok.jpg,,,,,1.585,3.0,,,,,,,1539204597.117845,1539204599.229575,
121,17,Memory,2,,,,,,,00227940128fa.jpg,,,,,1.121,3.0,,,,,,,1539204600.48348,1539204602.786129,
122,17,Memory,2,,,,,,,sunagmhildamktmqjss.jpg,,,,,1.621,2.0,,,,,,,1539204604.04758,1539204606.28775,
123,17,Memory,2,,,,,,,sunafcofuuzebuadceo.jpg,,,,,1.041,2.0,,,,,,,1539204607.587767,1539204609.834372,
124,17,Memory,2,,,,,,,00146960620fb.jpg,,,,,0.872,2.0,,,,,,,1539204611.104266,1539204613.272733,
125,17,Memory,2,,,,,,,sunanmoqeyprjjjfxjt.jpg,,,,,1.375,2.0,,,,,,,1539204614.556079,1539204616.935709,
126,17,Memory,2,,,,,,,sunaamdjwemxpmmtypi.jpg,,,,,0.985,2.0,,,,,,,1539204618.207286,1539204620.212146,
127,17,Memory,2,,,,,,,00910960530fa.jpg,,,,,0.842,3.0,,,,,,,1539204621.47377,1539204623.76169,
128,17,Memory,2,,,,,,,sunabllobxadqcyttej.jpg,,,,,1.526,3.0,,,,,,,1539204625.025402,1539204627.173309,
129,17,Memory,2,,,,,,,sunabckqabszusgcykj.jpg,,,,,1.351,1.0,,,,,,,1539204628.443727,1539204630.842209,
130,17,Memory,2,,,,,,,sunadzuvtmtmgupotmf.jpg,,,,,1.285,1.0,,,,,,,1539204632.112445,1539204634.241499,
131,17,Memory,2,,,,,,,sunaofikylqtxphvdem.jpg,,,,,1.302,2.0,,,,,,,1539204635.513115,1539204637.625951,
132,17,Memory,2,,,,,,,00142931230fb.jpg,,,,,1.309,3.0,,,,,,,1539204638.897731,1539204641.194202,
133,17,Memory,2,,,,,,,00803941205fa.jpg,,,,,1.309,2.0,,,,,,,1539204642.500252,1539204644.815744,
134,17,Memory,2,,,,,,,sunagmwxxwymwojbvgi.jpg,,,,,1.026,2.0,,,,,,,1539204646.083626,1539204648.420101,
135,17,Memory,2,,,,,,,sunagrmyoovzukhxmlo.jpg,,,,,0.924,2.0,,,,,,,1539204649.701837,1539204652.086979,
136,17,Memory,2,,,,,,,00787941205fa.jpg,,,,,1.358,2.0,,,,,,,1539204653.385916,1539204655.500864,
137,17,Memory,2,,,,,,,00270940422fb.jpg,,,,,1.409,3.0,,,,,,,1539204656.752715,1539204658.988364,
138,17,Memory,2,,,,,,,00961960627fa.jpg,,,,,1.089,2.0,,,,,,,1539204660.272036,1539204662.524374,
139,17,Memory,2,,,,,,,00140931230fb.jpg,,,,,1.675,3.0,,,,,,,1539204663.806518,1539204666.101755,
140,17,Memory,2,,,,,,,sunawotxrevnqvamsfp.jpg,,,,,1.127,2.0,,,,,,,1539204667.406612,1539204669.82017,
141,17,Memory,2,,,,,,,sunaahzooisqkwlxwoz.jpg,,,,,1.141,2.0,,,,,,,1539204671.108833,1539204673.408207,
142,17,Memory,2,,,,,,,00276940422fa.jpg,,,,,0.925,2.0,,,,,,,1539204674.653945,1539204676.780498,
143,17,Memory,2,,,,,,,00571940928fa.jpg,,,,,0.858,2.0,,,,,,,1539204678.06138,1539204680.293784,
144,17,Memory,2,,,,,,,00095931230fa.jpg,,,,,1.098,2.0,,,,,,,1539204681.594104,1539204683.657101,
145,17,Memory,2,,,,,,,sunabkngeblodihjvbk.jpg,,,,,0.0,,,,,,,,1539204684.911572,1539204687.275806,
146,17,Memory,2,,,,,,,sunaatpeezlljqaxlhj.jpg,,,,,1.341,3.0,,,,,,,1539204688.630354,1539204690.876136,
147,17,Memory,2,,,,,,,00271940422fa.jpg,,,,,0.807,2.0,,,,,,,1539204692.198386,1539204694.198713,
148,17,Memory,2,,,,,,,00791941205fa.jpg,,,,,0.784,3.0,,,,,,,1539204695.482619,1539204697.553962,
149,17,Memory,2,,,,,,,sunabmytpyhsgigllxu.jpg,,,,,0.769,2.0,,,,,,,1539204698.849817,1539204701.020971,
