,Subject,Trial Type,Run,Cued Composite,Uncued Composite,Cued Face,Cued Place,Uncued Face,Uncued Place,Memory Image,Category,Cued Side,Cued Category,Attention Reaction Time (s),Familiarity Reaction Time (s),Familiarity Rating,Attention Level,Cue Validity,Post Invalid Cue,Pre Invalid Cue,Attention Button,Rating History,Stimulus Onset,Stimulus End,Attention Probe
360,17,Memory,7,,,,,,,sunaafbmtoniaasysgu.jpg,,,,,1.021,1.0,,,,,,,1539205917.959823,1539205920.010756,
361,17,Memory,7,,,,,,,sunaaelotvjgibjtjhs.jpg,,,,,1.503,2.0,,,,,,,1539205921.277129,1539205923.261194,
362,17,Memory,7,,,,,,,00543940519fa.jpg,,,,,1.287,2.0,,,,,,,1539205924.52901,1539205926.512365,
363,17,Memory,7,,,,,,,00935960627fa.jpg,,,,,1.32,3.0,,,,,,,1539205927.779403,1539205929.763554,
364,17,Memory,7,,,,,,,00727941205fa.jpg,,,,,0.67,3.0,,,,,,,1539205931.04748,1539205933.031555,
365,17,Memory,7,,,,,,,00633940928fa.jpg,,,,,0.652,3.0,,,,,,,1539205934.281619,1539205936.265488,
366,17,Memory,7,,,,,,,00198940128fb.jpg,,,,,1.037,2.0,,,,,,,1539205937.516742,1539205939.500032,
367,17,Memory,7,,,,,,,sunacerqowiaeoqkmsq.jpg,,,,,1.287,2.0,,,,,,,1539205940.751024,1539205942.735116,
368,17,Memory,7,,,,,,,00744941201fa.jpg,,,,,0.953,3.0,,,,,,,1539205943.98603,1539205945.968386,
369,17,Memory,7,,,,,,,00984960627fa.jpg,,,,,1.103,2.0,,,,,,,1539205947.220205,1539205949.203195,
370,17,Memory,7,,,,,,,00750941201fa.jpg,,,,,0.902,2.0,,,,,,,1539205950.453387,1539205952.437723,
371,17,Memory,7,,,,,,,00976960627fa.jpg,,,,,0.602,2.0,,,,,,,1539205953.688772,1539205955.672036,
372,17,Memory,7,,,,,,,sunafowswglhxcsufpo.jpg,,,,,1.771,4.0,,,,,,,1539205956.921656,1539205958.907079,
373,17,Memory,7,,,,,,,00062931230fb.jpg,,,,,0.704,2.0,,,,,,,1539205960.173312,1539205962.158262,
374,17,Memory,7,,,,,,,sunbbhqyyzmsxhsbjmp.jpg,,,,,0.837,2.0,,,,,,,1539205963.441288,1539205965.425386,
375,17,Memory,7,,,,,,,sunbvzmgrdvaakxusbu.jpg,,,,,0.836,2.0,,,,,,,1539205966.675524,1539205968.659646,
376,17,Memory,7,,,,,,,00771941205fa.jpg,,,,,0.719,2.0,,,,,,,1539205969.909695,1539205971.893559,
377,17,Memory,7,,,,,,,sunacepzfrmtkiqonpy.jpg,,,,,0.853,2.0,,,,,,,1539205973.144912,1539205975.127914,
378,17,Memory,7,,,,,,,00548940519fa.jpg,,,,,0.653,2.0,,,,,,,1539205976.428889,1539205978.412972,
379,17,Memory,7,,,,,,,00073931230fa.jpg,,,,,0.502,2.0,,,,,,,1539205979.663277,1539205981.646191,
380,17,Memory,7,,,,,,,sunaijsqpvodplbwxkf.jpg,,,,,1.42,3.0,,,,,,,1539205982.897477,1539205984.882319,
381,17,Memory,7,,,,,,,sunaeomlfaabhpswasy.jpg,,,,,0.736,3.0,,,,,,,1539205986.148487,1539205988.132656,
382,17,Memory,7,,,,,,,01000960627fa.jpg,,,,,0.57,2.0,,,,,,,1539205989.383351,1539205991.366783,
383,17,Memory,7,,,,,,,00999960627fa.jpg,,,,,0.435,2.0,,,,,,,1539205992.618025,1539205994.601018,
384,17,Memory,7,,,,,,,00720960620fa.jpg,,,,,0.669,2.0,,,,,,,1539205995.8512,1539205997.836144,
385,17,Memory,7,,,,,,,sunajtrfunvzdfticna.jpg,,,,,1.002,3.0,,,,,,,1539205999.08624,1539206001.069313,
386,17,Memory,7,,,,,,,sunbvbrvgbpanfrawft.jpg,,,,,1.203,3.0,,,,,,,1539206002.32045,1539206004.304474,
387,17,Memory,7,,,,,,,sunaecpkgfewqqreqwe.jpg,,,,,0.803,2.0,,,,,,,1539206005.554626,1539206007.539389,
388,17,Memory,7,,,,,,,sunakodkcslgqhqlgwl.jpg,,,,,0.952,3.0,,,,,,,1539206008.788864,1539206010.773644,
389,17,Memory,7,,,,,,,00874940307fa.jpg,,,,,0.636,3.0,,,,,,,1539206012.039886,1539206014.023934,
390,17,Memory,7,,,,,,,00884960530fa.jpg,,,,,0.703,2.0,,,,,,,1539206015.274937,1539206017.258974,
391,17,Memory,7,,,,,,,sunaooaqzputrowwbsw.jpg,,,,,1.119,4.0,,,,,,,1539206018.509353,1539206020.493264,
392,17,Memory,7,,,,,,,00911960530fa.jpg,,,,,0.686,3.0,,,,,,,1539206021.743515,1539206023.727535,
393,17,Memory,7,,,,,,,00835940307fa.jpg,,,,,0.535,2.0,,,,,,,1539206024.993801,1539206026.977768,
394,17,Memory,7,,,,,,,sunadbhmrgrrpyzglxs.jpg,,,,,0.686,2.0,,,,,,,1539206028.246553,1539206030.230027,
395,17,Memory,7,,,,,,,sunbfzchmomnvzhbxdg.jpg,,,,,0.921,2.0,,,,,,,1539206031.479866,1539206033.463844,
396,17,Memory,7,,,,,,,sunaazezcsunmhttzxz.jpg,,,,,1.104,2.0,,,,,,,1539206034.714251,1539206036.697458,
397,17,Memory,7,,,,,,,sunaeuzwggvibufclwf.jpg,,,,,0.734,2.0,,,,,,,1539206037.949431,1539206039.932457,
398,17,Memory,7,,,,,,,sunaeisnjeetzmkbuad.jpg,,,,,0.936,3.0,,,,,,,1539206041.182337,1539206043.167559,
399,17,Memory,7,,,,,,,sunaqbmgkgqucajzrkp.jpg,,,,,0.635,2.0,,,,,,,1539206044.417655,1539206046.401634,
