,Subject,Trial Type,Run,Cued Composite,Uncued Composite,Cued Face,Cued Place,Uncued Face,Uncued Place,Memory Image,Category,Cued Side,Cued Category,Attention Reaction Time (s),Familiarity Reaction Time (s),Familiarity Rating,Attention Level,Cue Validity,Post Invalid Cue,Pre Invalid Cue,Attention Button,Rating History,Stimulus Onset,Stimulus End,Attention Probe
0,20,Presentation,0,00819940307fa_sunahqldjibofgsfdgb.jpg,00070940307fa_sunaaeplwsfslcbtojr.jpg,00819940307fa.jpg,sunahqldjibofgsfdgb.jpg,00070940307fa.jpg,sunaaeplwsfslcbtojr.jpg,,,<,Face,,,,,1,,,,,,,o
1,20,Presentation,0,00700941121fa_sunadsgmtznewzyasnk.jpg,00145931230fb_sunaatjesvdupctftmn.jpg,00700941121fa.jpg,sunadsgmtznewzyasnk.jpg,00145931230fb.jpg,sunaatjesvdupctftmn.jpg,,,<,Face,,,,,1,,,,,,,o
2,20,Presentation,0,00921960627fa_sunapqkpqdfvxlbqwyo.jpg,00922960627fa_sunapqkyghktgtosuuk.jpg,00921960627fa.jpg,sunapqkpqdfvxlbqwyo.jpg,00922960627fa.jpg,sunapqkyghktgtosuuk.jpg,,,<,Face,,,,,1,,,,,,,o
3,20,Presentation,0,00140931230fb_sunaapllqyqlykszopd.jpg,00109931230fa_sunaajuzribjrizdshh.jpg,00140931230fb.jpg,sunaapllqyqlykszopd.jpg,00109931230fa.jpg,sunaajuzribjrizdshh.jpg,,,<,Face,,,,,1,,,,,,,o
4,20,Presentation,0,00847940307fa_sunaivdjruhkrfywfed.jpg,00271940422fa_sunabmbnddafmywtjjj.jpg,00847940307fa.jpg,sunaivdjruhkrfywfed.jpg,00271940422fa.jpg,sunabmbnddafmywtjjj.jpg,,,<,Face,,,,,1,,,,,,,o
5,20,Presentation,0,00562941031fa_sunacjnahdmqfnjfwqx.jpg,00770941201fa_sunaflojskatpeqyzqp.jpg,00562941031fa.jpg,sunacjnahdmqfnjfwqx.jpg,00770941201fa.jpg,sunaflojskatpeqyzqp.jpg,,,<,Face,,,,,1,,,,,,,x
6,20,Presentation,0,00235940128fb_sunabclssnoeuigtawp.jpg,00260940128fa_sunabgfhvifeijihhjw.jpg,00235940128fb.jpg,sunabclssnoeuigtawp.jpg,00260940128fa.jpg,sunabgfhvifeijihhjw.jpg,,,<,Face,,,,,1,,,,,,,x
7,20,Presentation,0,00901960530fa_sunammbnoambmhdxdwd.jpg,00559940519fa_sunacjkmnpawfzbyvae.jpg,00901960530fa.jpg,sunammbnoambmhdxdwd.jpg,00559940519fa.jpg,sunacjkmnpawfzbyvae.jpg,,,<,Face,,,,,1,,,,,,,x
8,20,Presentation,0,00725941201fa_sunaefgzwiramypjvtd.jpg,00630941031fa_sunadakkdovnuzlycvp.jpg,00725941201fa.jpg,sunaefgzwiramypjvtd.jpg,00630941031fa.jpg,sunadakkdovnuzlycvp.jpg,,,<,Face,,,,,1,,,,,,,x
9,20,Presentation,0,00811960530fa_sunahedfrhtcwpneund.jpg,00763941205fa_sunafhmnhsdurlvddpw.jpg,00811960530fa.jpg,sunahedfrhtcwpneund.jpg,00763941205fa.jpg,sunafhmnhsdurlvddpw.jpg,,,<,Face,,,,,1,,,,,,,x
10,20,Memory,0,,,,,,,00260940128fa.jpg,,,,,,,,,,,,,,,
11,20,Memory,0,,,,,,,01003960627fb.jpg,,,,,,,,,,,,,,,
12,20,Memory,0,,,,,,,00892960530fa.jpg,,,,,,,,,,,,,,,
13,20,Memory,0,,,,,,,00811960530fa.jpg,,,,,,,,,,,,,,,
14,20,Memory,0,,,,,,,00901960530fa.jpg,,,,,,,,,,,,,,,
15,20,Memory,0,,,,,,,sunafvwfsmqkjrutjta.jpg,,,,,,,,,,,,,,,
16,20,Memory,0,,,,,,,sunaaeplwsfslcbtojr.jpg,,,,,,,,,,,,,,,
17,20,Memory,0,,,,,,,01207940128fa.jpg,,,,,,,,,,,,,,,
18,20,Memory,0,,,,,,,sunaflojskatpeqyzqp.jpg,,,,,,,,,,,,,,,
19,20,Memory,0,,,,,,,sunaapllqyqlykszopd.jpg,,,,,,,,,,,,,,,
20,20,Memory,0,,,,,,,00989960627fa.jpg,,,,,,,,,,,,,,,
21,20,Memory,0,,,,,,,sunagvxkjokqimstxpe.jpg,,,,,,,,,,,,,,,
22,20,Memory,0,,,,,,,sunabclssnoeuigtawp.jpg,,,,,,,,,,,,,,,
23,20,Memory,0,,,,,,,00803941205fa.jpg,,,,,,,,,,,,,,,
24,20,Memory,0,,,,,,,00271940422fa.jpg,,,,,,,,,,,,,,,
25,20,Memory,0,,,,,,,sunalntxqqadigcletd.jpg,,,,,,,,,,,,,,,
26,20,Memory,0,,,,,,,sunbwdrdvsweerwsdrj.jpg,,,,,,,,,,,,,,,
27,20,Memory,0,,,,,,,00630941031fa.jpg,,,,,,,,,,,,,,,
28,20,Memory,0,,,,,,,00822940307fa.jpg,,,,,,,,,,,,,,,
29,20,Memory,0,,,,,,,sunahedfrhtcwpneund.jpg,,,,,,,,,,,,,,,
30,20,Memory,0,,,,,,,00636941031fa.jpg,,,,,,,,,,,,,,,
31,20,Memory,0,,,,,,,00779941205fa.jpg,,,,,,,,,,,,,,,
32,20,Memory,0,,,,,,,00140931230fb.jpg,,,,,,,,,,,,,,,
33,20,Memory,0,,,,,,,sunammbnoambmhdxdwd.jpg,,,,,,,,,,,,,,,
34,20,Memory,0,,,,,,,sunaavtbadenwnzeutj.jpg,,,,,,,,,,,,,,,
35,20,Memory,0,,,,,,,sunagdzlvkqtpnfxfcg.jpg,,,,,,,,,,,,,,,
36,20,Memory,0,,,,,,,sunaivdjruhkrfywfed.jpg,,,,,,,,,,,,,,,
37,20,Memory,0,,,,,,,sundbixjudsgeuuehrn.jpg,,,,,,,,,,,,,,,
38,20,Memory,0,,,,,,,sunaddtdkycxbqlpfqa.jpg,,,,,,,,,,,,,,,
39,20,Memory,0,,,,,,,00184940128fa.jpg,,,,,,,,,,,,,,,
40,20,Memory,0,,,,,,,00070940307fa.jpg,,,,,,,,,,,,,,,
41,20,Memory,0,,,,,,,00770941201fa.jpg,,,,,,,,,,,,,,,
42,20,Memory,0,,,,,,,sunahqrxievfeusiqlt.jpg,,,,,,,,,,,,,,,
43,20,Memory,0,,,,,,,00847940307fa.jpg,,,,,,,,,,,,,,,
44,20,Memory,0,,,,,,,sunabgfhvifeijihhjw.jpg,,,,,,,,,,,,,,,
45,20,Memory,0,,,,,,,sunabmbnddafmywtjjj.jpg,,,,,,,,,,,,,,,
46,20,Memory,0,,,,,,,sunbondbduabvijnmch.jpg,,,,,,,,,,,,,,,
47,20,Memory,0,,,,,,,sunadakkdovnuzlycvp.jpg,,,,,,,,,,,,,,,
48,20,Memory,0,,,,,,,00775941205fa.jpg,,,,,,,,,,,,,,,
49,20,Memory,0,,,,,,,00235940128fb.jpg,,,,,,,,,,,,,,,
50,20,Presentation,1,00313940422fa_sunabwjvmoaddlyxfjr.jpg,01005960627fa_sunbwyuesflwdpqtgoy.jpg,00313940422fa.jpg,sunabwjvmoaddlyxfjr.jpg,01005960627fa.jpg,sunbwyuesflwdpqtgoy.jpg,,,>,Place,,,,,1,,,,,,,x
51,20,Presentation,1,00777941205fa_sunagcinxkccdtrjmlv.jpg,00214940128fa_sunabbafjowbzcvbucc.jpg,00777941205fa.jpg,sunagcinxkccdtrjmlv.jpg,00214940128fa.jpg,sunabbafjowbzcvbucc.jpg,,,>,Place,,,,,1,,,,,,,x
52,20,Presentation,1,00959960627fa_sunavxokzybtomhbmvm.jpg,00894960620fa_sunalqmfgeadpqsyzpd.jpg,00959960627fa.jpg,sunavxokzybtomhbmvm.jpg,00894960620fa.jpg,sunalqmfgeadpqsyzpd.jpg,,,>,Place,,,,,1,,,,,,,o
53,20,Presentation,1,00900960530fa_sunamlotskmmsjeogby.jpg,00208940128fa_sunaazzyhbvqjpmazjq.jpg,00900960530fa.jpg,sunamlotskmmsjeogby.jpg,00208940128fa.jpg,sunaazzyhbvqjpmazjq.jpg,,,>,Place,,,,,1,,,,,,,o
54,20,Presentation,1,00943960627fa_sunarpsxqkduedrrzyi.jpg,00829940307fa_sunahwgbqkqcrwprgvh.jpg,00943960627fa.jpg,sunarpsxqkduedrrzyi.jpg,00829940307fa.jpg,sunahwgbqkqcrwprgvh.jpg,,,>,Place,,,,,1,,,,,,,x
55,20,Presentation,1,00061931230fb_sunaaekxzjzrfgtkwjf.jpg,00805941205fa_sunagwzdbtlixdhgolm.jpg,00061931230fb.jpg,sunaaekxzjzrfgtkwjf.jpg,00805941205fa.jpg,sunagwzdbtlixdhgolm.jpg,,,>,Place,,,,,0,,,,,,,o
56,20,Presentation,1,00898960530fa_sunamkmeblgteyggink.jpg,00857940307fa_sunaiwfobocrruqznsv.jpg,00898960530fa.jpg,sunamkmeblgteyggink.jpg,00857940307fa.jpg,sunaiwfobocrruqznsv.jpg,,,>,Place,,,,,1,,,,,,,x
57,20,Presentation,1,00630940928fa_sunaczwgyukesaajxnx.jpg,00305940422fa_sunabtrnbvpppgczjim.jpg,00630940928fa.jpg,sunaczwgyukesaajxnx.jpg,00305940422fa.jpg,sunabtrnbvpppgczjim.jpg,,,>,Place,,,,,1,,,,,,,o
58,20,Presentation,1,00130931230fa_sunaamvxnvouicstkjb.jpg,00265940128fb_sunabkmdplkdbvxriff.jpg,00130931230fa.jpg,sunaamvxnvouicstkjb.jpg,00265940128fb.jpg,sunabkmdplkdbvxriff.jpg,,,>,Place,,,,,1,,,,,,,o
59,20,Presentation,1,00589940928fa_sunacwggadqsfpovdjv.jpg,00799941205fa_sunagutjvdvnhxejerz.jpg,00589940928fa.jpg,sunacwggadqsfpovdjv.jpg,00799941205fa.jpg,sunagutjvdvnhxejerz.jpg,,,>,Place,,,,,1,,,,,,,x
60,20,Memory,1,,,,,,,00900960530fa.jpg,,,,,,,,,,,,,,,
61,20,Memory,1,,,,,,,sunabtrnbvpppgczjim.jpg,,,,,,,,,,,,,,,
62,20,Memory,1,,,,,,,00976960627fa.jpg,,,,,,,,,,,,,,,
63,20,Memory,1,,,,,,,00589940928fa.jpg,,,,,,,,,,,,,,,
64,20,Memory,1,,,,,,,sunaiwfobocrruqznsv.jpg,,,,,,,,,,,,,,,
65,20,Memory,1,,,,,,,00208940128fa.jpg,,,,,,,,,,,,,,,
66,20,Memory,1,,,,,,,00805941205fa.jpg,,,,,,,,,,,,,,,
67,20,Memory,1,,,,,,,00777941205fa.jpg,,,,,,,,,,,,,,,
68,20,Memory,1,,,,,,,sunamlotskmmsjeogby.jpg,,,,,,,,,,,,,,,
69,20,Memory,1,,,,,,,sunaivdylrawbmhryfp.jpg,,,,,,,,,,,,,,,
70,20,Memory,1,,,,,,,00848940307fa.jpg,,,,,,,,,,,,,,,
71,20,Memory,1,,,,,,,sunaaekxzjzrfgtkwjf.jpg,,,,,,,,,,,,,,,
72,20,Memory,1,,,,,,,sunbbhqyyzmsxhsbjmp.jpg,,,,,,,,,,,,,,,
73,20,Memory,1,,,,,,,01000960627fa.jpg,,,,,,,,,,,,,,,
74,20,Memory,1,,,,,,,sunbdycacjfaujxitbw.jpg,,,,,,,,,,,,,,,
75,20,Memory,1,,,,,,,sunagcinxkccdtrjmlv.jpg,,,,,,,,,,,,,,,
76,20,Memory,1,,,,,,,sunaazzyhbvqjpmazjq.jpg,,,,,,,,,,,,,,,
77,20,Memory,1,,,,,,,00245940128fa.jpg,,,,,,,,,,,,,,,
78,20,Memory,1,,,,,,,00305940422fa.jpg,,,,,,,,,,,,,,,
79,20,Memory,1,,,,,,,00741941201fa.jpg,,,,,,,,,,,,,,,
80,20,Memory,1,,,,,,,sunagwzdbtlixdhgolm.jpg,,,,,,,,,,,,,,,
81,20,Memory,1,,,,,,,sunbvzmgrdvaakxusbu.jpg,,,,,,,,,,,,,,,
82,20,Memory,1,,,,,,,00825940307fa.jpg,,,,,,,,,,,,,,,
83,20,Memory,1,,,,,,,00839940307fa.jpg,,,,,,,,,,,,,,,
84,20,Memory,1,,,,,,,00270940422fb.jpg,,,,,,,,,,,,,,,
85,20,Memory,1,,,,,,,00979960627fa.jpg,,,,,,,,,,,,,,,
86,20,Memory,1,,,,,,,sunacwggadqsfpovdjv.jpg,,,,,,,,,,,,,,,
87,20,Memory,1,,,,,,,00191940128fb.jpg,,,,,,,,,,,,,,,
88,20,Memory,1,,,,,,,00061931230fb.jpg,,,,,,,,,,,,,,,
89,20,Memory,1,,,,,,,sunaipyohrqlwngaqif.jpg,,,,,,,,,,,,,,,
90,20,Memory,1,,,,,,,01005960627fa.jpg,,,,,,,,,,,,,,,
91,20,Memory,1,,,,,,,00857940307fa.jpg,,,,,,,,,,,,,,,
92,20,Memory,1,,,,,,,sunabeyhmxodahoieyk.jpg,,,,,,,,,,,,,,,
93,20,Memory,1,,,,,,,00630940928fa.jpg,,,,,,,,,,,,,,,
94,20,Memory,1,,,,,,,sunaemcowdozyphwknd.jpg,,,,,,,,,,,,,,,
95,20,Memory,1,,,,,,,sunaawsdjisukbbginm.jpg,,,,,,,,,,,,,,,
96,20,Memory,1,,,,,,,sunabllobxadqcyttej.jpg,,,,,,,,,,,,,,,
97,20,Memory,1,,,,,,,sunbwyuesflwdpqtgoy.jpg,,,,,,,,,,,,,,,
98,20,Memory,1,,,,,,,sunaczwgyukesaajxnx.jpg,,,,,,,,,,,,,,,
99,20,Memory,1,,,,,,,sunahrltmuwbiehihpe.jpg,,,,,,,,,,,,,,,
100,20,Presentation,2,00953960627fa_sunatstrpjxhvtbaczf.jpg,00914960620fa_sunaozisvwfbmlkfhzv.jpg,00953960627fa.jpg,sunatstrpjxhvtbaczf.jpg,00914960620fa.jpg,sunaozisvwfbmlkfhzv.jpg,,,>,Face,,,,,1,,,,,,,o
101,20,Presentation,2,00791941205fa_sunagrmyoovzukhxmlo.jpg,00663941121fa_sunadnjjzohjhbohlwq.jpg,00791941205fa.jpg,sunagrmyoovzukhxmlo.jpg,00663941121fa.jpg,sunadnjjzohjhbohlwq.jpg,,,>,Face,,,,,1,,,,,,,x
102,20,Presentation,2,00950960627fa_sunasrjlmglmjzbmqxb.jpg,00874940307fa_sunajtrfunvzdfticna.jpg,00950960627fa.jpg,sunasrjlmglmjzbmqxb.jpg,00874940307fa.jpg,sunajtrfunvzdfticna.jpg,,,>,Face,,,,,1,,,,,,,o
103,20,Presentation,2,00296940422fa_sunabrwnslxalcohfre.jpg,00993960627fa_sunbprywzqxjcezkbch.jpg,00296940422fa.jpg,sunabrwnslxalcohfre.jpg,00993960627fa.jpg,sunbprywzqxjcezkbch.jpg,,,>,Face,,,,,1,,,,,,,o
104,20,Presentation,2,00280940422fb_sunabohxbskznglnrhv.jpg,00804960530fa_sunagwswhkvnsmuszlz.jpg,00280940422fb.jpg,sunabohxbskznglnrhv.jpg,00804960530fa.jpg,sunagwswhkvnsmuszlz.jpg,,,>,Face,,,,,1,,,,,,,x
105,20,Presentation,2,00760960620fa_sunaffstbkappprzxnv.jpg,00910960530fa_sunaofikylqtxphvdem.jpg,00760960620fa.jpg,sunaffstbkappprzxnv.jpg,00910960530fa.jpg,sunaofikylqtxphvdem.jpg,,,>,Face,,,,,1,,,,,,,o
106,20,Presentation,2,00071940128fa_sunaaexpnawiehinlpy.jpg,00828940307fa_sunahuynahneraqftyz.jpg,00071940128fa.jpg,sunaaexpnawiehinlpy.jpg,00828940307fa.jpg,sunahuynahneraqftyz.jpg,,,>,Face,,,,,1,,,,,,,x
107,20,Presentation,2,00571940928fa_sunacuatpqpqhyjhjqk.jpg,00548940519fa_sunacerqowiaeoqkmsq.jpg,00571940928fa.jpg,sunacuatpqpqhyjhjqk.jpg,00548940519fa.jpg,sunacerqowiaeoqkmsq.jpg,,,>,Face,,,,,1,,,,,,,x
108,20,Presentation,2,00482940519fa_sunabyfxcxhdebvdyfd.jpg,00889960530fa_sunaletopenvvozhpxc.jpg,00482940519fa.jpg,sunabyfxcxhdebvdyfd.jpg,00889960530fa.jpg,sunaletopenvvozhpxc.jpg,,,>,Face,,,,,1,,,,,,,o
109,20,Presentation,2,00751960620fa_sunaezuszgtxnmsxdbk.jpg,00108960530fa_sunaajtnvzzpsjdzres.jpg,00751960620fa.jpg,sunaezuszgtxnmsxdbk.jpg,00108960530fa.jpg,sunaajtnvzzpsjdzres.jpg,,,>,Face,,,,,1,,,,,,,o
110,20,Memory,2,,,,,,,00482940519fa.jpg,,,,,,,,,,,,,,,
111,20,Memory,2,,,,,,,sunaaeowapdkwzqpgqr.jpg,,,,,,,,,,,,,,,
112,20,Memory,2,,,,,,,00950960627fa.jpg,,,,,,,,,,,,,,,
113,20,Memory,2,,,,,,,sunafvtpfczkzopbgue.jpg,,,,,,,,,,,,,,,
114,20,Memory,2,,,,,,,00750941201fa.jpg,,,,,,,,,,,,,,,
115,20,Memory,2,,,,,,,00791941205fa.jpg,,,,,,,,,,,,,,,
116,20,Memory,2,,,,,,,sunagrmyoovzukhxmlo.jpg,,,,,,,,,,,,,,,
117,20,Memory,2,,,,,,,00953960627fa.jpg,,,,,,,,,,,,,,,
118,20,Memory,2,,,,,,,sunanmoqeyprjjjfxjt.jpg,,,,,,,,,,,,,,,
119,20,Memory,2,,,,,,,00874940307fa.jpg,,,,,,,,,,,,,,,
120,20,Memory,2,,,,,,,sunacuatpqpqhyjhjqk.jpg,,,,,,,,,,,,,,,
121,20,Memory,2,,,,,,,sunajtrfunvzdfticna.jpg,,,,,,,,,,,,,,,
122,20,Memory,2,,,,,,,sunaauhozyxzeeqstxi.jpg,,,,,,,,,,,,,,,
123,20,Memory,2,,,,,,,00548940519fa.jpg,,,,,,,,,,,,,,,
124,20,Memory,2,,,,,,,sunachtuarilwyqnvjx.jpg,,,,,,,,,,,,,,,
125,20,Memory,2,,,,,,,sunahmhrncocyhsjpxk.jpg,,,,,,,,,,,,,,,
126,20,Memory,2,,,,,,,00774941201fa.jpg,,,,,,,,,,,,,,,
127,20,Memory,2,,,,,,,00860940307fa.jpg,,,,,,,,,,,,,,,
128,20,Memory,2,,,,,,,sunatstrpjxhvtbaczf.jpg,,,,,,,,,,,,,,,
129,20,Memory,2,,,,,,,00905960530fa.jpg,,,,,,,,,,,,,,,
130,20,Memory,2,,,,,,,00571940928fa.jpg,,,,,,,,,,,,,,,
131,20,Memory,2,,,,,,,sunasrjlmglmjzbmqxb.jpg,,,,,,,,,,,,,,,
132,20,Memory,2,,,,,,,00910960530fa.jpg,,,,,,,,,,,,,,,
133,20,Memory,2,,,,,,,00069931230fb.jpg,,,,,,,,,,,,,,,
134,20,Memory,2,,,,,,,00153931230fa.jpg,,,,,,,,,,,,,,,
135,20,Memory,2,,,,,,,sunaeuzwggvibufclwf.jpg,,,,,,,,,,,,,,,
136,20,Memory,2,,,,,,,00816941205fa.jpg,,,,,,,,,,,,,,,
137,20,Memory,2,,,,,,,00914960620fa.jpg,,,,,,,,,,,,,,,
138,20,Memory,2,,,,,,,00557940519fa.jpg,,,,,,,,,,,,,,,
139,20,Memory,2,,,,,,,sunaozisvwfbmlkfhzv.jpg,,,,,,,,,,,,,,,
140,20,Memory,2,,,,,,,00723941201fa.jpg,,,,,,,,,,,,,,,
141,20,Memory,2,,,,,,,sunbprywzqxjcezkbch.jpg,,,,,,,,,,,,,,,
142,20,Memory,2,,,,,,,sunaofikylqtxphvdem.jpg,,,,,,,,,,,,,,,
143,20,Memory,2,,,,,,,sunaedtgwjvvziytspa.jpg,,,,,,,,,,,,,,,
144,20,Memory,2,,,,,,,00093931230fa.jpg,,,,,,,,,,,,,,,
145,20,Memory,2,,,,,,,00993960627fa.jpg,,,,,,,,,,,,,,,
146,20,Memory,2,,,,,,,sunabyfxcxhdebvdyfd.jpg,,,,,,,,,,,,,,,
147,20,Memory,2,,,,,,,sunaahwnmtqsrhocysw.jpg,,,,,,,,,,,,,,,
148,20,Memory,2,,,,,,,sunacerqowiaeoqkmsq.jpg,,,,,,,,,,,,,,,
149,20,Memory,2,,,,,,,sunaizeyhvjzknwjudw.jpg,,,,,,,,,,,,,,,
150,20,Presentation,3,00749941201fa_sunaeuvjbmdpknaqqaj.jpg,00984960627fa_sunbfzchmomnvzhbxdg.jpg,00749941201fa.jpg,sunaeuvjbmdpknaqqaj.jpg,00984960627fa.jpg,sunbfzchmomnvzhbxdg.jpg,,,<,Place,,,,,1,,,,,,,o
151,20,Presentation,3,00977960627fa_sunbbxkanhzjgbwyxqs.jpg,00969960627fa_sunbaoizrfijvhpnnjn.jpg,00977960627fa.jpg,sunbbxkanhzjgbwyxqs.jpg,00969960627fa.jpg,sunbaoizrfijvhpnnjn.jpg,,,<,Place,,,,,0,,,,,,,x
152,20,Presentation,3,00772941201fa_sunafpfpiiujzoesnqg.jpg,00308940422fb_sunabwfvcqqidycwypa.jpg,00772941201fa.jpg,sunafpfpiiujzoesnqg.jpg,00308940422fb.jpg,sunabwfvcqqidycwypa.jpg,,,<,Place,,,,,1,,,,,,,o
153,20,Presentation,3,00090931230fa_sunaahedjlmtqekgyvj.jpg,00780960530fa_sunagetqixeypsysbpn.jpg,00090931230fa.jpg,sunaahedjlmtqekgyvj.jpg,00780960530fa.jpg,sunagetqixeypsysbpn.jpg,,,<,Place,,,,,1,,,,,,,x
154,20,Presentation,3,00111931230fb_sunaakgekhjklxmvulj.jpg,00997960627fa_sunbtpilbhhbmhmeuzq.jpg,00111931230fb.jpg,sunaakgekhjklxmvulj.jpg,00997960627fa.jpg,sunbtpilbhhbmhmeuzq.jpg,,,<,Place,,,,,1,,,,,,,o
155,20,Presentation,3,00968960627fa_sunbagfpovqwbuexqdn.jpg,00076931230fa_sunaafewhewbxmjiurz.jpg,00968960627fa.jpg,sunbagfpovqwbuexqdn.jpg,00076931230fa.jpg,sunaafewhewbxmjiurz.jpg,,,<,Place,,,,,1,,,,,,,o
156,20,Presentation,3,00581940928fa_sunacvzhvcksnwqcqbw.jpg,01009960627fa_sunbxzweleltykebgan.jpg,00581940928fa.jpg,sunacvzhvcksnwqcqbw.jpg,01009960627fa.jpg,sunbxzweleltykebgan.jpg,,,<,Place,,,,,1,,,,,,,o
157,20,Presentation,3,00080931230fb_sunaafjszryxyavjzln.jpg,00937960627fa_sunaqsolmfydodnakub.jpg,00080931230fb.jpg,sunaafjszryxyavjzln.jpg,00937960627fa.jpg,sunaqsolmfydodnakub.jpg,,,<,Place,,,,,0,,,,,,,x
158,20,Presentation,3,00144931230fb_sunaathajvxrgptwhoj.jpg,00719960620fa_sunadzuvtmtmgupotmf.jpg,00144931230fb.jpg,sunaathajvxrgptwhoj.jpg,00719960620fa.jpg,sunadzuvtmtmgupotmf.jpg,,,<,Place,,,,,1,,,,,,,o
159,20,Presentation,3,01011960627fa_sundahdxwmcdluscvot.jpg,00675941121fa_sunadoxcchtmsxewsau.jpg,01011960627fa.jpg,sundahdxwmcdluscvot.jpg,00675941121fa.jpg,sunadoxcchtmsxewsau.jpg,,,<,Place,,,,,1,,,,,,,x
160,20,Memory,3,,,,,,,sunabwfvcqqidycwypa.jpg,,,,,,,,,,,,,,,
161,20,Memory,3,,,,,,,00801941205fa.jpg,,,,,,,,,,,,,,,
162,20,Memory,3,,,,,,,00929960627fa.jpg,,,,,,,,,,,,,,,
163,20,Memory,3,,,,,,,sunbtpilbhhbmhmeuzq.jpg,,,,,,,,,,,,,,,
164,20,Memory,3,,,,,,,sunagvprlbprarvgdvj.jpg,,,,,,,,,,,,,,,
165,20,Memory,3,,,,,,,sunagmhildamktmqjss.jpg,,,,,,,,,,,,,,,
166,20,Memory,3,,,,,,,00978960627fa.jpg,,,,,,,,,,,,,,,
167,20,Memory,3,,,,,,,sunadoxcchtmsxewsau.jpg,,,,,,,,,,,,,,,
168,20,Memory,3,,,,,,,00997960627fa.jpg,,,,,,,,,,,,,,,
169,20,Memory,3,,,,,,,sunaafewhewbxmjiurz.jpg,,,,,,,,,,,,,,,
170,20,Memory,3,,,,,,,sunabizydfotqddlnjp.jpg,,,,,,,,,,,,,,,
171,20,Memory,3,,,,,,,00909960530.jpg,,,,,,,,,,,,,,,
172,20,Memory,3,,,,,,,00786941205fa.jpg,,,,,,,,,,,,,,,
173,20,Memory,3,,,,,,,00308940422fb.jpg,,,,,,,,,,,,,,,
174,20,Memory,3,,,,,,,sunbagfpovqwbuexqdn.jpg,,,,,,,,,,,,,,,
175,20,Memory,3,,,,,,,00076931230fa.jpg,,,,,,,,,,,,,,,
176,20,Memory,3,,,,,,,00749941201fa.jpg,,,,,,,,,,,,,,,
177,20,Memory,3,,,,,,,00111931230fb.jpg,,,,,,,,,,,,,,,
178,20,Memory,3,,,,,,,00090931230fa.jpg,,,,,,,,,,,,,,,
179,20,Memory,3,,,,,,,sunaeuvjbmdpknaqqaj.jpg,,,,,,,,,,,,,,,
180,20,Memory,3,,,,,,,suncnkvbhypnivcohyx.jpg,,,,,,,,,,,,,,,
181,20,Memory,3,,,,,,,sunbpvgllfdejxcpjqp.jpg,,,,,,,,,,,,,,,
182,20,Memory,3,,,,,,,00138931230fa.jpg,,,,,,,,,,,,,,,
183,20,Memory,3,,,,,,,sunabxmguapjekttvwm.jpg,,,,,,,,,,,,,,,
184,20,Memory,3,,,,,,,sunbfzchmomnvzhbxdg.jpg,,,,,,,,,,,,,,,
185,20,Memory,3,,,,,,,sunaathajvxrgptwhoj.jpg,,,,,,,,,,,,,,,
186,20,Memory,3,,,,,,,sunaapfaivxqoynnwwp.jpg,,,,,,,,,,,,,,,
187,20,Memory,3,,,,,,,sunbddbivbptlrlauhy.jpg,,,,,,,,,,,,,,,
188,20,Memory,3,,,,,,,sunaakgekhjklxmvulj.jpg,,,,,,,,,,,,,,,
189,20,Memory,3,,,,,,,00984960627fa.jpg,,,,,,,,,,,,,,,
190,20,Memory,3,,,,,,,01010960627fa.jpg,,,,,,,,,,,,,,,
191,20,Memory,3,,,,,,,00144931230fb.jpg,,,,,,,,,,,,,,,
192,20,Memory,3,,,,,,,00316940422fa.jpg,,,,,,,,,,,,,,,
193,20,Memory,3,,,,,,,00968960627fa.jpg,,,,,,,,,,,,,,,
194,20,Memory,3,,,,,,,00262940128fa.jpg,,,,,,,,,,,,,,,
195,20,Memory,3,,,,,,,sunaobtizabegtwfwul.jpg,,,,,,,,,,,,,,,
196,20,Memory,3,,,,,,,sunaahedjlmtqekgyvj.jpg,,,,,,,,,,,,,,,
197,20,Memory,3,,,,,,,00996960627fa.jpg,,,,,,,,,,,,,,,
198,20,Memory,3,,,,,,,00675941121fa.jpg,,,,,,,,,,,,,,,
199,20,Memory,3,,,,,,,sunaprnrbmgkomdbchr.jpg,,,,,,,,,,,,,,,
200,20,Presentation,4,00939960627fa_sunarceibpcyacbmfga.jpg,00647941031fa_sunadflbrkckmepztql.jpg,00939960627fa.jpg,sunarceibpcyacbmfga.jpg,00647941031fa.jpg,sunadflbrkckmepztql.jpg,,,<,Face,,,,,0,,,,,,,x
201,20,Presentation,4,00197940128fa_sunaaylzyqlqrsmfwif.jpg,00783941205fa_sunagjeesomrwjsfqie.jpg,00197940128fa.jpg,sunaaylzyqlqrsmfwif.jpg,00783941205fa.jpg,sunagjeesomrwjsfqie.jpg,,,<,Face,,,,,1,,,,,,,x
202,20,Presentation,4,00766960620fa_sunafijbgncijwykrnl.jpg,00694941121fa_sunadrmfzmstgdjdcod.jpg,00766960620fa.jpg,sunafijbgncijwykrnl.jpg,00694941121fa.jpg,sunadrmfzmstgdjdcod.jpg,,,<,Face,,,,,1,,,,,,,x
203,20,Presentation,4,00543940519fa_sunacepzfrmtkiqonpy.jpg,00498960627fa_sunabzjxlmkwnwzimua.jpg,00543940519fa.jpg,sunacepzfrmtkiqonpy.jpg,00498960627fa.jpg,sunabzjxlmkwnwzimua.jpg,,,<,Face,,,,,1,,,,,,,o
204,20,Presentation,4,00880960530fa_sunakmnfgklupjijsgf.jpg,00754941201fa_sunaffgsyyvoqdlkmnk.jpg,00880960530fa.jpg,sunakmnfgklupjijsgf.jpg,00754941201fa.jpg,sunaffgsyyvoqdlkmnk.jpg,,,<,Face,,,,,1,,,,,,,x
205,20,Presentation,4,00771941205fa_sunafowswglhxcsufpo.jpg,00795941205fa_sunagtumacdlmciqamz.jpg,00771941205fa.jpg,sunafowswglhxcsufpo.jpg,00795941205fa.jpg,sunagtumacdlmciqamz.jpg,,,<,Face,,,,,1,,,,,,,x
206,20,Presentation,4,00807941205fa_sunahawfngukizslzsd.jpg,00101931230fb_sunaajqmsaavkmgbsth.jpg,00807941205fa.jpg,sunahawfngukizslzsd.jpg,00101931230fb.jpg,sunaajqmsaavkmgbsth.jpg,,,<,Face,,,,,1,,,,,,,x
207,20,Presentation,4,00963960627fa_sunayaepykrqvenaqqy.jpg,00532960627fa_sunaccdtpgenvcbcbcf.jpg,00963960627fa.jpg,sunayaepykrqvenaqqy.jpg,00532960627fa.jpg,sunaccdtpgenvcbcbcf.jpg,,,<,Face,,,,,1,,,,,,,x
208,20,Presentation,4,00662941121fa_sunadkazmlajmohnwfl.jpg,00142931230fb_sunaapxkpvrhpjplsok.jpg,00662941121fa.jpg,sunadkazmlajmohnwfl.jpg,00142931230fb.jpg,sunaapxkpvrhpjplsok.jpg,,,<,Face,,,,,1,,,,,,,o
209,20,Presentation,4,00870940307fa_sunajrgtewnualfcerj.jpg,00970960627fa_sunbasypfgzjtomktmu.jpg,00870940307fa.jpg,sunajrgtewnualfcerj.jpg,00970960627fa.jpg,sunbasypfgzjtomktmu.jpg,,,<,Face,,,,,1,,,,,,,x
210,20,Memory,4,,,,,,,00931960627fa.jpg,,,,,,,,,,,,,,,
211,20,Memory,4,,,,,,,00807941205fa.jpg,,,,,,,,,,,,,,,
212,20,Memory,4,,,,,,,00986960627fa.jpg,,,,,,,,,,,,,,,
213,20,Memory,4,,,,,,,00288940422fa.jpg,,,,,,,,,,,,,,,
214,20,Memory,4,,,,,,,00870940307fa.jpg,,,,,,,,,,,,,,,
215,20,Memory,4,,,,,,,sunadrmfzmstgdjdcod.jpg,,,,,,,,,,,,,,,
216,20,Memory,4,,,,,,,00933960627fa.jpg,,,,,,,,,,,,,,,
217,20,Memory,4,,,,,,,sunahawfngukizslzsd.jpg,,,,,,,,,,,,,,,
218,20,Memory,4,,,,,,,00983960627fa.jpg,,,,,,,,,,,,,,,
219,20,Memory,4,,,,,,,00766960620fa.jpg,,,,,,,,,,,,,,,
220,20,Memory,4,,,,,,,sunbfyvfqiimvdaxlqn.jpg,,,,,,,,,,,,,,,
221,20,Memory,4,,,,,,,sunbasypfgzjtomktmu.jpg,,,,,,,,,,,,,,,
222,20,Memory,4,,,,,,,00963960627fa.jpg,,,,,,,,,,,,,,,
223,20,Memory,4,,,,,,,sunaptrqvaooxfvktvw.jpg,,,,,,,,,,,,,,,
224,20,Memory,4,,,,,,,00754941201fa.jpg,,,,,,,,,,,,,,,
225,20,Memory,4,,,,,,,sunasnqkkyhilqkxiqm.jpg,,,,,,,,,,,,,,,
226,20,Memory,4,,,,,,,sunabzjxlmkwnwzimua.jpg,,,,,,,,,,,,,,,
227,20,Memory,4,,,,,,,00120931230fa.jpg,,,,,,,,,,,,,,,
228,20,Memory,4,,,,,,,sunaffgsyyvoqdlkmnk.jpg,,,,,,,,,,,,,,,
229,20,Memory,4,,,,,,,00142931230fb.jpg,,,,,,,,,,,,,,,
230,20,Memory,4,,,,,,,sunakmnfgklupjijsgf.jpg,,,,,,,,,,,,,,,
231,20,Memory,4,,,,,,,sunaapxkpvrhpjplsok.jpg,,,,,,,,,,,,,,,
232,20,Memory,4,,,,,,,sunapwjkcxdaeqehfql.jpg,,,,,,,,,,,,,,,
233,20,Memory,4,,,,,,,sunadfktsqjthoglcsm.jpg,,,,,,,,,,,,,,,
234,20,Memory,4,,,,,,,00970960627fa.jpg,,,,,,,,,,,,,,,
235,20,Memory,4,,,,,,,00949960627fb.jpg,,,,,,,,,,,,,,,
236,20,Memory,4,,,,,,,00694941121fa.jpg,,,,,,,,,,,,,,,
237,20,Memory,4,,,,,,,sunajrgtewnualfcerj.jpg,,,,,,,,,,,,,,,
238,20,Memory,4,,,,,,,sunayaepykrqvenaqqy.jpg,,,,,,,,,,,,,,,
239,20,Memory,4,,,,,,,00568940928fa.jpg,,,,,,,,,,,,,,,
240,20,Memory,4,,,,,,,sunapileznnbbmrwoei.jpg,,,,,,,,,,,,,,,
241,20,Memory,4,,,,,,,sunaakxgygjfqrzpyoz.jpg,,,,,,,,,,,,,,,
242,20,Memory,4,,,,,,,00915960620fa.jpg,,,,,,,,,,,,,,,
243,20,Memory,4,,,,,,,sunafijbgncijwykrnl.jpg,,,,,,,,,,,,,,,
244,20,Memory,4,,,,,,,sunacsdhbbsybcyxnel.jpg,,,,,,,,,,,,,,,
245,20,Memory,4,,,,,,,00880960530fa.jpg,,,,,,,,,,,,,,,
246,20,Memory,4,,,,,,,00498960627fa.jpg,,,,,,,,,,,,,,,
247,20,Memory,4,,,,,,,sunabppokiyglaxpcha.jpg,,,,,,,,,,,,,,,
248,20,Memory,4,,,,,,,00638941031fa.jpg,,,,,,,,,,,,,,,
249,20,Memory,4,,,,,,,sunbgzjryivyczuvkvm.jpg,,,,,,,,,,,,,,,
250,20,Presentation,5,00119931230fb_sunaakvmbftkrgqhjun.jpg,00768941205fa_sunafkmnlytenlsywia.jpg,00119931230fb.jpg,sunaakvmbftkrgqhjun.jpg,00768941205fa.jpg,sunafkmnlytenlsywia.jpg,,,<,Place,,,,,0,,,,,,,x
251,20,Presentation,5,00081941031fa_sunaaftlyfudyzuhqzf.jpg,00154931230fa_sunaauueuhhvklldjik.jpg,00081941031fa.jpg,sunaaftlyfudyzuhqzf.jpg,00154931230fa.jpg,sunaauueuhhvklldjik.jpg,,,<,Place,,,,,1,,,,,,,o
252,20,Presentation,5,00727941205fa_sunaeisnjeetzmkbuad.jpg,00866940307fa_sunajbwkywmsqkldfml.jpg,00727941205fa.jpg,sunaeisnjeetzmkbuad.jpg,00866940307fa.jpg,sunajbwkywmsqkldfml.jpg,,,<,Place,,,,,1,,,,,,,o
253,20,Presentation,5,00936960627fa_sunaqgjuuwvdcyiccjt.jpg,00990960627fa_sunbpflsdaxnddnwcqi.jpg,00936960627fa.jpg,sunaqgjuuwvdcyiccjt.jpg,00990960627fa.jpg,sunbpflsdaxnddnwcqi.jpg,,,<,Place,,,,,1,,,,,,,o
254,20,Presentation,5,00073931230fa_sunaafbmtoniaasysgu.jpg,00746941201fa_sunaetydippjxikifsb.jpg,00073931230fa.jpg,sunaafbmtoniaasysgu.jpg,00746941201fa.jpg,sunaetydippjxikifsb.jpg,,,<,Place,,,,,1,,,,,,,x
255,20,Presentation,5,00858940307fa_sunaixpqndlwhwjtjek.jpg,00925960627fa_sunapqwnqzxlsfvgsjm.jpg,00858940307fa.jpg,sunaixpqndlwhwjtjek.jpg,00925960627fa.jpg,sunapqwnqzxlsfvgsjm.jpg,,,<,Place,,,,,1,,,,,,,o
256,20,Presentation,5,00942960627fa_sunarfdklgdnjgeqfjg.jpg,00742941201fa_sunaenwuebvlpdmntju.jpg,00942960627fa.jpg,sunarfdklgdnjgeqfjg.jpg,00742941201fa.jpg,sunaenwuebvlpdmntju.jpg,,,<,Place,,,,,1,,,,,,,o
257,20,Presentation,5,00609940928fa_sunacycdoztxoluxjyk.jpg,00650941031fa_sunadikxpvqeabxrvvc.jpg,00609940928fa.jpg,sunacycdoztxoluxjyk.jpg,00650941031fa.jpg,sunadikxpvqeabxrvvc.jpg,,,<,Place,,,,,1,,,,,,,o
258,20,Presentation,5,00815941205fa_sunahiphsekjihkafsl.jpg,00882960530fa_sunaknlirqjqiwbbeeg.jpg,00815941205fa.jpg,sunahiphsekjihkafsl.jpg,00882960530fa.jpg,sunaknlirqjqiwbbeeg.jpg,,,<,Place,,,,,1,,,,,,,o
259,20,Presentation,5,00877960530fa_sunajxpkuhbizeveguy.jpg,00062931230fb_sunaaelotvjgibjtjhs.jpg,00877960530fa.jpg,sunajxpkuhbizeveguy.jpg,00062931230fb.jpg,sunaaelotvjgibjtjhs.jpg,,,<,Place,,,,,1,,,,,,,o
260,20,Memory,5,,,,,,,sunadvithllcgmfxsrn.jpg,,,,,,,,,,,,,,,
261,20,Memory,5,,,,,,,sunaajpqmulidejvjsr.jpg,,,,,,,,,,,,,,,
262,20,Memory,5,,,,,,,sunaetydippjxikifsb.jpg,,,,,,,,,,,,,,,
263,20,Memory,5,,,,,,,00719941201fa.jpg,,,,,,,,,,,,,,,
264,20,Memory,5,,,,,,,00936960627fa.jpg,,,,,,,,,,,,,,,
265,20,Memory,5,,,,,,,00746941201fa.jpg,,,,,,,,,,,,,,,
266,20,Memory,5,,,,,,,sunaauueuhhvklldjik.jpg,,,,,,,,,,,,,,,
267,20,Memory,5,,,,,,,00972960627fa.jpg,,,,,,,,,,,,,,,
268,20,Memory,5,,,,,,,sunaeisnjeetzmkbuad.jpg,,,,,,,,,,,,,,,
269,20,Memory,5,,,,,,,00727941205fa.jpg,,,,,,,,,,,,,,,
270,20,Memory,5,,,,,,,sunadikxpvqeabxrvvc.jpg,,,,,,,,,,,,,,,
271,20,Memory,5,,,,,,,00877960530fa.jpg,,,,,,,,,,,,,,,
272,20,Memory,5,,,,,,,sunbbfqwjpdxniyhies.jpg,,,,,,,,,,,,,,,
273,20,Memory,5,,,,,,,sunacycdoztxoluxjyk.jpg,,,,,,,,,,,,,,,
274,20,Memory,5,,,,,,,sunaaelotvjgibjtjhs.jpg,,,,,,,,,,,,,,,
275,20,Memory,5,,,,,,,00990960627fa.jpg,,,,,,,,,,,,,,,
276,20,Memory,5,,,,,,,sunawotxrevnqvamsfp.jpg,,,,,,,,,,,,,,,
277,20,Memory,5,,,,,,,00790941205fa.jpg,,,,,,,,,,,,,,,
278,20,Memory,5,,,,,,,00154931230fa.jpg,,,,,,,,,,,,,,,
279,20,Memory,5,,,,,,,00650941031fa.jpg,,,,,,,,,,,,,,,
280,20,Memory,5,,,,,,,00146960620fb.jpg,,,,,,,,,,,,,,,
281,20,Memory,5,,,,,,,sunaatpeezlljqaxlhj.jpg,,,,,,,,,,,,,,,
282,20,Memory,5,,,,,,,sunagpjzsbltchlwvou.jpg,,,,,,,,,,,,,,,
283,20,Memory,5,,,,,,,sunbpflsdaxnddnwcqi.jpg,,,,,,,,,,,,,,,
284,20,Memory,5,,,,,,,00073931230fa.jpg,,,,,,,,,,,,,,,
285,20,Memory,5,,,,,,,00505960627fa.jpg,,,,,,,,,,,,,,,
286,20,Memory,5,,,,,,,sunabzuqsrgcsonqlkz.jpg,,,,,,,,,,,,,,,
287,20,Memory,5,,,,,,,00961960627fa.jpg,,,,,,,,,,,,,,,
288,20,Memory,5,,,,,,,sunbwaafjdebjzttuvq.jpg,,,,,,,,,,,,,,,
289,20,Memory,5,,,,,,,sunaanlwnpqndclffxt.jpg,,,,,,,,,,,,,,,
290,20,Memory,5,,,,,,,00906960530fa.jpg,,,,,,,,,,,,,,,
291,20,Memory,5,,,,,,,sunantryfbloeaomfta.jpg,,,,,,,,,,,,,,,
292,20,Memory,5,,,,,,,00098931230fa.jpg,,,,,,,,,,,,,,,
293,20,Memory,5,,,,,,,sunaafbmtoniaasysgu.jpg,,,,,,,,,,,,,,,
294,20,Memory,5,,,,,,,01002960627fb.jpg,,,,,,,,,,,,,,,
295,20,Memory,5,,,,,,,00062931230fb.jpg,,,,,,,,,,,,,,,
296,20,Memory,5,,,,,,,sunajxpkuhbizeveguy.jpg,,,,,,,,,,,,,,,
297,20,Memory,5,,,,,,,00609940928fa.jpg,,,,,,,,,,,,,,,
298,20,Memory,5,,,,,,,sunaqgjuuwvdcyiccjt.jpg,,,,,,,,,,,,,,,
299,20,Memory,5,,,,,,,00133931230fa.jpg,,,,,,,,,,,,,,,
300,20,Presentation,6,00859940307fa_sunaiycurtqsfkvcaso.jpg,00158931230fb_sunaavchcbptaerhcfy.jpg,00859940307fa.jpg,sunaiycurtqsfkvcaso.jpg,00158931230fb.jpg,sunaavchcbptaerhcfy.jpg,,,>,Place,,,,,1,,,,,,,x
301,20,Presentation,6,00895960530fa_sunamczizlzavhzhpay.jpg,00123931230fb_sunaalcrrdbjgdztbiz.jpg,00895960530fa.jpg,sunamczizlzavhzhpay.jpg,00123931230fb.jpg,sunaalcrrdbjgdztbiz.jpg,,,>,Place,,,,,1,,,,,,,x
302,20,Presentation,6,00885960530fa_sunakwlvxjpddialozd.jpg,00598940928fa_sunacxeheuiigkcgquf.jpg,00885960530fa.jpg,sunakwlvxjpddialozd.jpg,00598940928fa.jpg,sunacxeheuiigkcgquf.jpg,,,>,Place,,,,,0,,,,,,,o
303,20,Presentation,6,00063931230fa_sunaaelyvurpntclgau.jpg,00988960627fa_sunbmaiocftdtvnzgap.jpg,00063931230fa.jpg,sunaaelyvurpntclgau.jpg,00988960627fa.jpg,sunbmaiocftdtvnzgap.jpg,,,>,Place,,,,,1,,,,,,,x
304,20,Presentation,6,00633940928fa_sunadbhmrgrrpyzglxs.jpg,00792941205fa_sunagsiwrmuixqgdimb.jpg,00633940928fa.jpg,sunadbhmrgrrpyzglxs.jpg,00792941205fa.jpg,sunagsiwrmuixqgdimb.jpg,,,>,Place,,,,,1,,,,,,,o
305,20,Presentation,6,00131931230fb_sunaangbuylfvckqqoo.jpg,00089931230fa_sunaagcpoejbuzyvddd.jpg,00131931230fb.jpg,sunaangbuylfvckqqoo.jpg,00089931230fa.jpg,sunaagcpoejbuzyvddd.jpg,,,>,Place,,,,,0,,,,,,,o
306,20,Presentation,6,00966960627fa_sunaygrtwrwfezqjizr.jpg,00935960627fa_sunaqbmgkgqucajzrkp.jpg,00966960627fa.jpg,sunaygrtwrwfezqjizr.jpg,00935960627fa.jpg,sunaqbmgkgqucajzrkp.jpg,,,>,Place,,,,,0,,,,,,,o
307,20,Presentation,6,00835940307fa_sunaijsqpvodplbwxkf.jpg,00787960620fa_sunagoufulkpsxrmklt.jpg,00835940307fa.jpg,sunaijsqpvodplbwxkf.jpg,00787960620fa.jpg,sunagoufulkpsxrmklt.jpg,,,>,Place,,,,,1,,,,,,,o
308,20,Presentation,6,00908960530fa_sunanwjjyqqwzqrqagd.jpg,00294940422fb_sunabrlndkruqokhury.jpg,00908960530fa.jpg,sunanwjjyqqwzqrqagd.jpg,00294940422fb.jpg,sunabrlndkruqokhury.jpg,,,>,Place,,,,,1,,,,,,,o
309,20,Presentation,6,00292940422fb_sunabrjdpmoedcdjbpo.jpg,00862940307fa_sunaizgnnplsvajzhkc.jpg,00292940422fb.jpg,sunabrjdpmoedcdjbpo.jpg,00862940307fa.jpg,sunaizgnnplsvajzhkc.jpg,,,>,Place,,,,,1,,,,,,,x
310,20,Memory,6,,,,,,,sunaekgzpfilgjxpeyq.jpg,,,,,,,,,,,,,,,
311,20,Memory,6,,,,,,,sunakwlvxjpddialozd.jpg,,,,,,,,,,,,,,,
312,20,Memory,6,,,,,,,sunaaiqiqcggrskoqgy.jpg,,,,,,,,,,,,,,,
313,20,Memory,6,,,,,,,00919960620fa.jpg,,,,,,,,,,,,,,,
314,20,Memory,6,,,,,,,sunapmfmzadmosuogaz.jpg,,,,,,,,,,,,,,,
315,20,Memory,6,,,,,,,00294940422fb.jpg,,,,,,,,,,,,,,,
316,20,Memory,6,,,,,,,sunabrlndkruqokhury.jpg,,,,,,,,,,,,,,,
317,20,Memory,6,,,,,,,sunaalhlvzmjmitybdn.jpg,,,,,,,,,,,,,,,
318,20,Memory,6,,,,,,,sunamczizlzavhzhpay.jpg,,,,,,,,,,,,,,,
319,20,Memory,6,,,,,,,00096931230fa.jpg,,,,,,,,,,,,,,,
320,20,Memory,6,,,,,,,00885960530fa.jpg,,,,,,,,,,,,,,,
321,20,Memory,6,,,,,,,00926960627Fa.jpg,,,,,,,,,,,,,,,
322,20,Memory,6,,,,,,,00720960620fa.jpg,,,,,,,,,,,,,,,
323,20,Memory,6,,,,,,,00745941205fa.jpg,,,,,,,,,,,,,,,
324,20,Memory,6,,,,,,,00124931230fa.jpg,,,,,,,,,,,,,,,
325,20,Memory,6,,,,,,,sunbvbrvgbpanfrawft.jpg,,,,,,,,,,,,,,,
326,20,Memory,6,,,,,,,00895960530fa.jpg,,,,,,,,,,,,,,,
327,20,Memory,6,,,,,,,sunaecpkgfewqqreqwe.jpg,,,,,,,,,,,,,,,
328,20,Memory,6,,,,,,,00862940307fa.jpg,,,,,,,,,,,,,,,
329,20,Memory,6,,,,,,,sunabtlfmiwtljmoues.jpg,,,,,,,,,,,,,,,
330,20,Memory,6,,,,,,,sunaygrtwrwfezqjizr.jpg,,,,,,,,,,,,,,,
331,20,Memory,6,,,,,,,sunaeouogqolxvggaoq.jpg,,,,,,,,,,,,,,,
332,20,Memory,6,,,,,,,00089931230fa.jpg,,,,,,,,,,,,,,,
333,20,Memory,6,,,,,,,00966960627fa.jpg,,,,,,,,,,,,,,,
334,20,Memory,6,,,,,,,sunaaelyvurpntclgau.jpg,,,,,,,,,,,,,,,
335,20,Memory,6,,,,,,,00999960627fa.jpg,,,,,,,,,,,,,,,
336,20,Memory,6,,,,,,,00131931230fb.jpg,,,,,,,,,,,,,,,
337,20,Memory,6,,,,,,,00730960620fa.jpg,,,,,,,,,,,,,,,
338,20,Memory,6,,,,,,,sunaagcpoejbuzyvddd.jpg,,,,,,,,,,,,,,,
339,20,Memory,6,,,,,,,00063931230fa.jpg,,,,,,,,,,,,,,,
340,20,Memory,6,,,,,,,00792941205fa.jpg,,,,,,,,,,,,,,,
341,20,Memory,6,,,,,,,sunabqowuarvqqcnipn.jpg,,,,,,,,,,,,,,,
342,20,Memory,6,,,,,,,00123931230fb.jpg,,,,,,,,,,,,,,,
343,20,Memory,6,,,,,,,00290940422fa.jpg,,,,,,,,,,,,,,,
344,20,Memory,6,,,,,,,sunagsiwrmuixqgdimb.jpg,,,,,,,,,,,,,,,
345,20,Memory,6,,,,,,,sunaizgnnplsvajzhkc.jpg,,,,,,,,,,,,,,,
346,20,Memory,6,,,,,,,sunaalcrrdbjgdztbiz.jpg,,,,,,,,,,,,,,,
347,20,Memory,6,,,,,,,sunapqwoeotxshkukbh.jpg,,,,,,,,,,,,,,,
348,20,Memory,6,,,,,,,00302940422fa.jpg,,,,,,,,,,,,,,,
349,20,Memory,6,,,,,,,sunaangbuylfvckqqoo.jpg,,,,,,,,,,,,,,,
350,20,Presentation,7,00836940307fa_sunainqelldeebvxtcz.jpg,00796941205fa_sunaguchqqnrtodtezq.jpg,00836940307fa.jpg,sunainqelldeebvxtcz.jpg,00796941205fa.jpg,sunaguchqqnrtodtezq.jpg,,,>,Face,,,,,1,,,,,,,o
351,20,Presentation,7,00681941121fa_sunadqmjrhfjyuzyvdd.jpg,00854940307fa_sunaiwduelojtwaqeyh.jpg,00681941121fa.jpg,sunadqmjrhfjyuzyvdd.jpg,00854940307fa.jpg,sunaiwduelojtwaqeyh.jpg,,,>,Face,,,,,1,,,,,,,o
352,20,Presentation,7,00869940307fa_sunajoveqhiprwqgoco.jpg,00263940128fb_sunabjuovqvyfuzvqwt.jpg,00869940307fa.jpg,sunajoveqhiprwqgoco.jpg,00263940128fb.jpg,sunabjuovqvyfuzvqwt.jpg,,,>,Face,,,,,1,,,,,,,x
353,20,Presentation,7,00507940519fa_sunacacflqoyxhsqzhe.jpg,00809960620fa_sunahbvlpavurqoxdeq.jpg,00507940519fa.jpg,sunacacflqoyxhsqzhe.jpg,00809960620fa.jpg,sunahbvlpavurqoxdeq.jpg,,,>,Face,,,,,1,,,,,,,x
354,20,Presentation,7,00812941205fa_sunahgtbwgsmtqeodwh.jpg,00564941031fa_sunacsaovnjezqwbykf.jpg,00812941205fa.jpg,sunahgtbwgsmtqeodwh.jpg,00564941031fa.jpg,sunacsaovnjezqwbykf.jpg,,,>,Face,,,,,1,,,,,,,x
355,20,Presentation,7,00965960627fa_sunaydywdmvlfddbxbk.jpg,00149931230fa_sunaauglwmctnkxyird.jpg,00965960627fa.jpg,sunaydywdmvlfddbxbk.jpg,00149931230fa.jpg,sunaauglwmctnkxyird.jpg,,,>,Face,,,,,1,,,,,,,x
356,20,Presentation,7,00762941201fa_sunafgzgbisbopcyslr.jpg,00129931230fb_sunaamsdyakblkfoydx.jpg,00762941201fa.jpg,sunafgzgbisbopcyslr.jpg,00129931230fb.jpg,sunaamsdyakblkfoydx.jpg,,,>,Face,,,,,1,,,,,,,x
357,20,Presentation,7,00878960530fa_sunakgbnzxmfohgehnu.jpg,00784941205fb_sunagjzcrjvmxzqzljx.jpg,00878960530fa.jpg,sunakgbnzxmfohgehnu.jpg,00784941205fb.jpg,sunagjzcrjvmxzqzljx.jpg,,,>,Face,,,,,1,,,,,,,x
358,20,Presentation,7,00620940928fa_sunacypmnujalygkunp.jpg,00810941205fa_sunahctntqrunhdxhtb.jpg,00620940928fa.jpg,sunacypmnujalygkunp.jpg,00810941205fa.jpg,sunahctntqrunhdxhtb.jpg,,,>,Face,,,,,1,,,,,,,x
359,20,Presentation,7,00147931230fb_sunaatpkocdkocwxpkb.jpg,00938960627fa_sunaqyylsngywqzwfmx.jpg,00147931230fb.jpg,sunaatpkocdkocwxpkb.jpg,00938960627fa.jpg,sunaqyylsngywqzwfmx.jpg,,,>,Face,,,,,1,,,,,,,x
360,20,Memory,7,,,,,,,sunainqelldeebvxtcz.jpg,,,,,,,,,,,,,,,
361,20,Memory,7,,,,,,,00149931230fa.jpg,,,,,,,,,,,,,,,
362,20,Memory,7,,,,,,,sunaakjaacuzulqckgl.jpg,,,,,,,,,,,,,,,
363,20,Memory,7,,,,,,,00705960530fa.jpg,,,,,,,,,,,,,,,
364,20,Memory,7,,,,,,,sunahgtbwgsmtqeodwh.jpg,,,,,,,,,,,,,,,
365,20,Memory,7,,,,,,,00112931230fa.jpg,,,,,,,,,,,,,,,
366,20,Memory,7,,,,,,,00147931230fb.jpg,,,,,,,,,,,,,,,
367,20,Memory,7,,,,,,,sunahbvlpavurqoxdeq.jpg,,,,,,,,,,,,,,,
368,20,Memory,7,,,,,,,00854940307fa.jpg,,,,,,,,,,,,,,,
369,20,Memory,7,,,,,,,sunabxsbfwjccqxxzxq.jpg,,,,,,,,,,,,,,,
370,20,Memory,7,,,,,,,00938960627fa.jpg,,,,,,,,,,,,,,,
371,20,Memory,7,,,,,,,00564941031fa.jpg,,,,,,,,,,,,,,,
372,20,Memory,7,,,,,,,00773941201fa.jpg,,,,,,,,,,,,,,,
373,20,Memory,7,,,,,,,sunafvcflzhlqloapyo.jpg,,,,,,,,,,,,,,,
374,20,Memory,7,,,,,,,sunahpblecxtmuzkmxb.jpg,,,,,,,,,,,,,,,
375,20,Memory,7,,,,,,,00479940519fa.jpg,,,,,,,,,,,,,,,
376,20,Memory,7,,,,,,,sunajrujcsdxmfbssmc.jpg,,,,,,,,,,,,,,,
377,20,Memory,7,,,,,,,00809960620fa.jpg,,,,,,,,,,,,,,,
378,20,Memory,7,,,,,,,sunaaexqbtdswxrqjvz.jpg,,,,,,,,,,,,,,,
379,20,Memory,7,,,,,,,sunajoveqhiprwqgoco.jpg,,,,,,,,,,,,,,,
380,20,Memory,7,,,,,,,sunaatpkocdkocwxpkb.jpg,,,,,,,,,,,,,,,
381,20,Memory,7,,,,,,,00878960530fa.jpg,,,,,,,,,,,,,,,
382,20,Memory,7,,,,,,,00812941205fa.jpg,,,,,,,,,,,,,,,
383,20,Memory,7,,,,,,,00185940422fb.jpg,,,,,,,,,,,,,,,
384,20,Memory,7,,,,,,,00887960530.jpg,,,,,,,,,,,,,,,
385,20,Memory,7,,,,,,,sunalcrtwiycqobgelp.jpg,,,,,,,,,,,,,,,
386,20,Memory,7,,,,,,,sunaawqdbpihmlbwyyn.jpg,,,,,,,,,,,,,,,
387,20,Memory,7,,,,,,,00836940307fa.jpg,,,,,,,,,,,,,,,
388,20,Memory,7,,,,,,,sunacsaovnjezqwbykf.jpg,,,,,,,,,,,,,,,
389,20,Memory,7,,,,,,,sunaiwduelojtwaqeyh.jpg,,,,,,,,,,,,,,,
390,20,Memory,7,,,,,,,00314940422fa.jpg,,,,,,,,,,,,,,,
391,20,Memory,7,,,,,,,00071941031fa.jpg,,,,,,,,,,,,,,,
392,20,Memory,7,,,,,,,00818940307fa.jpg,,,,,,,,,,,,,,,
393,20,Memory,7,,,,,,,sunabwmcbaxwioksdgw.jpg,,,,,,,,,,,,,,,
394,20,Memory,7,,,,,,,sunakgbnzxmfohgehnu.jpg,,,,,,,,,,,,,,,
395,20,Memory,7,,,,,,,sunaauglwmctnkxyird.jpg,,,,,,,,,,,,,,,
396,20,Memory,7,,,,,,,sunaqyylsngywqzwfmx.jpg,,,,,,,,,,,,,,,
397,20,Memory,7,,,,,,,00871940307.jpg,,,,,,,,,,,,,,,
398,20,Memory,7,,,,,,,00869940307fa.jpg,,,,,,,,,,,,,,,
399,20,Memory,7,,,,,,,sunaduslxfzlbxlllnz.jpg,,,,,,,,,,,,,,,
