,Subject,Trial Type,Run,Cued Composite,Uncued Composite,Cued Face,Cued Place,Uncued Face,Uncued Place,Memory Image,Category,Cued Side,Cued Category,Attention Reaction Time (s),Familiarity Reaction Time (s),Familiarity Rating,Attention Level,Cue Validity,Post Invalid Cue,Pre Invalid Cue,Attention Button,Rating History,Stimulus Onset,Stimulus End,Attention Probe
0,16,Presentation,0,00851940307fa_sunaivflshbyfrfzhqb.jpg,00744941201fa_sunaeomlfaabhpswasy.jpg,00851940307fa.jpg,sunaivflshbyfrfzhqb.jpg,00744941201fa.jpg,sunaeomlfaabhpswasy.jpg,,,<,Face,,,,,1,,,,,,,o
1,16,Presentation,0,00915960620fa_sunapileznnbbmrwoei.jpg,00773941201fa_sunafvcflzhlqloapyo.jpg,00915960620fa.jpg,sunapileznnbbmrwoei.jpg,00773941201fa.jpg,sunafvcflzhlqloapyo.jpg,,,<,Place,,,,,1,,,,,,,o
2,16,Presentation,0,00795941205fa_sunagtumacdlmciqamz.jpg,00264940128fb_sunabjzyxcjnmztdonj.jpg,00795941205fa.jpg,sunagtumacdlmciqamz.jpg,00264940128fb.jpg,sunabjzyxcjnmztdonj.jpg,,,>,Place,,,,,1,,,,,,,x
3,16,Presentation,0,00125931230fa_sunaalltyvjhbzhkmvg.jpg,00316940422fa_sunabxmguapjekttvwm.jpg,00125931230fa.jpg,sunaalltyvjhbzhkmvg.jpg,00316940422fa.jpg,sunabxmguapjekttvwm.jpg,,,>,Place,,,,,1,,,,,,,x
4,16,Presentation,0,00778941205fa_sunagcthdfirrcawoic.jpg,00483940519fa_sunabyvpwkgsjtijdwj.jpg,00778941205fa.jpg,sunagcthdfirrcawoic.jpg,00483940519fa.jpg,sunabyvpwkgsjtijdwj.jpg,,,>,Face,,,,,1,,,,,,,x
5,16,Presentation,0,00154931230fa_sunaauueuhhvklldjik.jpg,00901960530fa_sunammbnoambmhdxdwd.jpg,00154931230fa.jpg,sunaauueuhhvklldjik.jpg,00901960530fa.jpg,sunammbnoambmhdxdwd.jpg,,,<,Face,,,,,1,,,,,,,x
6,16,Presentation,0,00877960530fa_sunajxpkuhbizeveguy.jpg,00095931230fa_sunaahzooisqkwlxwoz.jpg,00877960530fa.jpg,sunajxpkuhbizeveguy.jpg,00095931230fa.jpg,sunaahzooisqkwlxwoz.jpg,,,<,Place,,,,,1,,,,,,,x
7,16,Presentation,0,00754941201fa_sunaffgsyyvoqdlkmnk.jpg,00562941031fa_sunacjnahdmqfnjfwqx.jpg,00754941201fa.jpg,sunaffgsyyvoqdlkmnk.jpg,00562941031fa.jpg,sunacjnahdmqfnjfwqx.jpg,,,>,Face,,,,,1,,,,,,,o
8,16,Presentation,0,00955960627fb_sunauburywlkjszngcq.jpg,00507940519fa_sunacacflqoyxhsqzhe.jpg,00955960627fb.jpg,sunauburywlkjszngcq.jpg,00507940519fa.jpg,sunacacflqoyxhsqzhe.jpg,,,<,Place,,,,,1,,,,,,,o
9,16,Presentation,0,00882960530fa_sunaknlirqjqiwbbeeg.jpg,00089931230fa_sunaagcpoejbuzyvddd.jpg,00882960530fa.jpg,sunaknlirqjqiwbbeeg.jpg,00089931230fa.jpg,sunaagcpoejbuzyvddd.jpg,,,>,Face,,,,,1,,,,,,,o
10,16,Memory,0,,,,,,,sunabyvpwkgsjtijdwj.jpg,,,,,,,,,,,,,,,
11,16,Memory,0,,,,,,,00754941201fa.jpg,,,,,,,,,,,,,,,
12,16,Memory,0,,,,,,,00795941205fa.jpg,,,,,,,,,,,,,,,
13,16,Memory,0,,,,,,,00790941205fa.jpg,,,,,,,,,,,,,,,
14,16,Memory,0,,,,,,,sunaffgsyyvoqdlkmnk.jpg,,,,,,,,,,,,,,,
15,16,Memory,0,,,,,,,01011960627fa.jpg,,,,,,,,,,,,,,,
16,16,Memory,0,,,,,,,sunagcthdfirrcawoic.jpg,,,,,,,,,,,,,,,
17,16,Memory,0,,,,,,,sunagtumacdlmciqamz.jpg,,,,,,,,,,,,,,,
18,16,Memory,0,,,,,,,00921960627fa.jpg,,,,,,,,,,,,,,,
19,16,Memory,0,,,,,,,sunarceibpcyacbmfga.jpg,,,,,,,,,,,,,,,
20,16,Memory,0,,,,,,,00957960627fa.jpg,,,,,,,,,,,,,,,
21,16,Memory,0,,,,,,,00559940519fa.jpg,,,,,,,,,,,,,,,
22,16,Memory,0,,,,,,,00095931230fa.jpg,,,,,,,,,,,,,,,
23,16,Memory,0,,,,,,,00900960530fa.jpg,,,,,,,,,,,,,,,
24,16,Memory,0,,,,,,,sunaamsdyakblkfoydx.jpg,,,,,,,,,,,,,,,
25,16,Memory,0,,,,,,,sunavhxgmgrqsaptynb.jpg,,,,,,,,,,,,,,,
26,16,Memory,0,,,,,,,sunaahwnmtqsrhocysw.jpg,,,,,,,,,,,,,,,
27,16,Memory,0,,,,,,,sundahdxwmcdluscvot.jpg,,,,,,,,,,,,,,,
28,16,Memory,0,,,,,,,sunaalltyvjhbzhkmvg.jpg,,,,,,,,,,,,,,,
29,16,Memory,0,,,,,,,sunagpjzsbltchlwvou.jpg,,,,,,,,,,,,,,,
30,16,Memory,0,,,,,,,sunamlotskmmsjeogby.jpg,,,,,,,,,,,,,,,
31,16,Memory,0,,,,,,,00507940519fa.jpg,,,,,,,,,,,,,,,
32,16,Memory,0,,,,,,,sunacjkmnpawfzbyvae.jpg,,,,,,,,,,,,,,,
33,16,Memory,0,,,,,,,sunacacflqoyxhsqzhe.jpg,,,,,,,,,,,,,,,
34,16,Memory,0,,,,,,,00773941201fa.jpg,,,,,,,,,,,,,,,
35,16,Memory,0,,,,,,,00778941205fa.jpg,,,,,,,,,,,,,,,
36,16,Memory,0,,,,,,,01000960627fa.jpg,,,,,,,,,,,,,,,
37,16,Memory,0,,,,,,,00562941031fa.jpg,,,,,,,,,,,,,,,
38,16,Memory,0,,,,,,,sunbvzmgrdvaakxusbu.jpg,,,,,,,,,,,,,,,
39,16,Memory,0,,,,,,,sunafvcflzhlqloapyo.jpg,,,,,,,,,,,,,,,
40,16,Memory,0,,,,,,,sunapqkpqdfvxlbqwyo.jpg,,,,,,,,,,,,,,,
41,16,Memory,0,,,,,,,00939960627fa.jpg,,,,,,,,,,,,,,,
42,16,Memory,0,,,,,,,sunauburywlkjszngcq.jpg,,,,,,,,,,,,,,,
43,16,Memory,0,,,,,,,00483940519fa.jpg,,,,,,,,,,,,,,,
44,16,Memory,0,,,,,,,00129931230fb.jpg,,,,,,,,,,,,,,,
45,16,Memory,0,,,,,,,00955960627fb.jpg,,,,,,,,,,,,,,,
46,16,Memory,0,,,,,,,sunacjnahdmqfnjfwqx.jpg,,,,,,,,,,,,,,,
47,16,Memory,0,,,,,,,00093931230fa.jpg,,,,,,,,,,,,,,,
48,16,Memory,0,,,,,,,00125931230fa.jpg,,,,,,,,,,,,,,,
49,16,Memory,0,,,,,,,sunaahzooisqkwlxwoz.jpg,,,,,,,,,,,,,,,
50,16,Presentation,1,00786941205fa_sunagmhildamktmqjss.jpg,00265940128fb_sunabkmdplkdbvxriff.jpg,00786941205fa.jpg,sunagmhildamktmqjss.jpg,00265940128fb.jpg,sunabkmdplkdbvxriff.jpg,,,<,Place,,,,,1,,,,,,,x
51,16,Presentation,1,00913960530fa_sunaooffzffbhcpirmm.jpg,00973960627fa_sunbbgtoeuzierkkajt.jpg,00913960530fa.jpg,sunaooffzffbhcpirmm.jpg,00973960627fa.jpg,sunbbgtoeuzierkkajt.jpg,,,>,Face,,,,,1,,,,,,,x
52,16,Presentation,1,00970960627fa_sunbasypfgzjtomktmu.jpg,00271940422fa_sunabmbnddafmywtjjj.jpg,00970960627fa.jpg,sunbasypfgzjtomktmu.jpg,00271940422fa.jpg,sunabmbnddafmywtjjj.jpg,,,>,Place,,,,,1,,,,,,,x
53,16,Presentation,1,00787941205fa_sunagmwxxwymwojbvgi.jpg,00076931230fa_sunaafewhewbxmjiurz.jpg,00787941205fa.jpg,sunagmwxxwymwojbvgi.jpg,00076931230fa.jpg,sunaafewhewbxmjiurz.jpg,,,<,Face,,,,,1,,,,,,,o
54,16,Presentation,1,00576941031fa_sunacvjlsylseoghjup.jpg,00906960530fa_sunantryfbloeaomfta.jpg,00576941031fa.jpg,sunacvjlsylseoghjup.jpg,00906960530fa.jpg,sunantryfbloeaomfta.jpg,,,>,Face,,,,,1,,,,,,,o
55,16,Presentation,1,00221940128fa_sunabcfpwlpolnutyju.jpg,00123931230fb_sunaalcrrdbjgdztbiz.jpg,00221940128fa.jpg,sunabcfpwlpolnutyju.jpg,00123931230fb.jpg,sunaalcrrdbjgdztbiz.jpg,,,<,Place,,,,,1,,,,,,,x
56,16,Presentation,1,00294940422fb_sunabrlndkruqokhury.jpg,00705960530fa_sunaduslxfzlbxlllnz.jpg,00294940422fb.jpg,sunabrlndkruqokhury.jpg,00705960530fa.jpg,sunaduslxfzlbxlllnz.jpg,,,<,Face,,,,,1,,,,,,,o
57,16,Presentation,1,00829940307fa_sunahwgbqkqcrwprgvh.jpg,00910960530fa_sunaofikylqtxphvdem.jpg,00829940307fa.jpg,sunahwgbqkqcrwprgvh.jpg,00910960530fa.jpg,sunaofikylqtxphvdem.jpg,,,<,Place,,,,,1,,,,,,,o
58,16,Presentation,1,00859940307fa_sunaiycurtqsfkvcaso.jpg,00101931230fb_sunaajqmsaavkmgbsth.jpg,00859940307fa.jpg,sunaiycurtqsfkvcaso.jpg,00101931230fb.jpg,sunaajqmsaavkmgbsth.jpg,,,>,Place,,,,,1,,,,,,,o
59,16,Presentation,1,00893960530Fa_sunaloffvbvysigxent.jpg,00529940519fa_sunacbeefkxpymwevpk.jpg,00893960530Fa.jpg,sunaloffvbvysigxent.jpg,00529940519fa.jpg,sunacbeefkxpymwevpk.jpg,,,>,Face,,,,,1,,,,,,,x
60,16,Memory,1,,,,,,,sunabtlfmiwtljmoues.jpg,,,,,,,,,,,,,,,
61,16,Memory,1,,,,,,,00970960627fa.jpg,,,,,,,,,,,,,,,
62,16,Memory,1,,,,,,,sunahqrxievfeusiqlt.jpg,,,,,,,,,,,,,,,
63,16,Memory,1,,,,,,,00746941201fa.jpg,,,,,,,,,,,,,,,
64,16,Memory,1,,,,,,,sunaajqmsaavkmgbsth.jpg,,,,,,,,,,,,,,,
65,16,Memory,1,,,,,,,00822940307fa.jpg,,,,,,,,,,,,,,,
66,16,Memory,1,,,,,,,00787941205fa.jpg,,,,,,,,,,,,,,,
67,16,Memory,1,,,,,,,sunaajayojuslbbnneg.jpg,,,,,,,,,,,,,,,
68,16,Memory,1,,,,,,,sunacbeefkxpymwevpk.jpg,,,,,,,,,,,,,,,
69,16,Memory,1,,,,,,,00859940307fa.jpg,,,,,,,,,,,,,,,
70,16,Memory,1,,,,,,,00554940519fa.jpg,,,,,,,,,,,,,,,
71,16,Memory,1,,,,,,,00609940928fa.jpg,,,,,,,,,,,,,,,
72,16,Memory,1,,,,,,,00101931230fb.jpg,,,,,,,,,,,,,,,
73,16,Memory,1,,,,,,,00123931230fb.jpg,,,,,,,,,,,,,,,
74,16,Memory,1,,,,,,,sunacycdoztxoluxjyk.jpg,,,,,,,,,,,,,,,
75,16,Memory,1,,,,,,,sunadrmfzmstgdjdcod.jpg,,,,,,,,,,,,,,,
76,16,Memory,1,,,,,,,00893960530Fa.jpg,,,,,,,,,,,,,,,
77,16,Memory,1,,,,,,,sunaetydippjxikifsb.jpg,,,,,,,,,,,,,,,
78,16,Memory,1,,,,,,,sunaafewhewbxmjiurz.jpg,,,,,,,,,,,,,,,
79,16,Memory,1,,,,,,,00529940519fa.jpg,,,,,,,,,,,,,,,
80,16,Memory,1,,,,,,,00097931230fa.jpg,,,,,,,,,,,,,,,
81,16,Memory,1,,,,,,,sunagmhildamktmqjss.jpg,,,,,,,,,,,,,,,
82,16,Memory,1,,,,,,,00271940422fa.jpg,,,,,,,,,,,,,,,
83,16,Memory,1,,,,,,,00786941205fa.jpg,,,,,,,,,,,,,,,
84,16,Memory,1,,,,,,,sunbasypfgzjtomktmu.jpg,,,,,,,,,,,,,,,
85,16,Memory,1,,,,,,,00761960627fa.jpg,,,,,,,,,,,,,,,
86,16,Memory,1,,,,,,,sunagmwxxwymwojbvgi.jpg,,,,,,,,,,,,,,,
87,16,Memory,1,,,,,,,00076931230fa.jpg,,,,,,,,,,,,,,,
88,16,Memory,1,,,,,,,sunbpflsdaxnddnwcqi.jpg,,,,,,,,,,,,,,,
89,16,Memory,1,,,,,,,00112931230fa.jpg,,,,,,,,,,,,,,,
90,16,Memory,1,,,,,,,sunaloffvbvysigxent.jpg,,,,,,,,,,,,,,,
91,16,Memory,1,,,,,,,sunafgdqbclkwfocdhg.jpg,,,,,,,,,,,,,,,
92,16,Memory,1,,,,,,,sunaiycurtqsfkvcaso.jpg,,,,,,,,,,,,,,,
93,16,Memory,1,,,,,,,sunacfdkbsrughwqwtt.jpg,,,,,,,,,,,,,,,
94,16,Memory,1,,,,,,,sunaalcrrdbjgdztbiz.jpg,,,,,,,,,,,,,,,
95,16,Memory,1,,,,,,,00302940422fa.jpg,,,,,,,,,,,,,,,
96,16,Memory,1,,,,,,,sunabmbnddafmywtjjj.jpg,,,,,,,,,,,,,,,
97,16,Memory,1,,,,,,,sunaakjaacuzulqckgl.jpg,,,,,,,,,,,,,,,
98,16,Memory,1,,,,,,,00990960627fa.jpg,,,,,,,,,,,,,,,
99,16,Memory,1,,,,,,,00694941121fa.jpg,,,,,,,,,,,,,,,
100,16,Presentation,2,00153931230fa_sunaauhozyxzeeqstxi.jpg,00730960620fa_sunaekgzpfilgjxpeyq.jpg,00153931230fa.jpg,sunaauhozyxzeeqstxi.jpg,00730960620fa.jpg,sunaekgzpfilgjxpeyq.jpg,,,<,Place,,,,,1,,,,,,,o
101,16,Presentation,2,00982960627fa_sunbesrwkdsffeogeqq.jpg,00787960620fa_sunagoufulkpsxrmklt.jpg,00982960627fa.jpg,sunbesrwkdsffeogeqq.jpg,00787960620fa.jpg,sunagoufulkpsxrmklt.jpg,,,<,Place,,,,,1,,,,,,,x
102,16,Presentation,2,00788941205fa_sunagountlxpzkytsmp.jpg,00989960627fa_sunbondbduabvijnmch.jpg,00788941205fa.jpg,sunagountlxpzkytsmp.jpg,00989960627fa.jpg,sunbondbduabvijnmch.jpg,,,>,Place,,,,,1,,,,,,,x
103,16,Presentation,2,00227940128fa_sunabckqabszusgcykj.jpg,00779941205fa_sunagdzlvkqtpnfxfcg.jpg,00227940128fa.jpg,sunabckqabszusgcykj.jpg,00779941205fa.jpg,sunagdzlvkqtpnfxfcg.jpg,,,>,Face,,,,,1,,,,,,,o
104,16,Presentation,2,00313940422fa_sunabwjvmoaddlyxfjr.jpg,00147931230fb_sunaatpkocdkocwxpkb.jpg,00313940422fa.jpg,sunabwjvmoaddlyxfjr.jpg,00147931230fb.jpg,sunaatpkocdkocwxpkb.jpg,,,<,Face,,,,,1,,,,,,,x
105,16,Presentation,2,00098931230fa_sunaajpqmulidejvjsr.jpg,00481940519fa_sunabxsuqbleluwczoy.jpg,00098931230fa.jpg,sunaajpqmulidejvjsr.jpg,00481940519fa.jpg,sunabxsuqbleluwczoy.jpg,,,>,Face,,,,,1,,,,,,,o
106,16,Presentation,2,00648941031fa_sunadfndyrtqqiasoig.jpg,00239940128fa_sunabctlikybqabezjv.jpg,00648941031fa.jpg,sunadfndyrtqqiasoig.jpg,00239940128fa.jpg,sunabctlikybqabezjv.jpg,,,<,Face,,,,,1,,,,,,,o
107,16,Presentation,2,00564940928fa_sunacmpqqfbsvlzinzl.jpg,00895960530fa_sunamczizlzavhzhpay.jpg,00564940928fa.jpg,sunacmpqqfbsvlzinzl.jpg,00895960530fa.jpg,sunamczizlzavhzhpay.jpg,,,>,Place,,,,,1,,,,,,,o
108,16,Presentation,2,00080931230fb_sunaafjszryxyavjzln.jpg,00132931230fb_sunaanjcbzdvtvblsdy.jpg,00080931230fb.jpg,sunaafjszryxyavjzln.jpg,00132931230fb.jpg,sunaanjcbzdvtvblsdy.jpg,,,<,Place,,,,,1,,,,,,,o
109,16,Presentation,2,00805941205fa_sunagwzdbtlixdhgolm.jpg,00260940128fa_sunabgfhvifeijihhjw.jpg,00805941205fa.jpg,sunagwzdbtlixdhgolm.jpg,00260940128fa.jpg,sunabgfhvifeijihhjw.jpg,,,>,Face,,,,,1,,,,,,,o
110,16,Memory,2,,,,,,,00953960627fa.jpg,,,,,,,,,,,,,,,
111,16,Memory,2,,,,,,,sunaeoghzrjarigmwua.jpg,,,,,,,,,,,,,,,
112,16,Memory,2,,,,,,,00743941201fa.jpg,,,,,,,,,,,,,,,
113,16,Memory,2,,,,,,,00481940519fa.jpg,,,,,,,,,,,,,,,
114,16,Memory,2,,,,,,,sunbondbduabvijnmch.jpg,,,,,,,,,,,,,,,
115,16,Memory,2,,,,,,,00792941205fa.jpg,,,,,,,,,,,,,,,
116,16,Memory,2,,,,,,,sunadikxpvqeabxrvvc.jpg,,,,,,,,,,,,,,,
117,16,Memory,2,,,,,,,sunaekgzpfilgjxpeyq.jpg,,,,,,,,,,,,,,,
118,16,Memory,2,,,,,,,sunbesrwkdsffeogeqq.jpg,,,,,,,,,,,,,,,
119,16,Memory,2,,,,,,,sunanainkqdvktzoxyl.jpg,,,,,,,,,,,,,,,
120,16,Memory,2,,,,,,,sunamkmeblgteyggink.jpg,,,,,,,,,,,,,,,
121,16,Memory,2,,,,,,,sunabxsuqbleluwczoy.jpg,,,,,,,,,,,,,,,
122,16,Memory,2,,,,,,,00982960627fa.jpg,,,,,,,,,,,,,,,
123,16,Memory,2,,,,,,,00858940307fa.jpg,,,,,,,,,,,,,,,
124,16,Memory,2,,,,,,,sunaixpqndlwhwjtjek.jpg,,,,,,,,,,,,,,,
125,16,Memory,2,,,,,,,00313940422fa.jpg,,,,,,,,,,,,,,,
126,16,Memory,2,,,,,,,00903960620fa.jpg,,,,,,,,,,,,,,,
127,16,Memory,2,,,,,,,sunabqowuarvqqcnipn.jpg,,,,,,,,,,,,,,,
128,16,Memory,2,,,,,,,sunabwjvmoaddlyxfjr.jpg,,,,,,,,,,,,,,,
129,16,Memory,2,,,,,,,00898960530fa.jpg,,,,,,,,,,,,,,,
130,16,Memory,2,,,,,,,00895960530fa.jpg,,,,,,,,,,,,,,,
131,16,Memory,2,,,,,,,sunamczizlzavhzhpay.jpg,,,,,,,,,,,,,,,
132,16,Memory,2,,,,,,,sunacypmnujalygkunp.jpg,,,,,,,,,,,,,,,
133,16,Memory,2,,,,,,,sunabwmcbaxwioksdgw.jpg,,,,,,,,,,,,,,,
134,16,Memory,2,,,,,,,00989960627fa.jpg,,,,,,,,,,,,,,,
135,16,Memory,2,,,,,,,00805941205fa.jpg,,,,,,,,,,,,,,,
136,16,Memory,2,,,,,,,sunacmpqqfbsvlzinzl.jpg,,,,,,,,,,,,,,,
137,16,Memory,2,,,,,,,sunatstrpjxhvtbaczf.jpg,,,,,,,,,,,,,,,
138,16,Memory,2,,,,,,,00788941205fa.jpg,,,,,,,,,,,,,,,
139,16,Memory,2,,,,,,,sunagountlxpzkytsmp.jpg,,,,,,,,,,,,,,,
140,16,Memory,2,,,,,,,00650941031fa.jpg,,,,,,,,,,,,,,,
141,16,Memory,2,,,,,,,00132931230fb.jpg,,,,,,,,,,,,,,,
142,16,Memory,2,,,,,,,00730960620fa.jpg,,,,,,,,,,,,,,,
143,16,Memory,2,,,,,,,00564940928fa.jpg,,,,,,,,,,,,,,,
144,16,Memory,2,,,,,,,sunagsiwrmuixqgdimb.jpg,,,,,,,,,,,,,,,
145,16,Memory,2,,,,,,,00620940928fa.jpg,,,,,,,,,,,,,,,
146,16,Memory,2,,,,,,,00290940422fa.jpg,,,,,,,,,,,,,,,
147,16,Memory,2,,,,,,,sunaanjcbzdvtvblsdy.jpg,,,,,,,,,,,,,,,
148,16,Memory,2,,,,,,,sunagwzdbtlixdhgolm.jpg,,,,,,,,,,,,,,,
149,16,Memory,2,,,,,,,00314940422fa.jpg,,,,,,,,,,,,,,,
150,16,Presentation,3,00276940422fa_sunabmytpyhsgigllxu.jpg,00984960627fa_sunbfzchmomnvzhbxdg.jpg,00276940422fa.jpg,sunabmytpyhsgigllxu.jpg,00984960627fa.jpg,sunbfzchmomnvzhbxdg.jpg,,,>,Face,,,,,1,,,,,,,o
151,16,Presentation,3,00498960627fa_sunabzjxlmkwnwzimua.jpg,00086931230fa_sunaafynehyrzpsoaml.jpg,00498960627fa.jpg,sunabzjxlmkwnwzimua.jpg,00086931230fa.jpg,sunaafynehyrzpsoaml.jpg,,,<,Place,,,,,1,,,,,,,o
152,16,Presentation,3,00905960530fa_sunanmoqeyprjjjfxjt.jpg,00983960627fa_sunbfyvfqiimvdaxlqn.jpg,00905960530fa.jpg,sunanmoqeyprjjjfxjt.jpg,00983960627fa.jpg,sunbfyvfqiimvdaxlqn.jpg,,,>,Place,,,,,1,,,,,,,x
153,16,Presentation,3,00885960530fa_sunakwlvxjpddialozd.jpg,00062931230fb_sunaaelotvjgibjtjhs.jpg,00885960530fa.jpg,sunakwlvxjpddialozd.jpg,00062931230fb.jpg,sunaaelotvjgibjtjhs.jpg,,,>,Face,,,,,1,,,,,,,x
154,16,Presentation,3,00770941201fa_sunaflojskatpeqyzqp.jpg,00750941201fa_sunaeuzwggvibufclwf.jpg,00770941201fa.jpg,sunaflojskatpeqyzqp.jpg,00750941201fa.jpg,sunaeuzwggvibufclwf.jpg,,,>,Place,,,,,1,,,,,,,o
155,16,Presentation,3,00548940519fa_sunacerqowiaeoqkmsq.jpg,00812941205fa_sunahgtbwgsmtqeodwh.jpg,00548940519fa.jpg,sunacerqowiaeoqkmsq.jpg,00812941205fa.jpg,sunahgtbwgsmtqeodwh.jpg,,,<,Place,,,,,1,,,,,,,x
156,16,Presentation,3,00959960627fa_sunavxokzybtomhbmvm.jpg,00725941201fa_sunaefgzwiramypjvtd.jpg,00959960627fa.jpg,sunavxokzybtomhbmvm.jpg,00725941201fa.jpg,sunaefgzwiramypjvtd.jpg,,,<,Face,,,,,0,,,,,,,o
157,16,Presentation,3,00999960627fa_sunbvbrvgbpanfrawft.jpg,00925960627fa_sunapqwnqzxlsfvgsjm.jpg,00999960627fa.jpg,sunbvbrvgbpanfrawft.jpg,00925960627fa.jpg,sunapqwnqzxlsfvgsjm.jpg,,,<,Place,,,,,1,,,,,,,x
158,16,Presentation,3,00944960627fa_sunasbbntuiheekqyaq.jpg,00719960620fa_sunadzuvtmtmgupotmf.jpg,00944960627fa.jpg,sunasbbntuiheekqyaq.jpg,00719960620fa.jpg,sunadzuvtmtmgupotmf.jpg,,,<,Face,,,,,1,,,,,,,x
159,16,Presentation,3,00943960627fa_sunarpsxqkduedrrzyi.jpg,00870940307fa_sunajrgtewnualfcerj.jpg,00943960627fa.jpg,sunarpsxqkduedrrzyi.jpg,00870940307fa.jpg,sunajrgtewnualfcerj.jpg,,,>,Face,,,,,1,,,,,,,o
160,16,Memory,3,,,,,,,00819940307fa.jpg,,,,,,,,,,,,,,,
161,16,Memory,3,,,,,,,sunaapxkpvrhpjplsok.jpg,,,,,,,,,,,,,,,
162,16,Memory,3,,,,,,,sunaafynehyrzpsoaml.jpg,,,,,,,,,,,,,,,
163,16,Memory,3,,,,,,,00636941031fa.jpg,,,,,,,,,,,,,,,
164,16,Memory,3,,,,,,,00999960627fa.jpg,,,,,,,,,,,,,,,
165,16,Memory,3,,,,,,,sunagcinxkccdtrjmlv.jpg,,,,,,,,,,,,,,,
166,16,Memory,3,,,,,,,00086931230fa.jpg,,,,,,,,,,,,,,,
167,16,Memory,3,,,,,,,sunaflojskatpeqyzqp.jpg,,,,,,,,,,,,,,,
168,16,Memory,3,,,,,,,sunaaelotvjgibjtjhs.jpg,,,,,,,,,,,,,,,
169,16,Memory,3,,,,,,,00647941031fa.jpg,,,,,,,,,,,,,,,
170,16,Memory,3,,,,,,,00959960627fa.jpg,,,,,,,,,,,,,,,
171,16,Memory,3,,,,,,,sunacerqowiaeoqkmsq.jpg,,,,,,,,,,,,,,,
172,16,Memory,3,,,,,,,sunasbbntuiheekqyaq.jpg,,,,,,,,,,,,,,,
173,16,Memory,3,,,,,,,00944960627fa.jpg,,,,,,,,,,,,,,,
174,16,Memory,3,,,,,,,sunavxokzybtomhbmvm.jpg,,,,,,,,,,,,,,,
175,16,Memory,3,,,,,,,sunadflbrkckmepztql.jpg,,,,,,,,,,,,,,,
176,16,Memory,3,,,,,,,sunaddtdkycxbqlpfqa.jpg,,,,,,,,,,,,,,,
177,16,Memory,3,,,,,,,00750941201fa.jpg,,,,,,,,,,,,,,,
178,16,Memory,3,,,,,,,00069931230fb.jpg,,,,,,,,,,,,,,,
179,16,Memory,3,,,,,,,00719960620fa.jpg,,,,,,,,,,,,,,,
180,16,Memory,3,,,,,,,00996960627fa.jpg,,,,,,,,,,,,,,,
181,16,Memory,3,,,,,,,00770941201fa.jpg,,,,,,,,,,,,,,,
182,16,Memory,3,,,,,,,sunbpvgllfdejxcpjqp.jpg,,,,,,,,,,,,,,,
183,16,Memory,3,,,,,,,sunaeouogqolxvggaoq.jpg,,,,,,,,,,,,,,,
184,16,Memory,3,,,,,,,sunaeuzwggvibufclwf.jpg,,,,,,,,,,,,,,,
185,16,Memory,3,,,,,,,sunahqldjibofgsfdgb.jpg,,,,,,,,,,,,,,,
186,16,Memory,3,,,,,,,00745941205fa.jpg,,,,,,,,,,,,,,,
187,16,Memory,3,,,,,,,sunbfyvfqiimvdaxlqn.jpg,,,,,,,,,,,,,,,
188,16,Memory,3,,,,,,,00548940519fa.jpg,,,,,,,,,,,,,,,
189,16,Memory,3,,,,,,,00270940422fb.jpg,,,,,,,,,,,,,,,
190,16,Memory,3,,,,,,,sunadzuvtmtmgupotmf.jpg,,,,,,,,,,,,,,,
191,16,Memory,3,,,,,,,sunabllobxadqcyttej.jpg,,,,,,,,,,,,,,,
192,16,Memory,3,,,,,,,00142931230fb.jpg,,,,,,,,,,,,,,,
193,16,Memory,3,,,,,,,00777941205fa.jpg,,,,,,,,,,,,,,,
194,16,Memory,3,,,,,,,suncnkvbhypnivcohyx.jpg,,,,,,,,,,,,,,,
195,16,Memory,3,,,,,,,00062931230fb.jpg,,,,,,,,,,,,,,,
196,16,Memory,3,,,,,,,sunbvbrvgbpanfrawft.jpg,,,,,,,,,,,,,,,
197,16,Memory,3,,,,,,,01010960627fa.jpg,,,,,,,,,,,,,,,
198,16,Memory,3,,,,,,,00983960627fa.jpg,,,,,,,,,,,,,,,
199,16,Memory,3,,,,,,,sunaaeowapdkwzqpgqr.jpg,,,,,,,,,,,,,,,
200,16,Presentation,4,00184940128fa_sunaavtbadenwnzeutj.jpg,00681941121fa_sunadqmjrhfjyuzyvdd.jpg,00184940128fa.jpg,sunaavtbadenwnzeutj.jpg,00681941121fa.jpg,sunadqmjrhfjyuzyvdd.jpg,,,<,Face,,,,,1,,,,,,,o
201,16,Presentation,4,00783941205fa_sunagjeesomrwjsfqie.jpg,00263940128fb_sunabjuovqvyfuzvqwt.jpg,00783941205fa.jpg,sunagjeesomrwjsfqie.jpg,00263940128fb.jpg,sunabjuovqvyfuzvqwt.jpg,,,<,Place,,,,,1,,,,,,,x
202,16,Presentation,4,00838940307fa_sunaiozxhxgtfrmoagh.jpg,00700941121fa_sunadsgmtznewzyasnk.jpg,00838940307fa.jpg,sunaiozxhxgtfrmoagh.jpg,00700941121fa.jpg,sunadsgmtznewzyasnk.jpg,,,<,Face,,,,,1,,,,,,,o
203,16,Presentation,4,00144931230fb_sunaathajvxrgptwhoj.jpg,00752960620fa_sunafbwnojpqeyzssoe.jpg,00144931230fb.jpg,sunaathajvxrgptwhoj.jpg,00752960620fa.jpg,sunafbwnojpqeyzssoe.jpg,,,<,Place,,,,,1,,,,,,,o
204,16,Presentation,4,00638941031fa_sunadfktsqjthoglcsm.jpg,00060931230fa_sunaaehaikpckyjsety.jpg,00638941031fa.jpg,sunadfktsqjthoglcsm.jpg,00060931230fa.jpg,sunaaehaikpckyjsety.jpg,,,>,Place,,,,,1,,,,,,,o
205,16,Presentation,4,00909960530_sunaobtizabegtwfwul.jpg,00130931230fa_sunaamvxnvouicstkjb.jpg,00909960530.jpg,sunaobtizabegtwfwul.jpg,00130931230fa.jpg,sunaamvxnvouicstkjb.jpg,,,>,Face,,,,,1,,,,,,,o
206,16,Presentation,4,00598941031fa_sunacxtcahkymosigud.jpg,00124931230fa_sunaalhlvzmjmitybdn.jpg,00598941031fa.jpg,sunacxtcahkymosigud.jpg,00124931230fa.jpg,sunaalhlvzmjmitybdn.jpg,,,>,Face,,,,,1,,,,,,,x
207,16,Presentation,4,00789960620fa_sunagpancjmxqfazssf.jpg,00126931230fb_sunaamdjwemxpmmtypi.jpg,00789960620fa.jpg,sunagpancjmxqfazssf.jpg,00126931230fb.jpg,sunaamdjwemxpmmtypi.jpg,,,>,Place,,,,,0,,,,,,,o
208,16,Presentation,4,00122931230fa_sunaakxjfbrrequcjmx.jpg,00266940128fb_sunabkngeblodihjvbk.jpg,00122931230fa.jpg,sunaakxjfbrrequcjmx.jpg,00266940128fb.jpg,sunabkngeblodihjvbk.jpg,,,>,Place,,,,,1,,,,,,,o
209,16,Presentation,4,00557940519fa_sunachtuarilwyqnvjx.jpg,00146960620fb_sunaatpeezlljqaxlhj.jpg,00557940519fa.jpg,sunachtuarilwyqnvjx.jpg,00146960620fb.jpg,sunaatpeezlljqaxlhj.jpg,,,<,Face,,,,,1,,,,,,,o
210,16,Memory,4,,,,,,,sunaakxjfbrrequcjmx.jpg,,,,,,,,,,,,,,,
211,16,Memory,4,,,,,,,00638941031fa.jpg,,,,,,,,,,,,,,,
212,16,Memory,4,,,,,,,sunacxtcahkymosigud.jpg,,,,,,,,,,,,,,,
213,16,Memory,4,,,,,,,sunaamvxnvouicstkjb.jpg,,,,,,,,,,,,,,,
214,16,Memory,4,,,,,,,00783941205fa.jpg,,,,,,,,,,,,,,,
215,16,Memory,4,,,,,,,00122931230fa.jpg,,,,,,,,,,,,,,,
216,16,Memory,4,,,,,,,00130931230fa.jpg,,,,,,,,,,,,,,,
217,16,Memory,4,,,,,,,sunadfktsqjthoglcsm.jpg,,,,,,,,,,,,,,,
218,16,Memory,4,,,,,,,00771941205fa.jpg,,,,,,,,,,,,,,,
219,16,Memory,4,,,,,,,sunabtrnbvpppgczjim.jpg,,,,,,,,,,,,,,,
220,16,Memory,4,,,,,,,00263940128fb.jpg,,,,,,,,,,,,,,,
221,16,Memory,4,,,,,,,sunaletopenvvozhpxc.jpg,,,,,,,,,,,,,,,
222,16,Memory,4,,,,,,,00077931230fb.jpg,,,,,,,,,,,,,,,
223,16,Memory,4,,,,,,,sunaayehfdqcyxggsej.jpg,,,,,,,,,,,,,,,
224,16,Memory,4,,,,,,,00060931230fa.jpg,,,,,,,,,,,,,,,
225,16,Memory,4,,,,,,,00540940519fa.jpg,,,,,,,,,,,,,,,
226,16,Memory,4,,,,,,,00987960627fa.jpg,,,,,,,,,,,,,,,
227,16,Memory,4,,,,,,,sunagjeesomrwjsfqie.jpg,,,,,,,,,,,,,,,
228,16,Memory,4,,,,,,,sunafbwnojpqeyzssoe.jpg,,,,,,,,,,,,,,,
229,16,Memory,4,,,,,,,00815941205fa.jpg,,,,,,,,,,,,,,,
230,16,Memory,4,,,,,,,00305940422fa.jpg,,,,,,,,,,,,,,,
231,16,Memory,4,,,,,,,sunabjuovqvyfuzvqwt.jpg,,,,,,,,,,,,,,,
232,16,Memory,4,,,,,,,sunafowswglhxcsufpo.jpg,,,,,,,,,,,,,,,
233,16,Memory,4,,,,,,,00126931230fb.jpg,,,,,,,,,,,,,,,
234,16,Memory,4,,,,,,,00184940128fa.jpg,,,,,,,,,,,,,,,
235,16,Memory,4,,,,,,,00889960530fa.jpg,,,,,,,,,,,,,,,
236,16,Memory,4,,,,,,,00723941201fa.jpg,,,,,,,,,,,,,,,
237,16,Memory,4,,,,,,,sunacdnquypmsshhsbk.jpg,,,,,,,,,,,,,,,
238,16,Memory,4,,,,,,,sunaavtbadenwnzeutj.jpg,,,,,,,,,,,,,,,
239,16,Memory,4,,,,,,,sunaedtgwjvvziytspa.jpg,,,,,,,,,,,,,,,
240,16,Memory,4,,,,,,,sunafvtpfczkzopbgue.jpg,,,,,,,,,,,,,,,
241,16,Memory,4,,,,,,,sunahiphsekjihkafsl.jpg,,,,,,,,,,,,,,,
242,16,Memory,4,,,,,,,sunbloeoiozwjjsiamp.jpg,,,,,,,,,,,,,,,
243,16,Memory,4,,,,,,,sunaaehaikpckyjsety.jpg,,,,,,,,,,,,,,,
244,16,Memory,4,,,,,,,00194940128fb.jpg,,,,,,,,,,,,,,,
245,16,Memory,4,,,,,,,00598941031fa.jpg,,,,,,,,,,,,,,,
246,16,Memory,4,,,,,,,00752960620fa.jpg,,,,,,,,,,,,,,,
247,16,Memory,4,,,,,,,sunaafgqutfaishsxyu.jpg,,,,,,,,,,,,,,,
248,16,Memory,4,,,,,,,sunaamdjwemxpmmtypi.jpg,,,,,,,,,,,,,,,
249,16,Memory,4,,,,,,,00774941201fa.jpg,,,,,,,,,,,,,,,
250,16,Presentation,5,00949960627fb_sunasnqkkyhilqkxiqm.jpg,00818940307fa_sunahpblecxtmuzkmxb.jpg,00949960627fb.jpg,sunasnqkkyhilqkxiqm.jpg,00818940307fa.jpg,sunahpblecxtmuzkmxb.jpg,,,<,Place,,,,,1,,,,,,,x
251,16,Presentation,5,00532960627fa_sunaccdtpgenvcbcbcf.jpg,00762941201fa_sunafgzgbisbopcyslr.jpg,00532960627fa.jpg,sunaccdtpgenvcbcbcf.jpg,00762941201fa.jpg,sunafgzgbisbopcyslr.jpg,,,>,Face,,,,,1,,,,,,,x
252,16,Presentation,5,00785941205fa_sunaglqunwuycxydmyu.jpg,00210940128fb_sunabanoxjtqxamkucc.jpg,00785941205fa.jpg,sunaglqunwuycxydmyu.jpg,00210940128fb.jpg,sunabanoxjtqxamkucc.jpg,,,<,Face,,,,,1,,,,,,,x
253,16,Presentation,5,00841940307fa_sunaisiwfgppimtnmxl.jpg,00978960627fa_sunbddbivbptlrlauhy.jpg,00841940307fa.jpg,sunaisiwfgppimtnmxl.jpg,00978960627fa.jpg,sunbddbivbptlrlauhy.jpg,,,<,Face,,,,,1,,,,,,,x
254,16,Presentation,5,00662941121fa_sunadkazmlajmohnwfl.jpg,00993960627fa_sunbprywzqxjcezkbch.jpg,00662941121fa.jpg,sunadkazmlajmohnwfl.jpg,00993960627fa.jpg,sunbprywzqxjcezkbch.jpg,,,>,Face,,,,,1,,,,,,,x
255,16,Presentation,5,00720960620fa_sunaecpkgfewqqreqwe.jpg,00267940128fb_sunablfqiwfqomjarht.jpg,00720960620fa.jpg,sunaecpkgfewqqreqwe.jpg,00267940128fb.jpg,sunablfqiwfqomjarht.jpg,,,>,Place,,,,,1,,,,,,,x
256,16,Presentation,5,00092931230fa_sunaaheqzstzxuadglu.jpg,00894960620fa_sunalqmfgeadpqsyzpd.jpg,00092931230fa.jpg,sunaaheqzstzxuadglu.jpg,00894960620fa.jpg,sunalqmfgeadpqsyzpd.jpg,,,>,Place,,,,,1,,,,,,,x
257,16,Presentation,5,00198940128fb_sunaazezcsunmhttzxz.jpg,00760960620fa_sunaffstbkappprzxnv.jpg,00198940128fb.jpg,sunaazezcsunmhttzxz.jpg,00760960620fa.jpg,sunaffstbkappprzxnv.jpg,,,<,Place,,,,,1,,,,,,,o
258,16,Presentation,5,00942960627fa_sunarfdklgdnjgeqfjg.jpg,00185940422fb_sunaawqdbpihmlbwyyn.jpg,00942960627fa.jpg,sunarfdklgdnjgeqfjg.jpg,00185940422fb.jpg,sunaawqdbpihmlbwyyn.jpg,,,<,Face,,,,,1,,,,,,,o
259,16,Presentation,5,00965960627fa_sunaydywdmvlfddbxbk.jpg,00479940519fa_sunabxsbfwjccqxxzxq.jpg,00965960627fa.jpg,sunaydywdmvlfddbxbk.jpg,00479940519fa.jpg,sunabxsbfwjccqxxzxq.jpg,,,>,Place,,,,,1,,,,,,,o
260,16,Memory,5,,,,,,,00145931230fb.jpg,,,,,,,,,,,,,,,
261,16,Memory,5,,,,,,,sunadochqcucscehsgk.jpg,,,,,,,,,,,,,,,
262,16,Memory,5,,,,,,,00936960627fa.jpg,,,,,,,,,,,,,,,
263,16,Memory,5,,,,,,,00133931230fa.jpg,,,,,,,,,,,,,,,
264,16,Memory,5,,,,,,,00785941205fa.jpg,,,,,,,,,,,,,,,
265,16,Memory,5,,,,,,,sunadpnqovzckyikrjo.jpg,,,,,,,,,,,,,,,
266,16,Memory,5,,,,,,,sunabxsbfwjccqxxzxq.jpg,,,,,,,,,,,,,,,
267,16,Memory,5,,,,,,,00935960627fa.jpg,,,,,,,,,,,,,,,
268,16,Memory,5,,,,,,,sunaffstbkappprzxnv.jpg,,,,,,,,,,,,,,,
269,16,Memory,5,,,,,,,00670941121fa.jpg,,,,,,,,,,,,,,,
270,16,Memory,5,,,,,,,sunahpblecxtmuzkmxb.jpg,,,,,,,,,,,,,,,
271,16,Memory,5,,,,,,,00245940128fa.jpg,,,,,,,,,,,,,,,
272,16,Memory,5,,,,,,,00848940307fa.jpg,,,,,,,,,,,,,,,
273,16,Memory,5,,,,,,,sunasnqkkyhilqkxiqm.jpg,,,,,,,,,,,,,,,
274,16,Memory,5,,,,,,,00158931230fb.jpg,,,,,,,,,,,,,,,
275,16,Memory,5,,,,,,,sunaqbmgkgqucajzrkp.jpg,,,,,,,,,,,,,,,
276,16,Memory,5,,,,,,,00676941121fa.jpg,,,,,,,,,,,,,,,
277,16,Memory,5,,,,,,,sunafgzgbisbopcyslr.jpg,,,,,,,,,,,,,,,
278,16,Memory,5,,,,,,,sunabeyhmxodahoieyk.jpg,,,,,,,,,,,,,,,
279,16,Memory,5,,,,,,,00198940128fb.jpg,,,,,,,,,,,,,,,
280,16,Memory,5,,,,,,,00720960620fa.jpg,,,,,,,,,,,,,,,
281,16,Memory,5,,,,,,,sunaccdtpgenvcbcbcf.jpg,,,,,,,,,,,,,,,
282,16,Memory,5,,,,,,,sunaatjesvdupctftmn.jpg,,,,,,,,,,,,,,,
283,16,Memory,5,,,,,,,sunbddbivbptlrlauhy.jpg,,,,,,,,,,,,,,,
284,16,Memory,5,,,,,,,sunaavchcbptaerhcfy.jpg,,,,,,,,,,,,,,,
285,16,Memory,5,,,,,,,sunaecpkgfewqqreqwe.jpg,,,,,,,,,,,,,,,
286,16,Memory,5,,,,,,,00479940519fa.jpg,,,,,,,,,,,,,,,
287,16,Memory,5,,,,,,,sunaglqunwuycxydmyu.jpg,,,,,,,,,,,,,,,
288,16,Memory,5,,,,,,,00532960627fa.jpg,,,,,,,,,,,,,,,
289,16,Memory,5,,,,,,,sunaqgjuuwvdcyiccjt.jpg,,,,,,,,,,,,,,,
290,16,Memory,5,,,,,,,00949960627fb.jpg,,,,,,,,,,,,,,,
291,16,Memory,5,,,,,,,sunaemcowdozyphwknd.jpg,,,,,,,,,,,,,,,
292,16,Memory,5,,,,,,,00760960620fa.jpg,,,,,,,,,,,,,,,
293,16,Memory,5,,,,,,,sunaanlwnpqndclffxt.jpg,,,,,,,,,,,,,,,
294,16,Memory,5,,,,,,,sunaivdylrawbmhryfp.jpg,,,,,,,,,,,,,,,
295,16,Memory,5,,,,,,,00818940307fa.jpg,,,,,,,,,,,,,,,
296,16,Memory,5,,,,,,,00762941201fa.jpg,,,,,,,,,,,,,,,
297,16,Memory,5,,,,,,,00978960627fa.jpg,,,,,,,,,,,,,,,
298,16,Memory,5,,,,,,,00741941201fa.jpg,,,,,,,,,,,,,,,
299,16,Memory,5,,,,,,,sunaazezcsunmhttzxz.jpg,,,,,,,,,,,,,,,
300,16,Presentation,6,00911960530fa_sunaooaqzputrowwbsw.jpg,00834940307fa_sunaibnpvhkdpdnzcnz.jpg,00911960530fa.jpg,sunaooaqzputrowwbsw.jpg,00834940307fa.jpg,sunaibnpvhkdpdnzcnz.jpg,,,>,Face,,,,,1,,,,,,,x
301,16,Presentation,6,00727941205fa_sunaeisnjeetzmkbuad.jpg,00728941205fa_sunaejnvnpltdmhbcsi.jpg,00727941205fa.jpg,sunaeisnjeetzmkbuad.jpg,00728941205fa.jpg,sunaejnvnpltdmhbcsi.jpg,,,<,Face,,,,,1,,,,,,,o
302,16,Presentation,6,00960960627fa_sunawksfbacycuhbrsc.jpg,00136931230fb_sunaanptmsknhirrzed.jpg,00960960627fa.jpg,sunawksfbacycuhbrsc.jpg,00136931230fb.jpg,sunaanptmsknhirrzed.jpg,,,>,Place,,,,,1,,,,,,,x
303,16,Presentation,6,00751960620fa_sunaezuszgtxnmsxdbk.jpg,00763941205fa_sunafhmnhsdurlvddpw.jpg,00751960620fa.jpg,sunaezuszgtxnmsxdbk.jpg,00763941205fa.jpg,sunafhmnhsdurlvddpw.jpg,,,<,Place,,,,,1,,,,,,,o
304,16,Presentation,6,00963960627fa_sunayaepykrqvenaqqy.jpg,00162931230fb_sunaavjinpnkappuonm.jpg,00963960627fa.jpg,sunayaepykrqvenaqqy.jpg,00162931230fb.jpg,sunaavjinpnkappuonm.jpg,,,>,Face,,,,,1,,,,,,,o
305,16,Presentation,6,00878960530fa_sunakgbnzxmfohgehnu.jpg,00864940307fa_sunajawzbrlrwafowen.jpg,00878960530fa.jpg,sunakgbnzxmfohgehnu.jpg,00864940307fa.jpg,sunajawzbrlrwafowen.jpg,,,<,Face,,,,,1,,,,,,,o
306,16,Presentation,6,00800941205fb_sunagvjurcwdbixvnyi.jpg,00747941201fa_sunaeutbrtswvsozxyk.jpg,00800941205fb.jpg,sunagvjurcwdbixvnyi.jpg,00747941201fa.jpg,sunaeutbrtswvsozxyk.jpg,,,>,Place,,,,,1,,,,,,,x
307,16,Presentation,6,00866940307fa_sunajbwkywmsqkldfml.jpg,00280940422fb_sunabohxbskznglnrhv.jpg,00866940307fa.jpg,sunajbwkywmsqkldfml.jpg,00280940422fb.jpg,sunabohxbskznglnrhv.jpg,,,<,Place,,,,,0,,,,,,,o
308,16,Presentation,6,01005960627fa_sunbwyuesflwdpqtgoy.jpg,00871940307_sunajrujcsdxmfbssmc.jpg,01005960627fa.jpg,sunbwyuesflwdpqtgoy.jpg,00871940307.jpg,sunajrujcsdxmfbssmc.jpg,,,>,Place,,,,,1,,,,,,,x
309,16,Presentation,6,00766960620fa_sunafijbgncijwykrnl.jpg,00776941205fa_sunafxokyavhgptyfye.jpg,00766960620fa.jpg,sunafijbgncijwykrnl.jpg,00776941205fa.jpg,sunafxokyavhgptyfye.jpg,,,<,Face,,,,,0,,,,,,,x
310,16,Memory,6,,,,,,,00780960530fa.jpg,,,,,,,,,,,,,,,
311,16,Memory,6,,,,,,,sunagvprlbprarvgdvj.jpg,,,,,,,,,,,,,,,
312,16,Memory,6,,,,,,,sunagrmyoovzukhxmlo.jpg,,,,,,,,,,,,,,,
313,16,Memory,6,,,,,,,00543940519fa.jpg,,,,,,,,,,,,,,,
314,16,Memory,6,,,,,,,00810941205fa.jpg,,,,,,,,,,,,,,,
315,16,Memory,6,,,,,,,00908960530fa.jpg,,,,,,,,,,,,,,,
316,16,Memory,6,,,,,,,00871940307.jpg,,,,,,,,,,,,,,,
317,16,Memory,6,,,,,,,sunafxokyavhgptyfye.jpg,,,,,,,,,,,,,,,
318,16,Memory,6,,,,,,,sunayaepykrqvenaqqy.jpg,,,,,,,,,,,,,,,
319,16,Memory,6,,,,,,,sunafijbgncijwykrnl.jpg,,,,,,,,,,,,,,,
320,16,Memory,6,,,,,,,sunabohxbskznglnrhv.jpg,,,,,,,,,,,,,,,
321,16,Memory,6,,,,,,,00280940422fb.jpg,,,,,,,,,,,,,,,
322,16,Memory,6,,,,,,,00728941205fa.jpg,,,,,,,,,,,,,,,
323,16,Memory,6,,,,,,,sunajrujcsdxmfbssmc.jpg,,,,,,,,,,,,,,,
324,16,Memory,6,,,,,,,sunagfvluwixdsozaql.jpg,,,,,,,,,,,,,,,
325,16,Memory,6,,,,,,,00631940928fa.jpg,,,,,,,,,,,,,,,
326,16,Memory,6,,,,,,,sunbwyuesflwdpqtgoy.jpg,,,,,,,,,,,,,,,
327,16,Memory,6,,,,,,,sunajbwkywmsqkldfml.jpg,,,,,,,,,,,,,,,
328,16,Memory,6,,,,,,,00727941205fa.jpg,,,,,,,,,,,,,,,
329,16,Memory,6,,,,,,,00776941205fa.jpg,,,,,,,,,,,,,,,
330,16,Memory,6,,,,,,,01005960627fa.jpg,,,,,,,,,,,,,,,
331,16,Memory,6,,,,,,,00782941205fa.jpg,,,,,,,,,,,,,,,
332,16,Memory,6,,,,,,,00766960620fa.jpg,,,,,,,,,,,,,,,
333,16,Memory,6,,,,,,,00791941205fa.jpg,,,,,,,,,,,,,,,
334,16,Memory,6,,,,,,,00801941205fa.jpg,,,,,,,,,,,,,,,
335,16,Memory,6,,,,,,,00963960627fa.jpg,,,,,,,,,,,,,,,
336,16,Memory,6,,,,,,,00972960627fa.jpg,,,,,,,,,,,,,,,
337,16,Memory,6,,,,,,,sunanwjjyqqwzqrqagd.jpg,,,,,,,,,,,,,,,
338,16,Memory,6,,,,,,,sunbbfqwjpdxniyhies.jpg,,,,,,,,,,,,,,,
339,16,Memory,6,,,,,,,sunajoveqhiprwqgoco.jpg,,,,,,,,,,,,,,,
340,16,Memory,6,,,,,,,sunahctntqrunhdxhtb.jpg,,,,,,,,,,,,,,,
341,16,Memory,6,,,,,,,sunacepzfrmtkiqonpy.jpg,,,,,,,,,,,,,,,
342,16,Memory,6,,,,,,,sunagetqixeypsysbpn.jpg,,,,,,,,,,,,,,,
343,16,Memory,6,,,,,,,00763941205fa.jpg,,,,,,,,,,,,,,,
344,16,Memory,6,,,,,,,sunaejnvnpltdmhbcsi.jpg,,,,,,,,,,,,,,,
345,16,Memory,6,,,,,,,00869940307fa.jpg,,,,,,,,,,,,,,,
346,16,Memory,6,,,,,,,00866940307fa.jpg,,,,,,,,,,,,,,,
347,16,Memory,6,,,,,,,sunadbdqzigzwipuipr.jpg,,,,,,,,,,,,,,,
348,16,Memory,6,,,,,,,sunafhmnhsdurlvddpw.jpg,,,,,,,,,,,,,,,
349,16,Memory,6,,,,,,,sunaeisnjeetzmkbuad.jpg,,,,,,,,,,,,,,,
350,16,Presentation,7,00571940928fa_sunacuatpqpqhyjhjqk.jpg,00292940422fb_sunabrjdpmoedcdjbpo.jpg,00571940928fa.jpg,sunacuatpqpqhyjhjqk.jpg,00292940422fb.jpg,sunabrjdpmoedcdjbpo.jpg,,,>,Face,,,,,1,,,,,,,o
351,16,Presentation,7,00564941031fa_sunacsaovnjezqwbykf.jpg,00675941121fa_sunadoxcchtmsxewsau.jpg,00564941031fa.jpg,sunacsaovnjezqwbykf.jpg,00675941121fa.jpg,sunadoxcchtmsxewsau.jpg,,,<,Place,,,,,1,,,,,,,x
352,16,Presentation,7,00836940307fa_sunainqelldeebvxtcz.jpg,00505960627fa_sunabzuqsrgcsonqlkz.jpg,00836940307fa.jpg,sunainqelldeebvxtcz.jpg,00505960627fa.jpg,sunabzuqsrgcsonqlkz.jpg,,,>,Place,,,,,0,,,,,,,o
353,16,Presentation,7,00926960627Fa_sunapqwoeotxshkukbh.jpg,00880960530fa_sunakmnfgklupjijsgf.jpg,00926960627Fa.jpg,sunapqwoeotxshkukbh.jpg,00880960530fa.jpg,sunakmnfgklupjijsgf.jpg,,,<,Face,,,,,1,,,,,,,x
354,16,Presentation,7,00116931230fa_sunaakqepfoeqomfgxf.jpg,00967960627fa_sunbaejotfklekvpxcz.jpg,00116931230fa.jpg,sunaakqepfoeqomfgxf.jpg,00967960627fa.jpg,sunbaejotfklekvpxcz.jpg,,,<,Place,,,,,0,,,,,,,x
355,16,Presentation,7,00868960307fa_sunajjxttslobudoqbv.jpg,00115931230fa_sunaakmxzhuceuiryah.jpg,00868960307fa.jpg,sunajjxttslobudoqbv.jpg,00115931230fa.jpg,sunaakmxzhuceuiryah.jpg,,,>,Place,,,,,0,,,,,,,x
356,16,Presentation,7,00884960530fa_sunakodkcslgqhqlgwl.jpg,00242940128fa_sunabcuurugvxwparpk.jpg,00884960530fa.jpg,sunakodkcslgqhqlgwl.jpg,00242940128fa.jpg,sunabcuurugvxwparpk.jpg,,,<,Place,,,,,1,,,,,,,x
357,16,Presentation,7,00775941205fa_sunafvwfsmqkjrutjta.jpg,00127931230fa_sunaampvucecsfbdafn.jpg,00775941205fa.jpg,sunafvwfsmqkjrutjta.jpg,00127931230fa.jpg,sunaampvucecsfbdafn.jpg,,,>,Face,,,,,1,,,,,,,x
358,16,Presentation,7,00958960627fa_sunavspxmxubqaeidjt.jpg,00950960627fa_sunasrjlmglmjzbmqxb.jpg,00958960627fa.jpg,sunavspxmxubqaeidjt.jpg,00950960627fa.jpg,sunasrjlmglmjzbmqxb.jpg,,,>,Face,,,,,0,,,,,,,x
359,16,Presentation,7,00209940128fb_sunabaergayifsgacxt.jpg,00574940928fa_sunacvbrcejzwmcgnoq.jpg,00209940128fb.jpg,sunabaergayifsgacxt.jpg,00574940928fa.jpg,sunacvbrcejzwmcgnoq.jpg,,,<,Face,,,,,1,,,,,,,x
360,16,Memory,7,,,,,,,sunafvwfsmqkjrutjta.jpg,,,,,,,,,,,,,,,
361,16,Memory,7,,,,,,,sunasrjlmglmjzbmqxb.jpg,,,,,,,,,,,,,,,
362,16,Memory,7,,,,,,,00209940128fb.jpg,,,,,,,,,,,,,,,
363,16,Memory,7,,,,,,,00292940422fb.jpg,,,,,,,,,,,,,,,
364,16,Memory,7,,,,,,,00796941205fa.jpg,,,,,,,,,,,,,,,
365,16,Memory,7,,,,,,,00634940928fa.jpg,,,,,,,,,,,,,,,
366,16,Memory,7,,,,,,,sunahawfngukizslzsd.jpg,,,,,,,,,,,,,,,
367,16,Memory,7,,,,,,,sunaahedjlmtqekgyvj.jpg,,,,,,,,,,,,,,,
368,16,Memory,7,,,,,,,00775941205fa.jpg,,,,,,,,,,,,,,,
369,16,Memory,7,,,,,,,sunabrjdpmoedcdjbpo.jpg,,,,,,,,,,,,,,,
370,16,Memory,7,,,,,,,sunabzuqsrgcsonqlkz.jpg,,,,,,,,,,,,,,,
371,16,Memory,7,,,,,,,sunaeuvjbmdpknaqqaj.jpg,,,,,,,,,,,,,,,
372,16,Memory,7,,,,,,,00505960627fa.jpg,,,,,,,,,,,,,,,
373,16,Memory,7,,,,,,,sunaguchqqnrtodtezq.jpg,,,,,,,,,,,,,,,
374,16,Memory,7,,,,,,,00807941205fa.jpg,,,,,,,,,,,,,,,
375,16,Memory,7,,,,,,,sunaaxjpzcnxligjtjq.jpg,,,,,,,,,,,,,,,
376,16,Memory,7,,,,,,,sunaaekxzjzrfgtkwjf.jpg,,,,,,,,,,,,,,,
377,16,Memory,7,,,,,,,00958960627fa.jpg,,,,,,,,,,,,,,,
378,16,Memory,7,,,,,,,sunbaejotfklekvpxcz.jpg,,,,,,,,,,,,,,,
379,16,Memory,7,,,,,,,sunadcphrizvfpljiqt.jpg,,,,,,,,,,,,,,,
380,16,Memory,7,,,,,,,sunadoxcchtmsxewsau.jpg,,,,,,,,,,,,,,,
381,16,Memory,7,,,,,,,00675941121fa.jpg,,,,,,,,,,,,,,,
382,16,Memory,7,,,,,,,00193940928fa.jpg,,,,,,,,,,,,,,,
383,16,Memory,7,,,,,,,00568940928fa.jpg,,,,,,,,,,,,,,,
384,16,Memory,7,,,,,,,00836940307fa.jpg,,,,,,,,,,,,,,,
385,16,Memory,7,,,,,,,00887960530.jpg,,,,,,,,,,,,,,,
386,16,Memory,7,,,,,,,sunavspxmxubqaeidjt.jpg,,,,,,,,,,,,,,,
387,16,Memory,7,,,,,,,00102931230fa.jpg,,,,,,,,,,,,,,,
388,16,Memory,7,,,,,,,00090931230fa.jpg,,,,,,,,,,,,,,,
389,16,Memory,7,,,,,,,00950960627fa.jpg,,,,,,,,,,,,,,,
390,16,Memory,7,,,,,,,00967960627fa.jpg,,,,,,,,,,,,,,,
391,16,Memory,7,,,,,,,sunaajspcoepticvplv.jpg,,,,,,,,,,,,,,,
392,16,Memory,7,,,,,,,sunabaergayifsgacxt.jpg,,,,,,,,,,,,,,,
393,16,Memory,7,,,,,,,sunalcrtwiycqobgelp.jpg,,,,,,,,,,,,,,,
394,16,Memory,7,,,,,,,00749941201fa.jpg,,,,,,,,,,,,,,,
395,16,Memory,7,,,,,,,sunapqwoeotxshkukbh.jpg,,,,,,,,,,,,,,,
396,16,Memory,7,,,,,,,00061931230fb.jpg,,,,,,,,,,,,,,,
397,16,Memory,7,,,,,,,sunacsdhbbsybcyxnel.jpg,,,,,,,,,,,,,,,
398,16,Memory,7,,,,,,,00926960627Fa.jpg,,,,,,,,,,,,,,,
399,16,Memory,7,,,,,,,sunainqelldeebvxtcz.jpg,,,,,,,,,,,,,,,
