,Subject,Trial Type,Run,Cued Composite,Uncued Composite,Cued Face,Cued Place,Uncued Face,Uncued Place,Memory Image,Category,Cued Side,Cued Category,Attention Reaction Time (s),Familiarity Reaction Time (s),Familiarity Rating,Attention Level,Cue Validity,Post Invalid Cue,Pre Invalid Cue,Attention Button,Rating History,Stimulus Onset,Stimulus End,Attention Probe
0,13,Presentation,0,00999960627fa_sunbvbrvgbpanfrawft.jpg,00725941201fa_sunaefgzwiramypjvtd.jpg,00999960627fa.jpg,sunbvbrvgbpanfrawft.jpg,00725941201fa.jpg,sunaefgzwiramypjvtd.jpg,,,>,Place,,,,,1,,,,,,,o
1,13,Presentation,0,00901960530fa_sunammbnoambmhdxdwd.jpg,01002960627fb_sunbwaafjdebjzttuvq.jpg,00901960530fa.jpg,sunammbnoambmhdxdwd.jpg,01002960627fb.jpg,sunbwaafjdebjzttuvq.jpg,,,<,Face,,,,,1,,,,,,,x
2,13,Presentation,0,00576941031fa_sunacvjlsylseoghjup.jpg,00911960530fa_sunaooaqzputrowwbsw.jpg,00576941031fa.jpg,sunacvjlsylseoghjup.jpg,00911960530fa.jpg,sunaooaqzputrowwbsw.jpg,,,<,Place,,,,,1,,,,,,,x
3,13,Presentation,0,00822940307fa_sunahqrxievfeusiqlt.jpg,00743941201fa_sunaeoghzrjarigmwua.jpg,00822940307fa.jpg,sunahqrxievfeusiqlt.jpg,00743941201fa.jpg,sunaeoghzrjarigmwua.jpg,,,<,Place,,,,,1,,,,,,,o
4,13,Presentation,0,00609940928fa_sunacycdoztxoluxjyk.jpg,00996960627fa_sunbpvgllfdejxcpjqp.jpg,00609940928fa.jpg,sunacycdoztxoluxjyk.jpg,00996960627fa.jpg,sunbpvgllfdejxcpjqp.jpg,,,>,Place,,,,,1,,,,,,,o
5,13,Presentation,0,00633940928fa_sunadbhmrgrrpyzglxs.jpg,00564941031fa_sunacsaovnjezqwbykf.jpg,00633940928fa.jpg,sunadbhmrgrrpyzglxs.jpg,00564941031fa.jpg,sunacsaovnjezqwbykf.jpg,,,>,Place,,,,,1,,,,,,,x
6,13,Presentation,0,00836940307fa_sunainqelldeebvxtcz.jpg,00744941201fa_sunaeomlfaabhpswasy.jpg,00836940307fa.jpg,sunainqelldeebvxtcz.jpg,00744941201fa.jpg,sunaeomlfaabhpswasy.jpg,,,<,Face,,,,,1,,,,,,,x
7,13,Presentation,0,00778941205fa_sunagcthdfirrcawoic.jpg,00848940307fa_sunaivdylrawbmhryfp.jpg,00778941205fa.jpg,sunagcthdfirrcawoic.jpg,00848940307fa.jpg,sunaivdylrawbmhryfp.jpg,,,<,Face,,,,,1,,,,,,,x
8,13,Presentation,0,00780960530fa_sunagetqixeypsysbpn.jpg,00805941205fa_sunagwzdbtlixdhgolm.jpg,00780960530fa.jpg,sunagetqixeypsysbpn.jpg,00805941205fa.jpg,sunagwzdbtlixdhgolm.jpg,,,>,Face,,,,,1,,,,,,,x
9,13,Presentation,0,00191940128fb_sunaawsdjisukbbginm.jpg,00747941201fa_sunaeutbrtswvsozxyk.jpg,00191940128fb.jpg,sunaawsdjisukbbginm.jpg,00747941201fa.jpg,sunaeutbrtswvsozxyk.jpg,,,>,Face,,,,,0,,,,,,,o
10,13,Memory,0,,,,,,,00805941205fa.jpg,,,,,,,,,,,,,,,
11,13,Memory,0,,,,,,,sunadpnqovzckyikrjo.jpg,,,,,,,,,,,,,,,
12,13,Memory,0,,,,,,,00822940307fa.jpg,,,,,,,,,,,,,,,
13,13,Memory,0,,,,,,,sunammbnoambmhdxdwd.jpg,,,,,,,,,,,,,,,
14,13,Memory,0,,,,,,,sunagvprlbprarvgdvj.jpg,,,,,,,,,,,,,,,
15,13,Memory,0,,,,,,,01004960627fa.jpg,,,,,,,,,,,,,,,
16,13,Memory,0,,,,,,,sunagwzdbtlixdhgolm.jpg,,,,,,,,,,,,,,,
17,13,Memory,0,,,,,,,sunagetqixeypsysbpn.jpg,,,,,,,,,,,,,,,
18,13,Memory,0,,,,,,,sunafvtpfczkzopbgue.jpg,,,,,,,,,,,,,,,
19,13,Memory,0,,,,,,,sunalcrtwiycqobgelp.jpg,,,,,,,,,,,,,,,
20,13,Memory,0,,,,,,,sunacsaovnjezqwbykf.jpg,,,,,,,,,,,,,,,
21,13,Memory,0,,,,,,,00676941121fa.jpg,,,,,,,,,,,,,,,
22,13,Memory,0,,,,,,,sunaivdylrawbmhryfp.jpg,,,,,,,,,,,,,,,
23,13,Memory,0,,,,,,,00857940307fa.jpg,,,,,,,,,,,,,,,
24,13,Memory,0,,,,,,,00635941031fa.jpg,,,,,,,,,,,,,,,
25,13,Memory,0,,,,,,,sunaiwfobocrruqznsv.jpg,,,,,,,,,,,,,,,
26,13,Memory,0,,,,,,,00887960530.jpg,,,,,,,,,,,,,,,
27,13,Memory,0,,,,,,,01002960627fb.jpg,,,,,,,,,,,,,,,
28,13,Memory,0,,,,,,,sunaizeyhvjzknwjudw.jpg,,,,,,,,,,,,,,,
29,13,Memory,0,,,,,,,sunahqrxievfeusiqlt.jpg,,,,,,,,,,,,,,,
30,13,Memory,0,,,,,,,sunaakxjfbrrequcjmx.jpg,,,,,,,,,,,,,,,
31,13,Memory,0,,,,,,,00191940128fb.jpg,,,,,,,,,,,,,,,
32,13,Memory,0,,,,,,,sunacvjlsylseoghjup.jpg,,,,,,,,,,,,,,,
33,13,Memory,0,,,,,,,00801941205fa.jpg,,,,,,,,,,,,,,,
34,13,Memory,0,,,,,,,sunbwtlihsuptkrckid.jpg,,,,,,,,,,,,,,,
35,13,Memory,0,,,,,,,sunaddsaeicthrfbkhe.jpg,,,,,,,,,,,,,,,
36,13,Memory,0,,,,,,,00901960530fa.jpg,,,,,,,,,,,,,,,
37,13,Memory,0,,,,,,,00848940307fa.jpg,,,,,,,,,,,,,,,
38,13,Memory,0,,,,,,,sunaawsdjisukbbginm.jpg,,,,,,,,,,,,,,,
39,13,Memory,0,,,,,,,00564941031fa.jpg,,,,,,,,,,,,,,,
40,13,Memory,0,,,,,,,00860940307fa.jpg,,,,,,,,,,,,,,,
41,13,Memory,0,,,,,,,00965960627fa.jpg,,,,,,,,,,,,,,,
42,13,Memory,0,,,,,,,00576941031fa.jpg,,,,,,,,,,,,,,,
43,13,Memory,0,,,,,,,sunaydywdmvlfddbxbk.jpg,,,,,,,,,,,,,,,
44,13,Memory,0,,,,,,,00122931230fa.jpg,,,,,,,,,,,,,,,
45,13,Memory,0,,,,,,,00996960627fa.jpg,,,,,,,,,,,,,,,
46,13,Memory,0,,,,,,,00780960530fa.jpg,,,,,,,,,,,,,,,
47,13,Memory,0,,,,,,,00774941201fa.jpg,,,,,,,,,,,,,,,
48,13,Memory,0,,,,,,,sunbpvgllfdejxcpjqp.jpg,,,,,,,,,,,,,,,
49,13,Memory,0,,,,,,,sunbwaafjdebjzttuvq.jpg,,,,,,,,,,,,,,,
50,13,Presentation,1,00931960627fa_sunaptrqvaooxfvktvw.jpg,00214940128fa_sunabbafjowbzcvbucc.jpg,00931960627fa.jpg,sunaptrqvaooxfvktvw.jpg,00214940128fa.jpg,sunabbafjowbzcvbucc.jpg,,,<,Face,,,,,1,,,,,,,o
51,13,Presentation,1,00108960530fa_sunaajtnvzzpsjdzres.jpg,00705960530fa_sunaduslxfzlbxlllnz.jpg,00108960530fa.jpg,sunaajtnvzzpsjdzres.jpg,00705960530fa.jpg,sunaduslxfzlbxlllnz.jpg,,,>,Place,,,,,1,,,,,,,x
52,13,Presentation,1,00893960530Fa_sunaloffvbvysigxent.jpg,00112931230fa_sunaakjaacuzulqckgl.jpg,00893960530Fa.jpg,sunaloffvbvysigxent.jpg,00112931230fa.jpg,sunaakjaacuzulqckgl.jpg,,,>,Face,,,,,1,,,,,,,o
53,13,Presentation,1,00987960627fa_sunbloeoiozwjjsiamp.jpg,00955960627fb_sunauburywlkjszngcq.jpg,00987960627fa.jpg,sunbloeoiozwjjsiamp.jpg,00955960627fb.jpg,sunauburywlkjszngcq.jpg,,,<,Face,,,,,1,,,,,,,o
54,13,Presentation,1,00915960620fa_sunapileznnbbmrwoei.jpg,00771941205fa_sunafowswglhxcsufpo.jpg,00915960620fa.jpg,sunapileznnbbmrwoei.jpg,00771941205fa.jpg,sunafowswglhxcsufpo.jpg,,,>,Face,,,,,1,,,,,,,x
55,13,Presentation,1,00115931230fa_sunaakmxzhuceuiryah.jpg,00581940928fa_sunacvzhvcksnwqcqbw.jpg,00115931230fa.jpg,sunaakmxzhuceuiryah.jpg,00581940928fa.jpg,sunacvzhvcksnwqcqbw.jpg,,,>,Face,,,,,1,,,,,,,x
56,13,Presentation,1,00264940128fb_sunabjzyxcjnmztdonj.jpg,00305940422fa_sunabtrnbvpppgczjim.jpg,00264940128fb.jpg,sunabjzyxcjnmztdonj.jpg,00305940422fa.jpg,sunabtrnbvpppgczjim.jpg,,,<,Place,,,,,1,,,,,,,x
57,13,Presentation,1,00768941205fa_sunafkmnlytenlsywia.jpg,00158931230fb_sunaavchcbptaerhcfy.jpg,00768941205fa.jpg,sunafkmnlytenlsywia.jpg,00158931230fb.jpg,sunaavchcbptaerhcfy.jpg,,,>,Place,,,,,1,,,,,,,o
58,13,Presentation,1,00620940928fa_sunacypmnujalygkunp.jpg,01010960627fa_suncnkvbhypnivcohyx.jpg,00620940928fa.jpg,sunacypmnujalygkunp.jpg,01010960627fa.jpg,suncnkvbhypnivcohyx.jpg,,,<,Place,,,,,1,,,,,,,x
59,13,Presentation,1,00788941205fa_sunagountlxpzkytsmp.jpg,00227940128fa_sunabckqabszusgcykj.jpg,00788941205fa.jpg,sunagountlxpzkytsmp.jpg,00227940128fa.jpg,sunabckqabszusgcykj.jpg,,,<,Place,,,,,1,,,,,,,x
60,13,Memory,1,,,,,,,sunagmhildamktmqjss.jpg,,,,,,,,,,,,,,,
61,13,Memory,1,,,,,,,00915960620fa.jpg,,,,,,,,,,,,,,,
62,13,Memory,1,,,,,,,01010960627fa.jpg,,,,,,,,,,,,,,,
63,13,Memory,1,,,,,,,00650941031fa.jpg,,,,,,,,,,,,,,,
64,13,Memory,1,,,,,,,00786941205fa.jpg,,,,,,,,,,,,,,,
65,13,Memory,1,,,,,,,00235940128fb.jpg,,,,,,,,,,,,,,,
66,13,Memory,1,,,,,,,00955960627fb.jpg,,,,,,,,,,,,,,,
67,13,Memory,1,,,,,,,00987960627fa.jpg,,,,,,,,,,,,,,,
68,13,Memory,1,,,,,,,sunaloffvbvysigxent.jpg,,,,,,,,,,,,,,,
69,13,Memory,1,,,,,,,sunadikxpvqeabxrvvc.jpg,,,,,,,,,,,,,,,
70,13,Memory,1,,,,,,,00779941205fa.jpg,,,,,,,,,,,,,,,
71,13,Memory,1,,,,,,,00227940128fa.jpg,,,,,,,,,,,,,,,
72,13,Memory,1,,,,,,,00771941205fa.jpg,,,,,,,,,,,,,,,
73,13,Memory,1,,,,,,,sunaavchcbptaerhcfy.jpg,,,,,,,,,,,,,,,
74,13,Memory,1,,,,,,,sunagdzlvkqtpnfxfcg.jpg,,,,,,,,,,,,,,,
75,13,Memory,1,,,,,,,00158931230fb.jpg,,,,,,,,,,,,,,,
76,13,Memory,1,,,,,,,sunbloeoiozwjjsiamp.jpg,,,,,,,,,,,,,,,
77,13,Memory,1,,,,,,,00790941205fa.jpg,,,,,,,,,,,,,,,
78,13,Memory,1,,,,,,,00893960530Fa.jpg,,,,,,,,,,,,,,,
79,13,Memory,1,,,,,,,sunbmaiocftdtvnzgap.jpg,,,,,,,,,,,,,,,
80,13,Memory,1,,,,,,,00874940307fa.jpg,,,,,,,,,,,,,,,
81,13,Memory,1,,,,,,,sunagpjzsbltchlwvou.jpg,,,,,,,,,,,,,,,
82,13,Memory,1,,,,,,,sunajbwkywmsqkldfml.jpg,,,,,,,,,,,,,,,
83,13,Memory,1,,,,,,,suncnkvbhypnivcohyx.jpg,,,,,,,,,,,,,,,
84,13,Memory,1,,,,,,,sunagountlxpzkytsmp.jpg,,,,,,,,,,,,,,,
85,13,Memory,1,,,,,,,00866940307fa.jpg,,,,,,,,,,,,,,,
86,13,Memory,1,,,,,,,sunabjzyxcjnmztdonj.jpg,,,,,,,,,,,,,,,
87,13,Memory,1,,,,,,,sunauburywlkjszngcq.jpg,,,,,,,,,,,,,,,
88,13,Memory,1,,,,,,,sunabclssnoeuigtawp.jpg,,,,,,,,,,,,,,,
89,13,Memory,1,,,,,,,00638941031fa.jpg,,,,,,,,,,,,,,,
90,13,Memory,1,,,,,,,00264940128fb.jpg,,,,,,,,,,,,,,,
91,13,Memory,1,,,,,,,00988960627fa.jpg,,,,,,,,,,,,,,,
92,13,Memory,1,,,,,,,sunabckqabszusgcykj.jpg,,,,,,,,,,,,,,,
93,13,Memory,1,,,,,,,sunabasphceswhwwqvv.jpg,,,,,,,,,,,,,,,
94,13,Memory,1,,,,,,,sunajtrfunvzdfticna.jpg,,,,,,,,,,,,,,,
95,13,Memory,1,,,,,,,sunadfktsqjthoglcsm.jpg,,,,,,,,,,,,,,,
96,13,Memory,1,,,,,,,00211940128fa.jpg,,,,,,,,,,,,,,,
97,13,Memory,1,,,,,,,00788941205fa.jpg,,,,,,,,,,,,,,,
98,13,Memory,1,,,,,,,sunapileznnbbmrwoei.jpg,,,,,,,,,,,,,,,
99,13,Memory,1,,,,,,,sunafowswglhxcsufpo.jpg,,,,,,,,,,,,,,,
100,13,Presentation,2,00507940519fa_sunacacflqoyxhsqzhe.jpg,01000960627fa_sunbvzmgrdvaakxusbu.jpg,00507940519fa.jpg,sunacacflqoyxhsqzhe.jpg,01000960627fa.jpg,sunbvzmgrdvaakxusbu.jpg,,,<,Place,,,,,1,,,,,,,o
101,13,Presentation,2,00109931230fa_sunaajuzribjrizdshh.jpg,00263940128fb_sunabjuovqvyfuzvqwt.jpg,00109931230fa.jpg,sunaajuzribjrizdshh.jpg,00263940128fb.jpg,sunabjuovqvyfuzvqwt.jpg,,,>,Face,,,,,1,,,,,,,x
102,13,Presentation,2,00598941031fa_sunacxtcahkymosigud.jpg,00892960530fa_sunalntxqqadigcletd.jpg,00598941031fa.jpg,sunacxtcahkymosigud.jpg,00892960530fa.jpg,sunalntxqqadigcletd.jpg,,,<,Place,,,,,1,,,,,,,o
103,13,Presentation,2,00983960627fa_sunbfyvfqiimvdaxlqn.jpg,00876960620fa_sunajwqkfsykceonyig.jpg,00983960627fa.jpg,sunbfyvfqiimvdaxlqn.jpg,00876960620fa.jpg,sunajwqkfsykceonyig.jpg,,,>,Face,,,,,0,,,,,,,o
104,13,Presentation,2,00829940307fa_sunahwgbqkqcrwprgvh.jpg,00630940928fa_sunaczwgyukesaajxnx.jpg,00829940307fa.jpg,sunahwgbqkqcrwprgvh.jpg,00630940928fa.jpg,sunaczwgyukesaajxnx.jpg,,,<,Face,,,,,1,,,,,,,o
105,13,Presentation,2,00953960627fa_sunatstrpjxhvtbaczf.jpg,00949960627fb_sunasnqkkyhilqkxiqm.jpg,00953960627fa.jpg,sunatstrpjxhvtbaczf.jpg,00949960627fb.jpg,sunasnqkkyhilqkxiqm.jpg,,,>,Place,,,,,1,,,,,,,x
106,13,Presentation,2,00889960530fa_sunaletopenvvozhpxc.jpg,00124931230fa_sunaalhlvzmjmitybdn.jpg,00889960530fa.jpg,sunaletopenvvozhpxc.jpg,00124931230fa.jpg,sunaalhlvzmjmitybdn.jpg,,,>,Face,,,,,1,,,,,,,o
107,13,Presentation,2,00727941205fa_sunaeisnjeetzmkbuad.jpg,00971960627fa_sunbbegcweqnetpdlrh.jpg,00727941205fa.jpg,sunaeisnjeetzmkbuad.jpg,00971960627fa.jpg,sunbbegcweqnetpdlrh.jpg,,,<,Face,,,,,1,,,,,,,o
108,13,Presentation,2,00313940422fa_sunabwjvmoaddlyxfjr.jpg,00562941031fa_sunacjnahdmqfnjfwqx.jpg,00313940422fa.jpg,sunabwjvmoaddlyxfjr.jpg,00562941031fa.jpg,sunacjnahdmqfnjfwqx.jpg,,,>,Place,,,,,1,,,,,,,o
109,13,Presentation,2,00957960627fa_sunavhxgmgrqsaptynb.jpg,00292940422fb_sunabrjdpmoedcdjbpo.jpg,00957960627fa.jpg,sunavhxgmgrqsaptynb.jpg,00292940422fb.jpg,sunabrjdpmoedcdjbpo.jpg,,,<,Place,,,,,1,,,,,,,o
110,13,Memory,2,,,,,,,00092931230fa.jpg,,,,,,,,,,,,,,,
111,13,Memory,2,,,,,,,sunaaeplwsfslcbtojr.jpg,,,,,,,,,,,,,,,
112,13,Memory,2,,,,,,,sunabwjvmoaddlyxfjr.jpg,,,,,,,,,,,,,,,
113,13,Memory,2,,,,,,,sunamkmeblgteyggink.jpg,,,,,,,,,,,,,,,
114,13,Memory,2,,,,,,,sunaalhlvzmjmitybdn.jpg,,,,,,,,,,,,,,,
115,13,Memory,2,,,,,,,sunaiozxhxgtfrmoagh.jpg,,,,,,,,,,,,,,,
116,13,Memory,2,,,,,,,sunahmhrncocyhsjpxk.jpg,,,,,,,,,,,,,,,
117,13,Memory,2,,,,,,,00949960627fb.jpg,,,,,,,,,,,,,,,
118,13,Memory,2,,,,,,,00124931230fa.jpg,,,,,,,,,,,,,,,
119,13,Memory,2,,,,,,,00838940307fa.jpg,,,,,,,,,,,,,,,
120,13,Memory,2,,,,,,,00070940307fa.jpg,,,,,,,,,,,,,,,
121,13,Memory,2,,,,,,,00630940928fa.jpg,,,,,,,,,,,,,,,
122,13,Memory,2,,,,,,,sunabrjdpmoedcdjbpo.jpg,,,,,,,,,,,,,,,
123,13,Memory,2,,,,,,,00898960530fa.jpg,,,,,,,,,,,,,,,
124,13,Memory,2,,,,,,,00971960627fa.jpg,,,,,,,,,,,,,,,
125,13,Memory,2,,,,,,,00288940422fa.jpg,,,,,,,,,,,,,,,
126,13,Memory,2,,,,,,,00292940422fb.jpg,,,,,,,,,,,,,,,
127,13,Memory,2,,,,,,,sunavhxgmgrqsaptynb.jpg,,,,,,,,,,,,,,,
128,13,Memory,2,,,,,,,00773960620fa.jpg,,,,,,,,,,,,,,,
129,13,Memory,2,,,,,,,sunaczwgyukesaajxnx.jpg,,,,,,,,,,,,,,,
130,13,Memory,2,,,,,,,00598941031fa.jpg,,,,,,,,,,,,,,,
131,13,Memory,2,,,,,,,00953960627fa.jpg,,,,,,,,,,,,,,,
132,13,Memory,2,,,,,,,00313940422fa.jpg,,,,,,,,,,,,,,,
133,13,Memory,2,,,,,,,sunatstrpjxhvtbaczf.jpg,,,,,,,,,,,,,,,
134,13,Memory,2,,,,,,,sunalkiibhqpxfamlll.jpg,,,,,,,,,,,,,,,
135,13,Memory,2,,,,,,,00507940519fa.jpg,,,,,,,,,,,,,,,
136,13,Memory,2,,,,,,,00868960307fa.jpg,,,,,,,,,,,,,,,
137,13,Memory,2,,,,,,,sunaffgsyyvoqdlkmnk.jpg,,,,,,,,,,,,,,,
138,13,Memory,2,,,,,,,sunajjxttslobudoqbv.jpg,,,,,,,,,,,,,,,
139,13,Memory,2,,,,,,,sunabppokiyglaxpcha.jpg,,,,,,,,,,,,,,,
140,13,Memory,2,,,,,,,sunaaheqzstzxuadglu.jpg,,,,,,,,,,,,,,,
141,13,Memory,2,,,,,,,sunafvsxtzaizojicxx.jpg,,,,,,,,,,,,,,,
142,13,Memory,2,,,,,,,00754941201fa.jpg,,,,,,,,,,,,,,,
143,13,Memory,2,,,,,,,sunacxtcahkymosigud.jpg,,,,,,,,,,,,,,,
144,13,Memory,2,,,,,,,00816941205fa.jpg,,,,,,,,,,,,,,,
145,13,Memory,2,,,,,,,sunasnqkkyhilqkxiqm.jpg,,,,,,,,,,,,,,,
146,13,Memory,2,,,,,,,sunbbegcweqnetpdlrh.jpg,,,,,,,,,,,,,,,
147,13,Memory,2,,,,,,,00891960530fa.jpg,,,,,,,,,,,,,,,
148,13,Memory,2,,,,,,,sunacacflqoyxhsqzhe.jpg,,,,,,,,,,,,,,,
149,13,Memory,2,,,,,,,00957960627fa.jpg,,,,,,,,,,,,,,,
150,13,Presentation,3,00749941201fa_sunaeuvjbmdpknaqqaj.jpg,00785941205fa_sunaglqunwuycxydmyu.jpg,00749941201fa.jpg,sunaeuvjbmdpknaqqaj.jpg,00785941205fa.jpg,sunaglqunwuycxydmyu.jpg,,,<,Face,,,,,1,,,,,,,o
151,13,Presentation,3,00730960620fa_sunaekgzpfilgjxpeyq.jpg,00935960627fa_sunaqbmgkgqucajzrkp.jpg,00730960620fa.jpg,sunaekgzpfilgjxpeyq.jpg,00935960627fa.jpg,sunaqbmgkgqucajzrkp.jpg,,,>,Face,,,,,1,,,,,,,x
152,13,Presentation,3,00543940519fa_sunacepzfrmtkiqonpy.jpg,00260940128fa_sunabgfhvifeijihhjw.jpg,00543940519fa.jpg,sunacepzfrmtkiqonpy.jpg,00260940128fa.jpg,sunabgfhvifeijihhjw.jpg,,,<,Place,,,,,1,,,,,,,x
153,13,Presentation,3,00705941205fa_sunadtlxenqqxsyjvix.jpg,00894960620fa_sunalqmfgeadpqsyzpd.jpg,00705941205fa.jpg,sunadtlxenqqxsyjvix.jpg,00894960620fa.jpg,sunalqmfgeadpqsyzpd.jpg,,,<,Place,,,,,1,,,,,,,o
154,13,Presentation,3,00784941205fb_sunagjzcrjvmxzqzljx.jpg,00505960627fa_sunabzuqsrgcsonqlkz.jpg,00784941205fb.jpg,sunagjzcrjvmxzqzljx.jpg,00505960627fa.jpg,sunabzuqsrgcsonqlkz.jpg,,,<,Face,,,,,1,,,,,,,x
155,13,Presentation,3,00933960627fa_sunapwjkcxdaeqehfql.jpg,00878960530fa_sunakgbnzxmfohgehnu.jpg,00933960627fa.jpg,sunapwjkcxdaeqehfql.jpg,00878960530fa.jpg,sunakgbnzxmfohgehnu.jpg,,,>,Place,,,,,1,,,,,,,o
156,13,Presentation,3,00746941201fa_sunaetydippjxikifsb.jpg,01005960627fa_sunbwyuesflwdpqtgoy.jpg,00746941201fa.jpg,sunaetydippjxikifsb.jpg,01005960627fa.jpg,sunbwyuesflwdpqtgoy.jpg,,,>,Face,,,,,1,,,,,,,o
157,13,Presentation,3,00906960530fa_sunantryfbloeaomfta.jpg,00184940128fa_sunaavtbadenwnzeutj.jpg,00906960530fa.jpg,sunantryfbloeaomfta.jpg,00184940128fa.jpg,sunaavtbadenwnzeutj.jpg,,,>,Place,,,,,1,,,,,,,o
158,13,Presentation,3,00096931230fa_sunaaiqiqcggrskoqgy.jpg,00080931230fb_sunaafjszryxyavjzln.jpg,00096931230fa.jpg,sunaaiqiqcggrskoqgy.jpg,00080931230fb.jpg,sunaafjszryxyavjzln.jpg,,,>,Face,,,,,1,,,,,,,o
159,13,Presentation,3,00136931230fb_sunaanptmsknhirrzed.jpg,00952960627fa_sunathzzbcwjykldrem.jpg,00136931230fb.jpg,sunaanptmsknhirrzed.jpg,00952960627fa.jpg,sunathzzbcwjykldrem.jpg,,,<,Place,,,,,0,,,,,,,x
160,13,Memory,3,,,,,,,sunahiphsekjihkafsl.jpg,,,,,,,,,,,,,,,
161,13,Memory,3,,,,,,,00543940519fa.jpg,,,,,,,,,,,,,,,
162,13,Memory,3,,,,,,,sunagjeesomrwjsfqie.jpg,,,,,,,,,,,,,,,
163,13,Memory,3,,,,,,,00935960627fa.jpg,,,,,,,,,,,,,,,
164,13,Memory,3,,,,,,,sunbwyuesflwdpqtgoy.jpg,,,,,,,,,,,,,,,
165,13,Memory,3,,,,,,,sunadoxcchtmsxewsau.jpg,,,,,,,,,,,,,,,
166,13,Memory,3,,,,,,,00784941205fb.jpg,,,,,,,,,,,,,,,
167,13,Memory,3,,,,,,,00913960530fa.jpg,,,,,,,,,,,,,,,
168,13,Memory,3,,,,,,,00906960530fa.jpg,,,,,,,,,,,,,,,
169,13,Memory,3,,,,,,,sunabueyoajufbkraki.jpg,,,,,,,,,,,,,,,
170,13,Memory,3,,,,,,,sunakgbnzxmfohgehnu.jpg,,,,,,,,,,,,,,,
171,13,Memory,3,,,,,,,01005960627fa.jpg,,,,,,,,,,,,,,,
172,13,Memory,3,,,,,,,sunantryfbloeaomfta.jpg,,,,,,,,,,,,,,,
173,13,Memory,3,,,,,,,sunaanptmsknhirrzed.jpg,,,,,,,,,,,,,,,
174,13,Memory,3,,,,,,,00271940422fa.jpg,,,,,,,,,,,,,,,
175,13,Memory,3,,,,,,,sunacepzfrmtkiqonpy.jpg,,,,,,,,,,,,,,,
176,13,Memory,3,,,,,,,00306940422fa.jpg,,,,,,,,,,,,,,,
177,13,Memory,3,,,,,,,00878960530fa.jpg,,,,,,,,,,,,,,,
178,13,Memory,3,,,,,,,sunbwdrdvsweerwsdrj.jpg,,,,,,,,,,,,,,,
179,13,Memory,3,,,,,,,00136931230fb.jpg,,,,,,,,,,,,,,,
180,13,Memory,3,,,,,,,00634940928fa.jpg,,,,,,,,,,,,,,,
181,13,Memory,3,,,,,,,00973960627fa.jpg,,,,,,,,,,,,,,,
182,13,Memory,3,,,,,,,00675941121fa.jpg,,,,,,,,,,,,,,,
183,13,Memory,3,,,,,,,00939960627fa.jpg,,,,,,,,,,,,,,,
184,13,Memory,3,,,,,,,sunaqbmgkgqucajzrkp.jpg,,,,,,,,,,,,,,,
185,13,Memory,3,,,,,,,00184940128fa.jpg,,,,,,,,,,,,,,,
186,13,Memory,3,,,,,,,00783941205fa.jpg,,,,,,,,,,,,,,,
187,13,Memory,3,,,,,,,00952960627fa.jpg,,,,,,,,,,,,,,,
188,13,Memory,3,,,,,,,sunadcphrizvfpljiqt.jpg,,,,,,,,,,,,,,,
189,13,Memory,3,,,,,,,sunbbgtoeuzierkkajt.jpg,,,,,,,,,,,,,,,
190,13,Memory,3,,,,,,,sunaekgzpfilgjxpeyq.jpg,,,,,,,,,,,,,,,
191,13,Memory,3,,,,,,,01003960627fb.jpg,,,,,,,,,,,,,,,
192,13,Memory,3,,,,,,,sunaavtbadenwnzeutj.jpg,,,,,,,,,,,,,,,
193,13,Memory,3,,,,,,,sunagjzcrjvmxzqzljx.jpg,,,,,,,,,,,,,,,
194,13,Memory,3,,,,,,,sunathzzbcwjykldrem.jpg,,,,,,,,,,,,,,,
195,13,Memory,3,,,,,,,00815941205fa.jpg,,,,,,,,,,,,,,,
196,13,Memory,3,,,,,,,sunarceibpcyacbmfga.jpg,,,,,,,,,,,,,,,
197,13,Memory,3,,,,,,,sunabmbnddafmywtjjj.jpg,,,,,,,,,,,,,,,
198,13,Memory,3,,,,,,,00730960620fa.jpg,,,,,,,,,,,,,,,
199,13,Memory,3,,,,,,,sunaooffzffbhcpirmm.jpg,,,,,,,,,,,,,,,
200,13,Presentation,4,00909960530_sunaobtizabegtwfwul.jpg,00761960627fa_sunafgdqbclkwfocdhg.jpg,00909960530.jpg,sunaobtizabegtwfwul.jpg,00761960627fa.jpg,sunafgdqbclkwfocdhg.jpg,,,<,Place,,,,,1,,,,,,,o
201,13,Presentation,4,00694941121fa_sunadrmfzmstgdjdcod.jpg,00111931230fb_sunaakgekhjklxmvulj.jpg,00694941121fa.jpg,sunadrmfzmstgdjdcod.jpg,00111931230fb.jpg,sunaakgekhjklxmvulj.jpg,,,<,Face,,,,,1,,,,,,,x
202,13,Presentation,4,00086931230fa_sunaafynehyrzpsoaml.jpg,00061931230fb_sunaaekxzjzrfgtkwjf.jpg,00086931230fa.jpg,sunaafynehyrzpsoaml.jpg,00061931230fb.jpg,sunaaekxzjzrfgtkwjf.jpg,,,<,Place,,,,,1,,,,,,,x
203,13,Presentation,4,00097931230fa_sunaajayojuslbbnneg.jpg,00884960530fa_sunakodkcslgqhqlgwl.jpg,00097931230fa.jpg,sunaajayojuslbbnneg.jpg,00884960530fa.jpg,sunakodkcslgqhqlgwl.jpg,,,>,Place,,,,,1,,,,,,,o
204,13,Presentation,4,00270940422fb_sunabllobxadqcyttej.jpg,00529940519fa_sunacbeefkxpymwevpk.jpg,00270940422fb.jpg,sunabllobxadqcyttej.jpg,00529940519fa.jpg,sunacbeefkxpymwevpk.jpg,,,<,Face,,,,,0,,,,,,,o
205,13,Presentation,4,00811960530fa_sunahedfrhtcwpneund.jpg,00060931230fa_sunaaehaikpckyjsety.jpg,00811960530fa.jpg,sunahedfrhtcwpneund.jpg,00060931230fa.jpg,sunaaehaikpckyjsety.jpg,,,<,Face,,,,,1,,,,,,,o
206,13,Presentation,4,00720960620fa_sunaecpkgfewqqreqwe.jpg,00968960627fa_sunbagfpovqwbuexqdn.jpg,00720960620fa.jpg,sunaecpkgfewqqreqwe.jpg,00968960627fa.jpg,sunbagfpovqwbuexqdn.jpg,,,>,Place,,,,,1,,,,,,,x
207,13,Presentation,4,00723941201fa_sunaedtgwjvvziytspa.jpg,00819940307fa_sunahqldjibofgsfdgb.jpg,00723941201fa.jpg,sunaedtgwjvvziytspa.jpg,00819940307fa.jpg,sunahqldjibofgsfdgb.jpg,,,>,Face,,,,,1,,,,,,,o
208,13,Presentation,4,00481940519fa_sunabxsuqbleluwczoy.jpg,00093931230fa_sunaahwnmtqsrhocysw.jpg,00481940519fa.jpg,sunabxsuqbleluwczoy.jpg,00093931230fa.jpg,sunaahwnmtqsrhocysw.jpg,,,>,Place,,,,,1,,,,,,,x
209,13,Presentation,4,00794960620fa_sunagtqhhwxjeuxdebe.jpg,00859940307fa_sunaiycurtqsfkvcaso.jpg,00794960620fa.jpg,sunagtqhhwxjeuxdebe.jpg,00859940307fa.jpg,sunaiycurtqsfkvcaso.jpg,,,>,Face,,,,,1,,,,,,,x
210,13,Memory,4,,,,,,,00794960620fa.jpg,,,,,,,,,,,,,,,
211,13,Memory,4,,,,,,,sunagtqhhwxjeuxdebe.jpg,,,,,,,,,,,,,,,
212,13,Memory,4,,,,,,,00208940128fa.jpg,,,,,,,,,,,,,,,
213,13,Memory,4,,,,,,,00745941205fa.jpg,,,,,,,,,,,,,,,
214,13,Memory,4,,,,,,,sunaalltyvjhbzhkmvg.jpg,,,,,,,,,,,,,,,
215,13,Memory,4,,,,,,,sunaiycurtqsfkvcaso.jpg,,,,,,,,,,,,,,,
216,13,Memory,4,,,,,,,00700941121fa.jpg,,,,,,,,,,,,,,,
217,13,Memory,4,,,,,,,sunafgdqbclkwfocdhg.jpg,,,,,,,,,,,,,,,
218,13,Memory,4,,,,,,,sunaobtizabegtwfwul.jpg,,,,,,,,,,,,,,,
219,13,Memory,4,,,,,,,sunadsgmtznewzyasnk.jpg,,,,,,,,,,,,,,,
220,13,Memory,4,,,,,,,00123931230fb.jpg,,,,,,,,,,,,,,,
221,13,Memory,4,,,,,,,sunaeouogqolxvggaoq.jpg,,,,,,,,,,,,,,,
222,13,Memory,4,,,,,,,sunabllobxadqcyttej.jpg,,,,,,,,,,,,,,,
223,13,Memory,4,,,,,,,sunafbwnojpqeyzssoe.jpg,,,,,,,,,,,,,,,
224,13,Memory,4,,,,,,,sunaaekxzjzrfgtkwjf.jpg,,,,,,,,,,,,,,,
225,13,Memory,4,,,,,,,00885960530fa.jpg,,,,,,,,,,,,,,,
226,13,Memory,4,,,,,,,sunaakqepfoeqomfgxf.jpg,,,,,,,,,,,,,,,
227,13,Memory,4,,,,,,,sunagsiwrmuixqgdimb.jpg,,,,,,,,,,,,,,,
228,13,Memory,4,,,,,,,00095931230fa.jpg,,,,,,,,,,,,,,,
229,13,Memory,4,,,,,,,00061931230fb.jpg,,,,,,,,,,,,,,,
230,13,Memory,4,,,,,,,00270940422fb.jpg,,,,,,,,,,,,,,,
231,13,Memory,4,,,,,,,sunaedtgwjvvziytspa.jpg,,,,,,,,,,,,,,,
232,13,Memory,4,,,,,,,00968960627fa.jpg,,,,,,,,,,,,,,,
233,13,Memory,4,,,,,,,sunaalcrrdbjgdztbiz.jpg,,,,,,,,,,,,,,,
234,13,Memory,4,,,,,,,00909960530.jpg,,,,,,,,,,,,,,,
235,13,Memory,4,,,,,,,sunaahzooisqkwlxwoz.jpg,,,,,,,,,,,,,,,
236,13,Memory,4,,,,,,,00752960620fa.jpg,,,,,,,,,,,,,,,
237,13,Memory,4,,,,,,,sunaazzyhbvqjpmazjq.jpg,,,,,,,,,,,,,,,
238,13,Memory,4,,,,,,,00859940307fa.jpg,,,,,,,,,,,,,,,
239,13,Memory,4,,,,,,,sunadrmfzmstgdjdcod.jpg,,,,,,,,,,,,,,,
240,13,Memory,4,,,,,,,00819940307fa.jpg,,,,,,,,,,,,,,,
241,13,Memory,4,,,,,,,sunakwlvxjpddialozd.jpg,,,,,,,,,,,,,,,
242,13,Memory,4,,,,,,,00694941121fa.jpg,,,,,,,,,,,,,,,
243,13,Memory,4,,,,,,,00723941201fa.jpg,,,,,,,,,,,,,,,
244,13,Memory,4,,,,,,,sunbagfpovqwbuexqdn.jpg,,,,,,,,,,,,,,,
245,13,Memory,4,,,,,,,00761960627fa.jpg,,,,,,,,,,,,,,,
246,13,Memory,4,,,,,,,sunahqldjibofgsfdgb.jpg,,,,,,,,,,,,,,,
247,13,Memory,4,,,,,,,00792941205fa.jpg,,,,,,,,,,,,,,,
248,13,Memory,4,,,,,,,00125931230fa.jpg,,,,,,,,,,,,,,,
249,13,Memory,4,,,,,,,00116931230fa.jpg,,,,,,,,,,,,,,,
250,13,Presentation,5,00858940307fa_sunaixpqndlwhwjtjek.jpg,00145931230fb_sunaatjesvdupctftmn.jpg,00858940307fa.jpg,sunaixpqndlwhwjtjek.jpg,00145931230fb.jpg,sunaatjesvdupctftmn.jpg,,,<,Place,,,,,1,,,,,,,o
251,13,Presentation,5,00847940307fa_sunaivdjruhkrfywfed.jpg,00770941201fa_sunaflojskatpeqyzqp.jpg,00847940307fa.jpg,sunaivdjruhkrfywfed.jpg,00770941201fa.jpg,sunaflojskatpeqyzqp.jpg,,,<,Place,,,,,0,,,,,,,x
252,13,Presentation,5,00791941205fa_sunagrmyoovzukhxmlo.jpg,00662941121fa_sunadkazmlajmohnwfl.jpg,00791941205fa.jpg,sunagrmyoovzukhxmlo.jpg,00662941121fa.jpg,sunadkazmlajmohnwfl.jpg,,,<,Face,,,,,1,,,,,,,o
253,13,Presentation,5,00647941031fa_sunadflbrkckmepztql.jpg,00760960620fa_sunaffstbkappprzxnv.jpg,00647941031fa.jpg,sunadflbrkckmepztql.jpg,00760960620fa.jpg,sunaffstbkappprzxnv.jpg,,,>,Face,,,,,0,,,,,,,o
254,13,Presentation,5,00126931230fb_sunaamdjwemxpmmtypi.jpg,00198940128fb_sunaazezcsunmhttzxz.jpg,00126931230fb.jpg,sunaamdjwemxpmmtypi.jpg,00198940128fb.jpg,sunaazezcsunmhttzxz.jpg,,,<,Place,,,,,0,,,,,,,x
255,13,Presentation,5,00796941205fa_sunaguchqqnrtodtezq.jpg,00787941205fa_sunagmwxxwymwojbvgi.jpg,00796941205fa.jpg,sunaguchqqnrtodtezq.jpg,00787941205fa.jpg,sunagmwxxwymwojbvgi.jpg,,,>,Place,,,,,1,,,,,,,x
256,13,Presentation,5,00540940519fa_sunacdnquypmsshhsbk.jpg,00910960530fa_sunaofikylqtxphvdem.jpg,00540940519fa.jpg,sunacdnquypmsshhsbk.jpg,00910960530fa.jpg,sunaofikylqtxphvdem.jpg,,,<,Face,,,,,1,,,,,,,o
257,13,Presentation,5,00834940307fa_sunaibnpvhkdpdnzcnz.jpg,00314940422fa_sunabwmcbaxwioksdgw.jpg,00834940307fa.jpg,sunaibnpvhkdpdnzcnz.jpg,00314940422fa.jpg,sunabwmcbaxwioksdgw.jpg,,,>,Face,,,,,1,,,,,,,o
258,13,Presentation,5,00803941205fa_sunagvxkjokqimstxpe.jpg,00532960627fa_sunaccdtpgenvcbcbcf.jpg,00803941205fa.jpg,sunagvxkjokqimstxpe.jpg,00532960627fa.jpg,sunaccdtpgenvcbcbcf.jpg,,,>,Face,,,,,1,,,,,,,o
259,13,Presentation,5,00574940928fa_sunacvbrcejzwmcgnoq.jpg,00793941205fa_sunagtjwilqjvxohypn.jpg,00574940928fa.jpg,sunacvbrcejzwmcgnoq.jpg,00793941205fa.jpg,sunagtjwilqjvxohypn.jpg,,,>,Place,,,,,0,,,,,,,x
260,13,Memory,5,,,,,,,sunaaemixhfquhnxxlm.jpg,,,,,,,,,,,,,,,
261,13,Memory,5,,,,,,,sunaibnpvhkdpdnzcnz.jpg,,,,,,,,,,,,,,,
262,13,Memory,5,,,,,,,00828940307fa.jpg,,,,,,,,,,,,,,,
263,13,Memory,5,,,,,,,00574940928fa.jpg,,,,,,,,,,,,,,,
264,13,Memory,5,,,,,,,sunabaergayifsgacxt.jpg,,,,,,,,,,,,,,,
265,13,Memory,5,,,,,,,sunaffstbkappprzxnv.jpg,,,,,,,,,,,,,,,
266,13,Memory,5,,,,,,,sunaixpqndlwhwjtjek.jpg,,,,,,,,,,,,,,,
267,13,Memory,5,,,,,,,sunacvbrcejzwmcgnoq.jpg,,,,,,,,,,,,,,,
268,13,Memory,5,,,,,,,00209940128fb.jpg,,,,,,,,,,,,,,,
269,13,Memory,5,,,,,,,00065931230fb.jpg,,,,,,,,,,,,,,,
270,13,Memory,5,,,,,,,sunabizydfotqddlnjp.jpg,,,,,,,,,,,,,,,
271,13,Memory,5,,,,,,,00647941031fa.jpg,,,,,,,,,,,,,,,
272,13,Memory,5,,,,,,,00662941121fa.jpg,,,,,,,,,,,,,,,
273,13,Memory,5,,,,,,,00262940128fa.jpg,,,,,,,,,,,,,,,
274,13,Memory,5,,,,,,,sunaflojskatpeqyzqp.jpg,,,,,,,,,,,,,,,
275,13,Memory,5,,,,,,,sunaazezcsunmhttzxz.jpg,,,,,,,,,,,,,,,
276,13,Memory,5,,,,,,,sunahuynahneraqftyz.jpg,,,,,,,,,,,,,,,
277,13,Memory,5,,,,,,,00834940307fa.jpg,,,,,,,,,,,,,,,
278,13,Memory,5,,,,,,,sunaawqdbpihmlbwyyn.jpg,,,,,,,,,,,,,,,
279,13,Memory,5,,,,,,,00770941201fa.jpg,,,,,,,,,,,,,,,
280,13,Memory,5,,,,,,,sunafcofuuzebuadceo.jpg,,,,,,,,,,,,,,,
281,13,Memory,5,,,,,,,00145931230fb.jpg,,,,,,,,,,,,,,,
282,13,Memory,5,,,,,,,00753941201fa.jpg,,,,,,,,,,,,,,,
283,13,Memory,5,,,,,,,sunaajpqmulidejvjsr.jpg,,,,,,,,,,,,,,,
284,13,Memory,5,,,,,,,00098931230fa.jpg,,,,,,,,,,,,,,,
285,13,Memory,5,,,,,,,sunaatjesvdupctftmn.jpg,,,,,,,,,,,,,,,
286,13,Memory,5,,,,,,,sunaivdjruhkrfywfed.jpg,,,,,,,,,,,,,,,
287,13,Memory,5,,,,,,,sunapqwnqzxlsfvgsjm.jpg,,,,,,,,,,,,,,,
288,13,Memory,5,,,,,,,00760960620fa.jpg,,,,,,,,,,,,,,,
289,13,Memory,5,,,,,,,00925960627fa.jpg,,,,,,,,,,,,,,,
290,13,Memory,5,,,,,,,sunadkazmlajmohnwfl.jpg,,,,,,,,,,,,,,,
291,13,Memory,5,,,,,,,00198940128fb.jpg,,,,,,,,,,,,,,,
292,13,Memory,5,,,,,,,00847940307fa.jpg,,,,,,,,,,,,,,,
293,13,Memory,5,,,,,,,00069931230fb.jpg,,,,,,,,,,,,,,,
294,13,Memory,5,,,,,,,00858940307fa.jpg,,,,,,,,,,,,,,,
295,13,Memory,5,,,,,,,00185940422fb.jpg,,,,,,,,,,,,,,,
296,13,Memory,5,,,,,,,00967960627fa.jpg,,,,,,,,,,,,,,,
297,13,Memory,5,,,,,,,sunbaejotfklekvpxcz.jpg,,,,,,,,,,,,,,,
298,13,Memory,5,,,,,,,sunaaeowapdkwzqpgqr.jpg,,,,,,,,,,,,,,,
299,13,Memory,5,,,,,,,sunadflbrkckmepztql.jpg,,,,,,,,,,,,,,,
300,13,Presentation,6,00958960627fa_sunavspxmxubqaeidjt.jpg,00129931230fb_sunaamsdyakblkfoydx.jpg,00958960627fa.jpg,sunavspxmxubqaeidjt.jpg,00129931230fb.jpg,sunaamsdyakblkfoydx.jpg,,,<,Place,,,,,1,,,,,,,o
301,13,Presentation,6,00630941031fa_sunadakkdovnuzlycvp.jpg,00938960627fa_sunaqyylsngywqzwfmx.jpg,00630941031fa.jpg,sunadakkdovnuzlycvp.jpg,00938960627fa.jpg,sunaqyylsngywqzwfmx.jpg,,,<,Place,,,,,1,,,,,,,x
302,13,Presentation,6,00571940928fa_sunacuatpqpqhyjhjqk.jpg,00119931230fb_sunaakvmbftkrgqhjun.jpg,00571940928fa.jpg,sunacuatpqpqhyjhjqk.jpg,00119931230fb.jpg,sunaakvmbftkrgqhjun.jpg,,,>,Face,,,,,1,,,,,,,x
303,13,Presentation,6,00922960627fa_sunapqkyghktgtosuuk.jpg,00663941121fa_sunadnjjzohjhbohlwq.jpg,00922960627fa.jpg,sunapqkyghktgtosuuk.jpg,00663941121fa.jpg,sunadnjjzohjhbohlwq.jpg,,,<,Face,,,,,1,,,,,,,x
304,13,Presentation,6,00869940307fa_sunajoveqhiprwqgoco.jpg,00960960627fa_sunawksfbacycuhbrsc.jpg,00869940307fa.jpg,sunajoveqhiprwqgoco.jpg,00960960627fa.jpg,sunawksfbacycuhbrsc.jpg,,,>,Face,,,,,1,,,,,,,x
305,13,Presentation,6,00589940928fa_sunacwggadqsfpovdjv.jpg,00144931230fb_sunaathajvxrgptwhoj.jpg,00589940928fa.jpg,sunacwggadqsfpovdjv.jpg,00144931230fb.jpg,sunaathajvxrgptwhoj.jpg,,,>,Place,,,,,1,,,,,,,x
306,13,Presentation,6,00245940128fa_sunabeyhmxodahoieyk.jpg,00776941205fa_sunafxokyavhgptyfye.jpg,00245940128fa.jpg,sunabeyhmxodahoieyk.jpg,00776941205fa.jpg,sunafxokyavhgptyfye.jpg,,,>,Place,,,,,1,,,,,,,x
307,13,Presentation,6,00937960627fa_sunaqsolmfydodnakub.jpg,00936960627fa_sunaqgjuuwvdcyiccjt.jpg,00937960627fa.jpg,sunaqsolmfydodnakub.jpg,00936960627fa.jpg,sunaqgjuuwvdcyiccjt.jpg,,,<,Face,,,,,1,,,,,,,o
308,13,Presentation,6,00132931230fb_sunaanjcbzdvtvblsdy.jpg,00728941205fa_sunaejnvnpltdmhbcsi.jpg,00132931230fb.jpg,sunaanjcbzdvtvblsdy.jpg,00728941205fa.jpg,sunaejnvnpltdmhbcsi.jpg,,,>,Place,,,,,1,,,,,,,x
309,13,Presentation,6,00787960620fa_sunagoufulkpsxrmklt.jpg,00914960620fa_sunaozisvwfbmlkfhzv.jpg,00787960620fa.jpg,sunagoufulkpsxrmklt.jpg,00914960620fa.jpg,sunaozisvwfbmlkfhzv.jpg,,,<,Face,,,,,1,,,,,,,o
310,13,Memory,6,,,,,,,00877960530fa.jpg,,,,,,,,,,,,,,,
311,13,Memory,6,,,,,,,00969960627fa.jpg,,,,,,,,,,,,,,,
312,13,Memory,6,,,,,,,00979960627fa.jpg,,,,,,,,,,,,,,,
313,13,Memory,6,,,,,,,00482940519fa.jpg,,,,,,,,,,,,,,,
314,13,Memory,6,,,,,,,sunagoufulkpsxrmklt.jpg,,,,,,,,,,,,,,,
315,13,Memory,6,,,,,,,00936960627fa.jpg,,,,,,,,,,,,,,,
316,13,Memory,6,,,,,,,sunaakvmbftkrgqhjun.jpg,,,,,,,,,,,,,,,
317,13,Memory,6,,,,,,,00571940928fa.jpg,,,,,,,,,,,,,,,
318,13,Memory,6,,,,,,,00119931230fb.jpg,,,,,,,,,,,,,,,
319,13,Memory,6,,,,,,,sunajxpkuhbizeveguy.jpg,,,,,,,,,,,,,,,
320,13,Memory,6,,,,,,,sunbdycacjfaujxitbw.jpg,,,,,,,,,,,,,,,
321,13,Memory,6,,,,,,,sunaathajvxrgptwhoj.jpg,,,,,,,,,,,,,,,
322,13,Memory,6,,,,,,,sunaaexpnawiehinlpy.jpg,,,,,,,,,,,,,,,
323,13,Memory,6,,,,,,,sunaayehfdqcyxggsej.jpg,,,,,,,,,,,,,,,
324,13,Memory,6,,,,,,,sunajoveqhiprwqgoco.jpg,,,,,,,,,,,,,,,
325,13,Memory,6,,,,,,,00221940128fa.jpg,,,,,,,,,,,,,,,
326,13,Memory,6,,,,,,,sunacuatpqpqhyjhjqk.jpg,,,,,,,,,,,,,,,
327,13,Memory,6,,,,,,,sunbasypfgzjtomktmu.jpg,,,,,,,,,,,,,,,
328,13,Memory,6,,,,,,,00960960627fa.jpg,,,,,,,,,,,,,,,
329,13,Memory,6,,,,,,,00071940128fa.jpg,,,,,,,,,,,,,,,
330,13,Memory,6,,,,,,,00132931230fb.jpg,,,,,,,,,,,,,,,
331,13,Memory,6,,,,,,,sunabyfxcxhdebvdyfd.jpg,,,,,,,,,,,,,,,
332,13,Memory,6,,,,,,,sunawksfbacycuhbrsc.jpg,,,,,,,,,,,,,,,
333,13,Memory,6,,,,,,,sunaapxkpvrhpjplsok.jpg,,,,,,,,,,,,,,,
334,13,Memory,6,,,,,,,sunbaoizrfijvhpnnjn.jpg,,,,,,,,,,,,,,,
335,13,Memory,6,,,,,,,00869940307fa.jpg,,,,,,,,,,,,,,,
336,13,Memory,6,,,,,,,sunabcfpwlpolnutyju.jpg,,,,,,,,,,,,,,,
337,13,Memory,6,,,,,,,00728941205fa.jpg,,,,,,,,,,,,,,,
338,13,Memory,6,,,,,,,00970960627fa.jpg,,,,,,,,,,,,,,,
339,13,Memory,6,,,,,,,00245940128fa.jpg,,,,,,,,,,,,,,,
340,13,Memory,6,,,,,,,sunaejnvnpltdmhbcsi.jpg,,,,,,,,,,,,,,,
341,13,Memory,6,,,,,,,00787960620fa.jpg,,,,,,,,,,,,,,,
342,13,Memory,6,,,,,,,sunaenwuebvlpdmntju.jpg,,,,,,,,,,,,,,,
343,13,Memory,6,,,,,,,00742941201fa.jpg,,,,,,,,,,,,,,,
344,13,Memory,6,,,,,,,sunaqgjuuwvdcyiccjt.jpg,,,,,,,,,,,,,,,
345,13,Memory,6,,,,,,,sunabeyhmxodahoieyk.jpg,,,,,,,,,,,,,,,
346,13,Memory,6,,,,,,,00194940128fb.jpg,,,,,,,,,,,,,,,
347,13,Memory,6,,,,,,,00142931230fb.jpg,,,,,,,,,,,,,,,
348,13,Memory,6,,,,,,,00144931230fb.jpg,,,,,,,,,,,,,,,
349,13,Memory,6,,,,,,,sunaanjcbzdvtvblsdy.jpg,,,,,,,,,,,,,,,
350,13,Presentation,7,00089931230fa_sunaagcpoejbuzyvddd.jpg,00908960530fa_sunanwjjyqqwzqrqagd.jpg,00089931230fa.jpg,sunaagcpoejbuzyvddd.jpg,00908960530fa.jpg,sunanwjjyqqwzqrqagd.jpg,,,>,Place,,,,,1,,,,,,,x
351,13,Presentation,7,00929960627fa_sunaprnrbmgkomdbchr.jpg,00127931230fa_sunaampvucecsfbdafn.jpg,00929960627fa.jpg,sunaprnrbmgkomdbchr.jpg,00127931230fa.jpg,sunaampvucecsfbdafn.jpg,,,>,Place,,,,,1,,,,,,,x
352,13,Presentation,7,00763941205fa_sunafhmnhsdurlvddpw.jpg,00498960627fa_sunabzjxlmkwnwzimua.jpg,00763941205fa.jpg,sunafhmnhsdurlvddpw.jpg,00498960627fa.jpg,sunabzjxlmkwnwzimua.jpg,,,<,Face,,,,,1,,,,,,,o
353,13,Presentation,7,00130931230fa_sunaamvxnvouicstkjb.jpg,00997960627fa_sunbtpilbhhbmhmeuzq.jpg,00130931230fa.jpg,sunaamvxnvouicstkjb.jpg,00997960627fa.jpg,sunbtpilbhhbmhmeuzq.jpg,,,<,Face,,,,,1,,,,,,,o
354,13,Presentation,7,00841940307fa_sunaisiwfgppimtnmxl.jpg,01207940128fa_sundbixjudsgeuuehrn.jpg,00841940307fa.jpg,sunaisiwfgppimtnmxl.jpg,01207940128fa.jpg,sundbixjudsgeuuehrn.jpg,,,<,Face,,,,,1,,,,,,,x
355,13,Presentation,7,00900960530fa_sunamlotskmmsjeogby.jpg,00265940128fb_sunabkmdplkdbvxriff.jpg,00900960530fa.jpg,sunamlotskmmsjeogby.jpg,00265940128fb.jpg,sunabkmdplkdbvxriff.jpg,,,>,Face,,,,,1,,,,,,,o
356,13,Presentation,7,00648941031fa_sunadfndyrtqqiasoig.jpg,00775941205fa_sunafvwfsmqkjrutjta.jpg,00648941031fa.jpg,sunadfndyrtqqiasoig.jpg,00775941205fa.jpg,sunafvwfsmqkjrutjta.jpg,,,>,Place,,,,,1,,,,,,,o
357,13,Presentation,7,00741941201fa_sunaemcowdozyphwknd.jpg,00959960627fa_sunavxokzybtomhbmvm.jpg,00741941201fa.jpg,sunaemcowdozyphwknd.jpg,00959960627fa.jpg,sunavxokzybtomhbmvm.jpg,,,<,Place,,,,,1,,,,,,,x
358,13,Presentation,7,00986960627fa_sunbgzjryivyczuvkvm.jpg,00568940928fa_sunacsdhbbsybcyxnel.jpg,00986960627fa.jpg,sunbgzjryivyczuvkvm.jpg,00568940928fa.jpg,sunacsdhbbsybcyxnel.jpg,,,>,Face,,,,,1,,,,,,,x
359,13,Presentation,7,00818940307fa_sunahpblecxtmuzkmxb.jpg,00993960627fa_sunbprywzqxjcezkbch.jpg,00818940307fa.jpg,sunahpblecxtmuzkmxb.jpg,00993960627fa.jpg,sunbprywzqxjcezkbch.jpg,,,<,Place,,,,,1,,,,,,,x
360,13,Memory,7,,,,,,,00648941031fa.jpg,,,,,,,,,,,,,,,
361,13,Memory,7,,,,,,,sunaatpeezlljqaxlhj.jpg,,,,,,,,,,,,,,,
362,13,Memory,7,,,,,,,sunadfndyrtqqiasoig.jpg,,,,,,,,,,,,,,,
363,13,Memory,7,,,,,,,00101931230fb.jpg,,,,,,,,,,,,,,,
364,13,Memory,7,,,,,,,00929960627fa.jpg,,,,,,,,,,,,,,,
365,13,Memory,7,,,,,,,00903960620fa.jpg,,,,,,,,,,,,,,,
366,13,Memory,7,,,,,,,sunanaacmmosxrfwmvl.jpg,,,,,,,,,,,,,,,
367,13,Memory,7,,,,,,,00267940128fb.jpg,,,,,,,,,,,,,,,
368,13,Memory,7,,,,,,,00294940422fb.jpg,,,,,,,,,,,,,,,
369,13,Memory,7,,,,,,,00498960627fa.jpg,,,,,,,,,,,,,,,
370,13,Memory,7,,,,,,,sunaprnrbmgkomdbchr.jpg,,,,,,,,,,,,,,,
371,13,Memory,7,,,,,,,00986960627fa.jpg,,,,,,,,,,,,,,,
372,13,Memory,7,,,,,,,sunbprywzqxjcezkbch.jpg,,,,,,,,,,,,,,,
373,13,Memory,7,,,,,,,00146960620fb.jpg,,,,,,,,,,,,,,,
374,13,Memory,7,,,,,,,sunanwjjyqqwzqrqagd.jpg,,,,,,,,,,,,,,,
375,13,Memory,7,,,,,,,00554940519fa.jpg,,,,,,,,,,,,,,,
376,13,Memory,7,,,,,,,sunaafbmtoniaasysgu.jpg,,,,,,,,,,,,,,,
377,13,Memory,7,,,,,,,00902960530fa.jpg,,,,,,,,,,,,,,,
378,13,Memory,7,,,,,,,sunaamvxnvouicstkjb.jpg,,,,,,,,,,,,,,,
379,13,Memory,7,,,,,,,00073931230fa.jpg,,,,,,,,,,,,,,,
380,13,Memory,7,,,,,,,sunbgzjryivyczuvkvm.jpg,,,,,,,,,,,,,,,
381,13,Memory,7,,,,,,,sunabrlndkruqokhury.jpg,,,,,,,,,,,,,,,
382,13,Memory,7,,,,,,,00908960530fa.jpg,,,,,,,,,,,,,,,
383,13,Memory,7,,,,,,,00568940928fa.jpg,,,,,,,,,,,,,,,
384,13,Memory,7,,,,,,,sunabzjxlmkwnwzimua.jpg,,,,,,,,,,,,,,,
385,13,Memory,7,,,,,,,00130931230fa.jpg,,,,,,,,,,,,,,,
386,13,Memory,7,,,,,,,sunacsdhbbsybcyxnel.jpg,,,,,,,,,,,,,,,
387,13,Memory,7,,,,,,,00741941201fa.jpg,,,,,,,,,,,,,,,
388,13,Memory,7,,,,,,,00880960530fa.jpg,,,,,,,,,,,,,,,
389,13,Memory,7,,,,,,,01207940128fa.jpg,,,,,,,,,,,,,,,
390,13,Memory,7,,,,,,,00149931230fa.jpg,,,,,,,,,,,,,,,
391,13,Memory,7,,,,,,,sunanainkqdvktzoxyl.jpg,,,,,,,,,,,,,,,
392,13,Memory,7,,,,,,,sunaemcowdozyphwknd.jpg,,,,,,,,,,,,,,,
393,13,Memory,7,,,,,,,00993960627fa.jpg,,,,,,,,,,,,,,,
394,13,Memory,7,,,,,,,sunaajqmsaavkmgbsth.jpg,,,,,,,,,,,,,,,
395,13,Memory,7,,,,,,,sunablfqiwfqomjarht.jpg,,,,,,,,,,,,,,,
396,13,Memory,7,,,,,,,sundbixjudsgeuuehrn.jpg,,,,,,,,,,,,,,,
397,13,Memory,7,,,,,,,sunakmnfgklupjijsgf.jpg,,,,,,,,,,,,,,,
398,13,Memory,7,,,,,,,sunacfdkbsrughwqwtt.jpg,,,,,,,,,,,,,,,
399,13,Memory,7,,,,,,,sunaauglwmctnkxyird.jpg,,,,,,,,,,,,,,,
