,Subject,Trial Type,Run,Cued Composite,Uncued Composite,Cued Face,Cued Place,Uncued Face,Uncued Place,Memory Image,Category,Cued Side,Cued Category,Attention Reaction Time (s),Familiarity Reaction Time (s),Familiarity Rating,Attention Level,Cue Validity,Post Invalid Cue,Pre Invalid Cue,Attention Button,Rating History,Stimulus Onset,Stimulus End,Attention Probe
0,27,Presentation,0,00730960620fa_sunaekgzpfilgjxpeyq.jpg,00675941121fa_sunadoxcchtmsxewsau.jpg,00730960620fa.jpg,sunaekgzpfilgjxpeyq.jpg,00675941121fa.jpg,sunadoxcchtmsxewsau.jpg,,,<,Face,,,,,0,,,,,,,o
1,27,Presentation,0,00901960530fa_sunammbnoambmhdxdwd.jpg,00080931230fb_sunaafjszryxyavjzln.jpg,00901960530fa.jpg,sunammbnoambmhdxdwd.jpg,00080931230fb.jpg,sunaafjszryxyavjzln.jpg,,,<,Face,,,,,1,,,,,,,o
2,27,Presentation,0,00505960627fa_sunabzuqsrgcsonqlkz.jpg,00163931230fb_sunaavodbcpygkggnfp.jpg,00505960627fa.jpg,sunabzuqsrgcsonqlkz.jpg,00163931230fb.jpg,sunaavodbcpygkggnfp.jpg,,,<,Face,,,,,1,,,,,,,x
3,27,Presentation,0,00723941201fa_sunaedtgwjvvziytspa.jpg,00978960627fa_sunbddbivbptlrlauhy.jpg,00723941201fa.jpg,sunaedtgwjvvziytspa.jpg,00978960627fa.jpg,sunbddbivbptlrlauhy.jpg,,,<,Face,,,,,1,,,,,,,x
4,27,Presentation,0,00944960627fa_sunasbbntuiheekqyaq.jpg,00742941201fa_sunaenwuebvlpdmntju.jpg,00944960627fa.jpg,sunasbbntuiheekqyaq.jpg,00742941201fa.jpg,sunaenwuebvlpdmntju.jpg,,,<,Face,,,,,1,,,,,,,x
5,27,Presentation,0,00986960627fa_sunbgzjryivyczuvkvm.jpg,00990960627fa_sunbpflsdaxnddnwcqi.jpg,00986960627fa.jpg,sunbgzjryivyczuvkvm.jpg,00990960627fa.jpg,sunbpflsdaxnddnwcqi.jpg,,,<,Face,,,,,1,,,,,,,x
6,27,Presentation,0,00700941121fa_sunadsgmtznewzyasnk.jpg,00130931230fa_sunaamvxnvouicstkjb.jpg,00700941121fa.jpg,sunadsgmtznewzyasnk.jpg,00130931230fa.jpg,sunaamvxnvouicstkjb.jpg,,,<,Face,,,,,1,,,,,,,o
7,27,Presentation,0,00096931230fa_sunaaiqiqcggrskoqgy.jpg,00805941205fa_sunagwzdbtlixdhgolm.jpg,00096931230fa.jpg,sunaaiqiqcggrskoqgy.jpg,00805941205fa.jpg,sunagwzdbtlixdhgolm.jpg,,,<,Face,,,,,0,,,,,,,x
8,27,Presentation,0,00984960627fa_sunbfzchmomnvzhbxdg.jpg,00983960627fa_sunbfyvfqiimvdaxlqn.jpg,00984960627fa.jpg,sunbfzchmomnvzhbxdg.jpg,00983960627fa.jpg,sunbfyvfqiimvdaxlqn.jpg,,,<,Face,,,,,0,,,,,,,o
9,27,Presentation,0,00771941205fa_sunafowswglhxcsufpo.jpg,00768941205fa_sunafkmnlytenlsywia.jpg,00771941205fa.jpg,sunafowswglhxcsufpo.jpg,00768941205fa.jpg,sunafkmnlytenlsywia.jpg,,,<,Face,,,,,1,,,,,,,x
10,27,Memory,0,,,,,,,00901960530fa.jpg,,,,,,,,,,,,,,,
11,27,Memory,0,,,,,,,sunapqwnqzxlsfvgsjm.jpg,,,,,,,,,,,,,,,
12,27,Memory,0,,,,,,,00983960627fa.jpg,,,,,,,,,,,,,,,
13,27,Memory,0,,,,,,,00979960627fa.jpg,,,,,,,,,,,,,,,
14,27,Memory,0,,,,,,,sunbfyvfqiimvdaxlqn.jpg,,,,,,,,,,,,,,,
15,27,Memory,0,,,,,,,00262940128fa.jpg,,,,,,,,,,,,,,,
16,27,Memory,0,,,,,,,00768941205fa.jpg,,,,,,,,,,,,,,,
17,27,Memory,0,,,,,,,sunaahedjlmtqekgyvj.jpg,,,,,,,,,,,,,,,
18,27,Memory,0,,,,,,,00978960627fa.jpg,,,,,,,,,,,,,,,
19,27,Memory,0,,,,,,,sunapwjkcxdaeqehfql.jpg,,,,,,,,,,,,,,,
20,27,Memory,0,,,,,,,00984960627fa.jpg,,,,,,,,,,,,,,,
21,27,Memory,0,,,,,,,sunagjzcrjvmxzqzljx.jpg,,,,,,,,,,,,,,,
22,27,Memory,0,,,,,,,sunabjzyxcjnmztdonj.jpg,,,,,,,,,,,,,,,
23,27,Memory,0,,,,,,,sunafkmnlytenlsywia.jpg,,,,,,,,,,,,,,,
24,27,Memory,0,,,,,,,sunasbbntuiheekqyaq.jpg,,,,,,,,,,,,,,,
25,27,Memory,0,,,,,,,00944960627fa.jpg,,,,,,,,,,,,,,,
26,27,Memory,0,,,,,,,00989960627fa.jpg,,,,,,,,,,,,,,,
27,27,Memory,0,,,,,,,00700941121fa.jpg,,,,,,,,,,,,,,,
28,27,Memory,0,,,,,,,sunadoxcchtmsxewsau.jpg,,,,,,,,,,,,,,,
29,27,Memory,0,,,,,,,00264940128fb.jpg,,,,,,,,,,,,,,,
30,27,Memory,0,,,,,,,sunbondbduabvijnmch.jpg,,,,,,,,,,,,,,,
31,27,Memory,0,,,,,,,sunbddbivbptlrlauhy.jpg,,,,,,,,,,,,,,,
32,27,Memory,0,,,,,,,00925960627fa.jpg,,,,,,,,,,,,,,,
33,27,Memory,0,,,,,,,00296940422fa.jpg,,,,,,,,,,,,,,,
34,27,Memory,0,,,,,,,sunaafjszryxyavjzln.jpg,,,,,,,,,,,,,,,
35,27,Memory,0,,,,,,,sunbdycacjfaujxitbw.jpg,,,,,,,,,,,,,,,
36,27,Memory,0,,,,,,,sunbfzchmomnvzhbxdg.jpg,,,,,,,,,,,,,,,
37,27,Memory,0,,,,,,,sunabrwnslxalcohfre.jpg,,,,,,,,,,,,,,,
38,27,Memory,0,,,,,,,sunaaiqiqcggrskoqgy.jpg,,,,,,,,,,,,,,,
39,27,Memory,0,,,,,,,00090931230fa.jpg,,,,,,,,,,,,,,,
40,27,Memory,0,,,,,,,00096931230fa.jpg,,,,,,,,,,,,,,,
41,27,Memory,0,,,,,,,00675941121fa.jpg,,,,,,,,,,,,,,,
42,27,Memory,0,,,,,,,00080931230fb.jpg,,,,,,,,,,,,,,,
43,27,Memory,0,,,,,,,sunammbnoambmhdxdwd.jpg,,,,,,,,,,,,,,,
44,27,Memory,0,,,,,,,sunafgzgbisbopcyslr.jpg,,,,,,,,,,,,,,,
45,27,Memory,0,,,,,,,00933960627fa.jpg,,,,,,,,,,,,,,,
46,27,Memory,0,,,,,,,00784941205fb.jpg,,,,,,,,,,,,,,,
47,27,Memory,0,,,,,,,00762941201fa.jpg,,,,,,,,,,,,,,,
48,27,Memory,0,,,,,,,sunadsgmtznewzyasnk.jpg,,,,,,,,,,,,,,,
49,27,Memory,0,,,,,,,sunabizydfotqddlnjp.jpg,,,,,,,,,,,,,,,
50,27,Presentation,1,00109931230fa_sunaajuzribjrizdshh.jpg,00903960620fa_sunanainkqdvktzoxyl.jpg,00109931230fa.jpg,sunaajuzribjrizdshh.jpg,00903960620fa.jpg,sunanainkqdvktzoxyl.jpg,,,>,Place,,,,,0,,,,,,,o
51,27,Presentation,1,00744941201fa_sunaeomlfaabhpswasy.jpg,00997960627fa_sunbtpilbhhbmhmeuzq.jpg,00744941201fa.jpg,sunaeomlfaabhpswasy.jpg,00997960627fa.jpg,sunbtpilbhhbmhmeuzq.jpg,,,>,Place,,,,,1,,,,,,,x
52,27,Presentation,1,00960960627fa_sunawksfbacycuhbrsc.jpg,00694941121fa_sunadrmfzmstgdjdcod.jpg,00960960627fa.jpg,sunawksfbacycuhbrsc.jpg,00694941121fa.jpg,sunadrmfzmstgdjdcod.jpg,,,>,Place,,,,,1,,,,,,,x
53,27,Presentation,1,00498960627fa_sunabzjxlmkwnwzimua.jpg,00097931230fa_sunaajayojuslbbnneg.jpg,00498960627fa.jpg,sunabzjxlmkwnwzimua.jpg,00097931230fa.jpg,sunaajayojuslbbnneg.jpg,,,>,Place,,,,,1,,,,,,,x
54,27,Presentation,1,00239940128fa_sunabctlikybqabezjv.jpg,00900960530fa_sunamlotskmmsjeogby.jpg,00239940128fa.jpg,sunabctlikybqabezjv.jpg,00900960530fa.jpg,sunamlotskmmsjeogby.jpg,,,>,Place,,,,,1,,,,,,,o
55,27,Presentation,1,00791941205fa_sunagrmyoovzukhxmlo.jpg,00119931230fb_sunaakvmbftkrgqhjun.jpg,00791941205fa.jpg,sunagrmyoovzukhxmlo.jpg,00119931230fb.jpg,sunaakvmbftkrgqhjun.jpg,,,>,Place,,,,,1,,,,,,,x
56,27,Presentation,1,00060931230fa_sunaaehaikpckyjsety.jpg,00746941201fa_sunaetydippjxikifsb.jpg,00060931230fa.jpg,sunaaehaikpckyjsety.jpg,00746941201fa.jpg,sunaetydippjxikifsb.jpg,,,>,Place,,,,,0,,,,,,,o
57,27,Presentation,1,00866940307fa_sunajbwkywmsqkldfml.jpg,00902960530fa_sunanaacmmosxrfwmvl.jpg,00866940307fa.jpg,sunajbwkywmsqkldfml.jpg,00902960530fa.jpg,sunanaacmmosxrfwmvl.jpg,,,>,Place,,,,,1,,,,,,,o
58,27,Presentation,1,00773960620fa_sunafvsxtzaizojicxx.jpg,00889960530fa_sunaletopenvvozhpxc.jpg,00773960620fa.jpg,sunafvsxtzaizojicxx.jpg,00889960530fa.jpg,sunaletopenvvozhpxc.jpg,,,>,Place,,,,,1,,,,,,,o
59,27,Presentation,1,00884960530fa_sunakodkcslgqhqlgwl.jpg,00943960627fa_sunarpsxqkduedrrzyi.jpg,00884960530fa.jpg,sunakodkcslgqhqlgwl.jpg,00943960627fa.jpg,sunarpsxqkduedrrzyi.jpg,,,>,Place,,,,,1,,,,,,,x
60,27,Memory,1,,,,,,,sunaetydippjxikifsb.jpg,,,,,,,,,,,,,,,
61,27,Memory,1,,,,,,,00125931230fa.jpg,,,,,,,,,,,,,,,
62,27,Memory,1,,,,,,,sunabzjxlmkwnwzimua.jpg,,,,,,,,,,,,,,,
63,27,Memory,1,,,,,,,sunabclssnoeuigtawp.jpg,,,,,,,,,,,,,,,
64,27,Memory,1,,,,,,,sunaajayojuslbbnneg.jpg,,,,,,,,,,,,,,,
65,27,Memory,1,,,,,,,00119931230fb.jpg,,,,,,,,,,,,,,,
66,27,Memory,1,,,,,,,00793941205fa.jpg,,,,,,,,,,,,,,,
67,27,Memory,1,,,,,,,00871940307.jpg,,,,,,,,,,,,,,,
68,27,Memory,1,,,,,,,00910960530fa.jpg,,,,,,,,,,,,,,,
69,27,Memory,1,,,,,,,sunamkmeblgteyggink.jpg,,,,,,,,,,,,,,,
70,27,Memory,1,,,,,,,00239940128fa.jpg,,,,,,,,,,,,,,,
71,27,Memory,1,,,,,,,00898960530fa.jpg,,,,,,,,,,,,,,,
72,27,Memory,1,,,,,,,00746941201fa.jpg,,,,,,,,,,,,,,,
73,27,Memory,1,,,,,,,sunarpsxqkduedrrzyi.jpg,,,,,,,,,,,,,,,
74,27,Memory,1,,,,,,,sunbtpilbhhbmhmeuzq.jpg,,,,,,,,,,,,,,,
75,27,Memory,1,,,,,,,sunaavjinpnkappuonm.jpg,,,,,,,,,,,,,,,
76,27,Memory,1,,,,,,,00109931230fa.jpg,,,,,,,,,,,,,,,
77,27,Memory,1,,,,,,,00939960627fa.jpg,,,,,,,,,,,,,,,
78,27,Memory,1,,,,,,,00744941201fa.jpg,,,,,,,,,,,,,,,
79,27,Memory,1,,,,,,,00162931230fb.jpg,,,,,,,,,,,,,,,
80,27,Memory,1,,,,,,,00498960627fa.jpg,,,,,,,,,,,,,,,
81,27,Memory,1,,,,,,,sunaakvmbftkrgqhjun.jpg,,,,,,,,,,,,,,,
82,27,Memory,1,,,,,,,00097931230fa.jpg,,,,,,,,,,,,,,,
83,27,Memory,1,,,,,,,sunaalltyvjhbzhkmvg.jpg,,,,,,,,,,,,,,,
84,27,Memory,1,,,,,,,sunagtjwilqjvxohypn.jpg,,,,,,,,,,,,,,,
85,27,Memory,1,,,,,,,sunabctlikybqabezjv.jpg,,,,,,,,,,,,,,,
86,27,Memory,1,,,,,,,sunarceibpcyacbmfga.jpg,,,,,,,,,,,,,,,
87,27,Memory,1,,,,,,,sunaatpeezlljqaxlhj.jpg,,,,,,,,,,,,,,,
88,27,Memory,1,,,,,,,00747941201fa.jpg,,,,,,,,,,,,,,,
89,27,Memory,1,,,,,,,00146960620fb.jpg,,,,,,,,,,,,,,,
90,27,Memory,1,,,,,,,00943960627fa.jpg,,,,,,,,,,,,,,,
91,27,Memory,1,,,,,,,sunaajuzribjrizdshh.jpg,,,,,,,,,,,,,,,
92,27,Memory,1,,,,,,,00235940128fb.jpg,,,,,,,,,,,,,,,
93,27,Memory,1,,,,,,,00060931230fa.jpg,,,,,,,,,,,,,,,
94,27,Memory,1,,,,,,,sunaeutbrtswvsozxyk.jpg,,,,,,,,,,,,,,,
95,27,Memory,1,,,,,,,00997960627fa.jpg,,,,,,,,,,,,,,,
96,27,Memory,1,,,,,,,sunaaehaikpckyjsety.jpg,,,,,,,,,,,,,,,
97,27,Memory,1,,,,,,,sunaofikylqtxphvdem.jpg,,,,,,,,,,,,,,,
98,27,Memory,1,,,,,,,sunajrujcsdxmfbssmc.jpg,,,,,,,,,,,,,,,
99,27,Memory,1,,,,,,,sunaeomlfaabhpswasy.jpg,,,,,,,,,,,,,,,
100,27,Presentation,2,00562941031fa_sunacjnahdmqfnjfwqx.jpg,00809960620fa_sunahbvlpavurqoxdeq.jpg,00562941031fa.jpg,sunacjnahdmqfnjfwqx.jpg,00809960620fa.jpg,sunahbvlpavurqoxdeq.jpg,,,<,Face,,,,,1,,,,,,,x
101,27,Presentation,2,00483940519fa_sunabyvpwkgsjtijdwj.jpg,00564941031fa_sunacsaovnjezqwbykf.jpg,00483940519fa.jpg,sunabyvpwkgsjtijdwj.jpg,00564941031fa.jpg,sunacsaovnjezqwbykf.jpg,,,<,Face,,,,,1,,,,,,,x
102,27,Presentation,2,00929960627fa_sunaprnrbmgkomdbchr.jpg,00131931230fb_sunaangbuylfvckqqoo.jpg,00929960627fa.jpg,sunaprnrbmgkomdbchr.jpg,00131931230fb.jpg,sunaangbuylfvckqqoo.jpg,,,<,Face,,,,,1,,,,,,,x
103,27,Presentation,2,00835940307fa_sunaijsqpvodplbwxkf.jpg,00144931230fb_sunaathajvxrgptwhoj.jpg,00835940307fa.jpg,sunaijsqpvodplbwxkf.jpg,00144931230fb.jpg,sunaathajvxrgptwhoj.jpg,,,<,Face,,,,,1,,,,,,,o
104,27,Presentation,2,00719941201fa_sunadvithllcgmfxsrn.jpg,00818940307fa_sunahpblecxtmuzkmxb.jpg,00719941201fa.jpg,sunadvithllcgmfxsrn.jpg,00818940307fa.jpg,sunahpblecxtmuzkmxb.jpg,,,<,Face,,,,,1,,,,,,,x
105,27,Presentation,2,00957960627fa_sunavhxgmgrqsaptynb.jpg,00770941201fa_sunaflojskatpeqyzqp.jpg,00957960627fa.jpg,sunavhxgmgrqsaptynb.jpg,00770941201fa.jpg,sunaflojskatpeqyzqp.jpg,,,<,Face,,,,,1,,,,,,,o
106,27,Presentation,2,00891960530fa_sunalkiibhqpxfamlll.jpg,00819940307fa_sunahqldjibofgsfdgb.jpg,00891960530fa.jpg,sunalkiibhqpxfamlll.jpg,00819940307fa.jpg,sunahqldjibofgsfdgb.jpg,,,<,Face,,,,,1,,,,,,,x
107,27,Presentation,2,00892960530fa_sunalntxqqadigcletd.jpg,00894960620fa_sunalqmfgeadpqsyzpd.jpg,00892960530fa.jpg,sunalntxqqadigcletd.jpg,00894960620fa.jpg,sunalqmfgeadpqsyzpd.jpg,,,<,Face,,,,,1,,,,,,,o
108,27,Presentation,2,00857940307fa_sunaiwfobocrruqznsv.jpg,00947960627fa_sunasmmcxdddtmtazwx.jpg,00857940307fa.jpg,sunaiwfobocrruqznsv.jpg,00947960627fa.jpg,sunasmmcxdddtmtazwx.jpg,,,<,Face,,,,,1,,,,,,,o
109,27,Presentation,2,00827940307fa_sunahtfxgsrmkiulnwk.jpg,00834940307fa_sunaibnpvhkdpdnzcnz.jpg,00827940307fa.jpg,sunahtfxgsrmkiulnwk.jpg,00834940307fa.jpg,sunaibnpvhkdpdnzcnz.jpg,,,<,Face,,,,,1,,,,,,,o
110,27,Memory,2,,,,,,,00809960620fa.jpg,,,,,,,,,,,,,,,
111,27,Memory,2,,,,,,,00543940519fa.jpg,,,,,,,,,,,,,,,
112,27,Memory,2,,,,,,,sunaanptmsknhirrzed.jpg,,,,,,,,,,,,,,,
113,27,Memory,2,,,,,,,sunaprnrbmgkomdbchr.jpg,,,,,,,,,,,,,,,
114,27,Memory,2,,,,,,,sunbxzweleltykebgan.jpg,,,,,,,,,,,,,,,
115,27,Memory,2,,,,,,,00812941205fa.jpg,,,,,,,,,,,,,,,
116,27,Memory,2,,,,,,,sunahbvlpavurqoxdeq.jpg,,,,,,,,,,,,,,,
117,27,Memory,2,,,,,,,00779941205fa.jpg,,,,,,,,,,,,,,,
118,27,Memory,2,,,,,,,00891960530fa.jpg,,,,,,,,,,,,,,,
119,27,Memory,2,,,,,,,00770941201fa.jpg,,,,,,,,,,,,,,,
120,27,Memory,2,,,,,,,00835940307fa.jpg,,,,,,,,,,,,,,,
121,27,Memory,2,,,,,,,00929960627fa.jpg,,,,,,,,,,,,,,,
122,27,Memory,2,,,,,,,01009960627fa.jpg,,,,,,,,,,,,,,,
123,27,Memory,2,,,,,,,sunacuatpqpqhyjhjqk.jpg,,,,,,,,,,,,,,,
124,27,Memory,2,,,,,,,sunabbafjowbzcvbucc.jpg,,,,,,,,,,,,,,,
125,27,Memory,2,,,,,,,sunalntxqqadigcletd.jpg,,,,,,,,,,,,,,,
126,27,Memory,2,,,,,,,sunalqmfgeadpqsyzpd.jpg,,,,,,,,,,,,,,,
127,27,Memory,2,,,,,,,sunaaftlyfudyzuhqzf.jpg,,,,,,,,,,,,,,,
128,27,Memory,2,,,,,,,sunaijsqpvodplbwxkf.jpg,,,,,,,,,,,,,,,
129,27,Memory,2,,,,,,,00921960627fa.jpg,,,,,,,,,,,,,,,
130,27,Memory,2,,,,,,,00892960530fa.jpg,,,,,,,,,,,,,,,
131,27,Memory,2,,,,,,,00857940307fa.jpg,,,,,,,,,,,,,,,
132,27,Memory,2,,,,,,,00819940307fa.jpg,,,,,,,,,,,,,,,
133,27,Memory,2,,,,,,,sunaiwfobocrruqznsv.jpg,,,,,,,,,,,,,,,
134,27,Memory,2,,,,,,,sunaflojskatpeqyzqp.jpg,,,,,,,,,,,,,,,
135,27,Memory,2,,,,,,,sunacepzfrmtkiqonpy.jpg,,,,,,,,,,,,,,,
136,27,Memory,2,,,,,,,00799941205fa.jpg,,,,,,,,,,,,,,,
137,27,Memory,2,,,,,,,00214940128fa.jpg,,,,,,,,,,,,,,,
138,27,Memory,2,,,,,,,00894960620fa.jpg,,,,,,,,,,,,,,,
139,27,Memory,2,,,,,,,sunapqkpqdfvxlbqwyo.jpg,,,,,,,,,,,,,,,
140,27,Memory,2,,,,,,,sunagutjvdvnhxejerz.jpg,,,,,,,,,,,,,,,
141,27,Memory,2,,,,,,,sunahpblecxtmuzkmxb.jpg,,,,,,,,,,,,,,,
142,27,Memory,2,,,,,,,00818940307fa.jpg,,,,,,,,,,,,,,,
143,27,Memory,2,,,,,,,00136931230fb.jpg,,,,,,,,,,,,,,,
144,27,Memory,2,,,,,,,00571940928fa.jpg,,,,,,,,,,,,,,,
145,27,Memory,2,,,,,,,sunalkiibhqpxfamlll.jpg,,,,,,,,,,,,,,,
146,27,Memory,2,,,,,,,00081941031fa.jpg,,,,,,,,,,,,,,,
147,27,Memory,2,,,,,,,sunagdzlvkqtpnfxfcg.jpg,,,,,,,,,,,,,,,
148,27,Memory,2,,,,,,,sunahgtbwgsmtqeodwh.jpg,,,,,,,,,,,,,,,
149,27,Memory,2,,,,,,,sunahqldjibofgsfdgb.jpg,,,,,,,,,,,,,,,
150,27,Presentation,3,00208940128fa_sunaazzyhbvqjpmazjq.jpg,00807941205fa_sunahawfngukizslzsd.jpg,00208940128fa.jpg,sunaazzyhbvqjpmazjq.jpg,00807941205fa.jpg,sunahawfngukizslzsd.jpg,,,>,Place,,,,,1,,,,,,,o
151,27,Presentation,3,00935960627fa_sunaqbmgkgqucajzrkp.jpg,00728941205fa_sunaejnvnpltdmhbcsi.jpg,00935960627fa.jpg,sunaqbmgkgqucajzrkp.jpg,00728941205fa.jpg,sunaejnvnpltdmhbcsi.jpg,,,>,Place,,,,,1,,,,,,,x
152,27,Presentation,3,00959960627fa_sunavxokzybtomhbmvm.jpg,00993960627fa_sunbprywzqxjcezkbch.jpg,00959960627fa.jpg,sunavxokzybtomhbmvm.jpg,00993960627fa.jpg,sunbprywzqxjcezkbch.jpg,,,>,Place,,,,,1,,,,,,,o
153,27,Presentation,3,00089931230fa_sunaagcpoejbuzyvddd.jpg,00895960530fa_sunamczizlzavhzhpay.jpg,00089931230fa.jpg,sunaagcpoejbuzyvddd.jpg,00895960530fa.jpg,sunamczizlzavhzhpay.jpg,,,>,Place,,,,,1,,,,,,,x
154,27,Presentation,3,00725941201fa_sunaefgzwiramypjvtd.jpg,00774941201fa_sunafvtpfczkzopbgue.jpg,00725941201fa.jpg,sunaefgzwiramypjvtd.jpg,00774941201fa.jpg,sunafvtpfczkzopbgue.jpg,,,>,Place,,,,,1,,,,,,,o
155,27,Presentation,3,00540940519fa_sunacdnquypmsshhsbk.jpg,00777941205fa_sunagcinxkccdtrjmlv.jpg,00540940519fa.jpg,sunacdnquypmsshhsbk.jpg,00777941205fa.jpg,sunagcinxkccdtrjmlv.jpg,,,>,Place,,,,,1,,,,,,,o
156,27,Presentation,3,00749941201fa_sunaeuvjbmdpknaqqaj.jpg,00308940422fb_sunabwfvcqqidycwypa.jpg,00749941201fa.jpg,sunaeuvjbmdpknaqqaj.jpg,00308940422fb.jpg,sunabwfvcqqidycwypa.jpg,,,>,Place,,,,,0,,,,,,,o
157,27,Presentation,3,00650941031fa_sunadikxpvqeabxrvvc.jpg,00950960627fa_sunasrjlmglmjzbmqxb.jpg,00650941031fa.jpg,sunadikxpvqeabxrvvc.jpg,00950960627fa.jpg,sunasrjlmglmjzbmqxb.jpg,,,>,Place,,,,,1,,,,,,,x
158,27,Presentation,3,00973960627fa_sunbbgtoeuzierkkajt.jpg,00290940422fa_sunabqowuarvqqcnipn.jpg,00973960627fa.jpg,sunbbgtoeuzierkkajt.jpg,00290940422fa.jpg,sunabqowuarvqqcnipn.jpg,,,>,Place,,,,,1,,,,,,,x
159,27,Presentation,3,00662941121fa_sunadkazmlajmohnwfl.jpg,00568940928fa_sunacsdhbbsybcyxnel.jpg,00662941121fa.jpg,sunadkazmlajmohnwfl.jpg,00568940928fa.jpg,sunacsdhbbsybcyxnel.jpg,,,>,Place,,,,,1,,,,,,,x
160,27,Memory,3,,,,,,,00540940519fa.jpg,,,,,,,,,,,,,,,
161,27,Memory,3,,,,,,,sunantryfbloeaomfta.jpg,,,,,,,,,,,,,,,
162,27,Memory,3,,,,,,,00650941031fa.jpg,,,,,,,,,,,,,,,
163,27,Memory,3,,,,,,,00749941201fa.jpg,,,,,,,,,,,,,,,
164,27,Memory,3,,,,,,,00895960530fa.jpg,,,,,,,,,,,,,,,
165,27,Memory,3,,,,,,,sunabxmguapjekttvwm.jpg,,,,,,,,,,,,,,,
166,27,Memory,3,,,,,,,sunabcfpwlpolnutyju.jpg,,,,,,,,,,,,,,,
167,27,Memory,3,,,,,,,sunbbgtoeuzierkkajt.jpg,,,,,,,,,,,,,,,
168,27,Memory,3,,,,,,,00807941205fa.jpg,,,,,,,,,,,,,,,
169,27,Memory,3,,,,,,,00777941205fa.jpg,,,,,,,,,,,,,,,
170,27,Memory,3,,,,,,,sunadikxpvqeabxrvvc.jpg,,,,,,,,,,,,,,,
171,27,Memory,3,,,,,,,sunaeuvjbmdpknaqqaj.jpg,,,,,,,,,,,,,,,
172,27,Memory,3,,,,,,,00271940422fa.jpg,,,,,,,,,,,,,,,
173,27,Memory,3,,,,,,,00878960530fa.jpg,,,,,,,,,,,,,,,
174,27,Memory,3,,,,,,,sunabmbnddafmywtjjj.jpg,,,,,,,,,,,,,,,
175,27,Memory,3,,,,,,,00955960627fb.jpg,,,,,,,,,,,,,,,
176,27,Memory,3,,,,,,,00288940422fa.jpg,,,,,,,,,,,,,,,
177,27,Memory,3,,,,,,,sunagmwxxwymwojbvgi.jpg,,,,,,,,,,,,,,,
178,27,Memory,3,,,,,,,sunaisiwfgppimtnmxl.jpg,,,,,,,,,,,,,,,
179,27,Memory,3,,,,,,,00120931230fa.jpg,,,,,,,,,,,,,,,
180,27,Memory,3,,,,,,,sunauburywlkjszngcq.jpg,,,,,,,,,,,,,,,
181,27,Memory,3,,,,,,,sunaejnvnpltdmhbcsi.jpg,,,,,,,,,,,,,,,
182,27,Memory,3,,,,,,,00841940307fa.jpg,,,,,,,,,,,,,,,
183,27,Memory,3,,,,,,,00089931230fa.jpg,,,,,,,,,,,,,,,
184,27,Memory,3,,,,,,,00774941201fa.jpg,,,,,,,,,,,,,,,
185,27,Memory,3,,,,,,,00787941205fa.jpg,,,,,,,,,,,,,,,
186,27,Memory,3,,,,,,,sunaagcpoejbuzyvddd.jpg,,,,,,,,,,,,,,,
187,27,Memory,3,,,,,,,sunafvtpfczkzopbgue.jpg,,,,,,,,,,,,,,,
188,27,Memory,3,,,,,,,00221940128fa.jpg,,,,,,,,,,,,,,,
189,27,Memory,3,,,,,,,00728941205fa.jpg,,,,,,,,,,,,,,,
190,27,Memory,3,,,,,,,00906960530fa.jpg,,,,,,,,,,,,,,,
191,27,Memory,3,,,,,,,sunagcinxkccdtrjmlv.jpg,,,,,,,,,,,,,,,
192,27,Memory,3,,,,,,,sunacdnquypmsshhsbk.jpg,,,,,,,,,,,,,,,
193,27,Memory,3,,,,,,,sunabppokiyglaxpcha.jpg,,,,,,,,,,,,,,,
194,27,Memory,3,,,,,,,sunamczizlzavhzhpay.jpg,,,,,,,,,,,,,,,
195,27,Memory,3,,,,,,,sunaakxgygjfqrzpyoz.jpg,,,,,,,,,,,,,,,
196,27,Memory,3,,,,,,,00316940422fa.jpg,,,,,,,,,,,,,,,
197,27,Memory,3,,,,,,,sunakgbnzxmfohgehnu.jpg,,,,,,,,,,,,,,,
198,27,Memory,3,,,,,,,sunahawfngukizslzsd.jpg,,,,,,,,,,,,,,,
199,27,Memory,3,,,,,,,00973960627fa.jpg,,,,,,,,,,,,,,,
200,27,Presentation,4,00719960620fa_sunadzuvtmtmgupotmf.jpg,00663941121fa_sunadnjjzohjhbohlwq.jpg,00719960620fa.jpg,sunadzuvtmtmgupotmf.jpg,00663941121fa.jpg,sunadnjjzohjhbohlwq.jpg,,,<,Place,,,,,1,,,,,,,x
201,27,Presentation,4,00302940422fa_sunabtlfmiwtljmoues.jpg,00785941205fa_sunaglqunwuycxydmyu.jpg,00302940422fa.jpg,sunabtlfmiwtljmoues.jpg,00785941205fa.jpg,sunaglqunwuycxydmyu.jpg,,,<,Place,,,,,1,,,,,,,x
202,27,Presentation,4,00952960627fa_sunathzzbcwjykldrem.jpg,00227940128fa_sunabckqabszusgcykj.jpg,00952960627fa.jpg,sunathzzbcwjykldrem.jpg,00227940128fa.jpg,sunabckqabszusgcykj.jpg,,,<,Place,,,,,1,,,,,,,o
203,27,Presentation,4,00780960530fa_sunagetqixeypsysbpn.jpg,00127931230fa_sunaampvucecsfbdafn.jpg,00780960530fa.jpg,sunagetqixeypsysbpn.jpg,00127931230fa.jpg,sunaampvucecsfbdafn.jpg,,,<,Place,,,,,1,,,,,,,x
204,27,Presentation,4,00795941205fa_sunagtumacdlmciqamz.jpg,00727941205fa_sunaeisnjeetzmkbuad.jpg,00795941205fa.jpg,sunagtumacdlmciqamz.jpg,00727941205fa.jpg,sunaeisnjeetzmkbuad.jpg,,,<,Place,,,,,1,,,,,,,o
205,27,Presentation,4,01000960627fa_sunbvzmgrdvaakxusbu.jpg,00977960627fa_sunbbxkanhzjgbwyxqs.jpg,01000960627fa.jpg,sunbvzmgrdvaakxusbu.jpg,00977960627fa.jpg,sunbbxkanhzjgbwyxqs.jpg,,,<,Place,,,,,1,,,,,,,x
206,27,Presentation,4,00810941205fa_sunahctntqrunhdxhtb.jpg,00126931230fb_sunaamdjwemxpmmtypi.jpg,00810941205fa.jpg,sunahctntqrunhdxhtb.jpg,00126931230fb.jpg,sunaamdjwemxpmmtypi.jpg,,,<,Place,,,,,1,,,,,,,x
207,27,Presentation,4,00129931230fb_sunaamsdyakblkfoydx.jpg,00634940928fa_sunadcphrizvfpljiqt.jpg,00129931230fb.jpg,sunaamsdyakblkfoydx.jpg,00634940928fa.jpg,sunadcphrizvfpljiqt.jpg,,,<,Place,,,,,1,,,,,,,x
208,27,Presentation,4,00184940128fa_sunaavtbadenwnzeutj.jpg,00630941031fa_sunadakkdovnuzlycvp.jpg,00184940128fa.jpg,sunaavtbadenwnzeutj.jpg,00630941031fa.jpg,sunadakkdovnuzlycvp.jpg,,,<,Place,,,,,1,,,,,,,x
209,27,Presentation,4,00914960620fa_sunaozisvwfbmlkfhzv.jpg,00976960627fa_sunbbhqyyzmsxhsbjmp.jpg,00914960620fa.jpg,sunaozisvwfbmlkfhzv.jpg,00976960627fa.jpg,sunbbhqyyzmsxhsbjmp.jpg,,,<,Place,,,,,1,,,,,,,o
210,27,Memory,4,,,,,,,sunagwswhkvnsmuszlz.jpg,,,,,,,,,,,,,,,
211,27,Memory,4,,,,,,,sunajoveqhiprwqgoco.jpg,,,,,,,,,,,,,,,
212,27,Memory,4,,,,,,,sunaeisnjeetzmkbuad.jpg,,,,,,,,,,,,,,,
213,27,Memory,4,,,,,,,sunaguchqqnrtodtezq.jpg,,,,,,,,,,,,,,,
214,27,Memory,4,,,,,,,00127931230fa.jpg,,,,,,,,,,,,,,,
215,27,Memory,4,,,,,,,00869940307fa.jpg,,,,,,,,,,,,,,,
216,27,Memory,4,,,,,,,00548940519fa.jpg,,,,,,,,,,,,,,,
217,27,Memory,4,,,,,,,00800941205fb.jpg,,,,,,,,,,,,,,,
218,27,Memory,4,,,,,,,00482940519fa.jpg,,,,,,,,,,,,,,,
219,27,Memory,4,,,,,,,00796941205fa.jpg,,,,,,,,,,,,,,,
220,27,Memory,4,,,,,,,sunathzzbcwjykldrem.jpg,,,,,,,,,,,,,,,
221,27,Memory,4,,,,,,,00804960530fa.jpg,,,,,,,,,,,,,,,
222,27,Memory,4,,,,,,,00663941121fa.jpg,,,,,,,,,,,,,,,
223,27,Memory,4,,,,,,,sunahctntqrunhdxhtb.jpg,,,,,,,,,,,,,,,
224,27,Memory,4,,,,,,,00276940422fa.jpg,,,,,,,,,,,,,,,
225,27,Memory,4,,,,,,,sunacerqowiaeoqkmsq.jpg,,,,,,,,,,,,,,,
226,27,Memory,4,,,,,,,00576941031fa.jpg,,,,,,,,,,,,,,,
227,27,Memory,4,,,,,,,00727941205fa.jpg,,,,,,,,,,,,,,,
228,27,Memory,4,,,,,,,00630941031fa.jpg,,,,,,,,,,,,,,,
229,27,Memory,4,,,,,,,sunbmaiocftdtvnzgap.jpg,,,,,,,,,,,,,,,
230,27,Memory,4,,,,,,,00302940422fa.jpg,,,,,,,,,,,,,,,
231,27,Memory,4,,,,,,,sunagtumacdlmciqamz.jpg,,,,,,,,,,,,,,,
232,27,Memory,4,,,,,,,sunacvjlsylseoghjup.jpg,,,,,,,,,,,,,,,
233,27,Memory,4,,,,,,,00914960620fa.jpg,,,,,,,,,,,,,,,
234,27,Memory,4,,,,,,,00848940307fa.jpg,,,,,,,,,,,,,,,
235,27,Memory,4,,,,,,,00976960627fa.jpg,,,,,,,,,,,,,,,
236,27,Memory,4,,,,,,,sunabyfxcxhdebvdyfd.jpg,,,,,,,,,,,,,,,
237,27,Memory,4,,,,,,,sunaozisvwfbmlkfhzv.jpg,,,,,,,,,,,,,,,
238,27,Memory,4,,,,,,,sunadnjjzohjhbohlwq.jpg,,,,,,,,,,,,,,,
239,27,Memory,4,,,,,,,sunabmytpyhsgigllxu.jpg,,,,,,,,,,,,,,,
240,27,Memory,4,,,,,,,sunbbhqyyzmsxhsbjmp.jpg,,,,,,,,,,,,,,,
241,27,Memory,4,,,,,,,00810941205fa.jpg,,,,,,,,,,,,,,,
242,27,Memory,4,,,,,,,sunaampvucecsfbdafn.jpg,,,,,,,,,,,,,,,
243,27,Memory,4,,,,,,,sunabtlfmiwtljmoues.jpg,,,,,,,,,,,,,,,
244,27,Memory,4,,,,,,,00952960627fa.jpg,,,,,,,,,,,,,,,
245,27,Memory,4,,,,,,,sunagvjurcwdbixvnyi.jpg,,,,,,,,,,,,,,,
246,27,Memory,4,,,,,,,00795941205fa.jpg,,,,,,,,,,,,,,,
247,27,Memory,4,,,,,,,sunaivdylrawbmhryfp.jpg,,,,,,,,,,,,,,,
248,27,Memory,4,,,,,,,sunadakkdovnuzlycvp.jpg,,,,,,,,,,,,,,,
249,27,Memory,4,,,,,,,00988960627fa.jpg,,,,,,,,,,,,,,,
250,27,Presentation,5,00133931230fa_sunaanlwnpqndclffxt.jpg,00630940928fa_sunaczwgyukesaajxnx.jpg,00133931230fa.jpg,sunaanlwnpqndclffxt.jpg,00630940928fa.jpg,sunaczwgyukesaajxnx.jpg,,,>,Face,,,,,1,,,,,,,o
251,27,Presentation,5,01010960627fa_suncnkvbhypnivcohyx.jpg,00142931230fb_sunaapxkpvrhpjplsok.jpg,01010960627fa.jpg,suncnkvbhypnivcohyx.jpg,00142931230fb.jpg,sunaapxkpvrhpjplsok.jpg,,,>,Face,,,,,1,,,,,,,x
252,27,Presentation,5,00754941201fa_sunaffgsyyvoqdlkmnk.jpg,00970960627fa_sunbasypfgzjtomktmu.jpg,00754941201fa.jpg,sunaffgsyyvoqdlkmnk.jpg,00970960627fa.jpg,sunbasypfgzjtomktmu.jpg,,,>,Face,,,,,1,,,,,,,x
253,27,Presentation,5,00532960627fa_sunaccdtpgenvcbcbcf.jpg,00937960627fa_sunaqsolmfydodnakub.jpg,00532960627fa.jpg,sunaccdtpgenvcbcbcf.jpg,00937960627fa.jpg,sunaqsolmfydodnakub.jpg,,,>,Face,,,,,1,,,,,,,x
254,27,Presentation,5,00263940128fb_sunabjuovqvyfuzvqwt.jpg,00073931230fa_sunaafbmtoniaasysgu.jpg,00263940128fb.jpg,sunabjuovqvyfuzvqwt.jpg,00073931230fa.jpg,sunaafbmtoniaasysgu.jpg,,,>,Face,,,,,1,,,,,,,x
255,27,Presentation,5,00877960530fa_sunajxpkuhbizeveguy.jpg,00822940307fa_sunahqrxievfeusiqlt.jpg,00877960530fa.jpg,sunajxpkuhbizeveguy.jpg,00822940307fa.jpg,sunahqrxievfeusiqlt.jpg,,,>,Face,,,,,1,,,,,,,x
256,27,Presentation,5,00752960620fa_sunafbwnojpqeyzssoe.jpg,00786941205fa_sunagmhildamktmqjss.jpg,00752960620fa.jpg,sunafbwnojpqeyzssoe.jpg,00786941205fa.jpg,sunagmhildamktmqjss.jpg,,,>,Face,,,,,1,,,,,,,o
257,27,Presentation,5,00839940307fa_sunaipyohrqlwngaqif.jpg,00147931230fb_sunaatpkocdkocwxpkb.jpg,00839940307fa.jpg,sunaipyohrqlwngaqif.jpg,00147931230fb.jpg,sunaatpkocdkocwxpkb.jpg,,,>,Face,,,,,1,,,,,,,o
258,27,Presentation,5,00093931230fa_sunaahwnmtqsrhocysw.jpg,00913960530fa_sunaooffzffbhcpirmm.jpg,00093931230fa.jpg,sunaahwnmtqsrhocysw.jpg,00913960530fa.jpg,sunaooffzffbhcpirmm.jpg,,,>,Face,,,,,1,,,,,,,o
259,27,Presentation,5,00609940928fa_sunacycdoztxoluxjyk.jpg,00838940307fa_sunaiozxhxgtfrmoagh.jpg,00609940928fa.jpg,sunacycdoztxoluxjyk.jpg,00838940307fa.jpg,sunaiozxhxgtfrmoagh.jpg,,,>,Face,,,,,1,,,,,,,x
260,27,Memory,5,,,,,,,sunbasypfgzjtomktmu.jpg,,,,,,,,,,,,,,,
261,27,Memory,5,,,,,,,sunaiozxhxgtfrmoagh.jpg,,,,,,,,,,,,,,,
262,27,Memory,5,,,,,,,sunablfqiwfqomjarht.jpg,,,,,,,,,,,,,,,
263,27,Memory,5,,,,,,,sunaloffvbvysigxent.jpg,,,,,,,,,,,,,,,
264,27,Memory,5,,,,,,,sunafbwnojpqeyzssoe.jpg,,,,,,,,,,,,,,,
265,27,Memory,5,,,,,,,00267940128fb.jpg,,,,,,,,,,,,,,,
266,27,Memory,5,,,,,,,00092931230fa.jpg,,,,,,,,,,,,,,,
267,27,Memory,5,,,,,,,sunaczwgyukesaajxnx.jpg,,,,,,,,,,,,,,,
268,27,Memory,5,,,,,,,00825940307fa.jpg,,,,,,,,,,,,,,,
269,27,Memory,5,,,,,,,01010960627fa.jpg,,,,,,,,,,,,,,,
270,27,Memory,5,,,,,,,sunahmhrncocyhsjpxk.jpg,,,,,,,,,,,,,,,
271,27,Memory,5,,,,,,,00851940307fa.jpg,,,,,,,,,,,,,,,
272,27,Memory,5,,,,,,,00124931230fa.jpg,,,,,,,,,,,,,,,
273,27,Memory,5,,,,,,,sunaanlwnpqndclffxt.jpg,,,,,,,,,,,,,,,
274,27,Memory,5,,,,,,,00752960620fa.jpg,,,,,,,,,,,,,,,
275,27,Memory,5,,,,,,,00147931230fb.jpg,,,,,,,,,,,,,,,
276,27,Memory,5,,,,,,,sunaatpkocdkocwxpkb.jpg,,,,,,,,,,,,,,,
277,27,Memory,5,,,,,,,00877960530fa.jpg,,,,,,,,,,,,,,,
278,27,Memory,5,,,,,,,00893960530Fa.jpg,,,,,,,,,,,,,,,
279,27,Memory,5,,,,,,,00786941205fa.jpg,,,,,,,,,,,,,,,
280,27,Memory,5,,,,,,,00970960627fa.jpg,,,,,,,,,,,,,,,
281,27,Memory,5,,,,,,,sunajxpkuhbizeveguy.jpg,,,,,,,,,,,,,,,
282,27,Memory,5,,,,,,,sunagmhildamktmqjss.jpg,,,,,,,,,,,,,,,
283,27,Memory,5,,,,,,,sunainqelldeebvxtcz.jpg,,,,,,,,,,,,,,,
284,27,Memory,5,,,,,,,00218940128fa.jpg,,,,,,,,,,,,,,,
285,27,Memory,5,,,,,,,sunaivflshbyfrfzhqb.jpg,,,,,,,,,,,,,,,
286,27,Memory,5,,,,,,,00133931230fa.jpg,,,,,,,,,,,,,,,
287,27,Memory,5,,,,,,,sunabbwggenhfbftyvi.jpg,,,,,,,,,,,,,,,
288,27,Memory,5,,,,,,,sunahrltmuwbiehihpe.jpg,,,,,,,,,,,,,,,
289,27,Memory,5,,,,,,,00630940928fa.jpg,,,,,,,,,,,,,,,
290,27,Memory,5,,,,,,,00816941205fa.jpg,,,,,,,,,,,,,,,
291,27,Memory,5,,,,,,,sunarfdklgdnjgeqfjg.jpg,,,,,,,,,,,,,,,
292,27,Memory,5,,,,,,,suncnkvbhypnivcohyx.jpg,,,,,,,,,,,,,,,
293,27,Memory,5,,,,,,,sunaaheqzstzxuadglu.jpg,,,,,,,,,,,,,,,
294,27,Memory,5,,,,,,,sunaalhlvzmjmitybdn.jpg,,,,,,,,,,,,,,,
295,27,Memory,5,,,,,,,00942960627fa.jpg,,,,,,,,,,,,,,,
296,27,Memory,5,,,,,,,00836940307fa.jpg,,,,,,,,,,,,,,,
297,27,Memory,5,,,,,,,00093931230fa.jpg,,,,,,,,,,,,,,,
298,27,Memory,5,,,,,,,00838940307fa.jpg,,,,,,,,,,,,,,,
299,27,Memory,5,,,,,,,sunaahwnmtqsrhocysw.jpg,,,,,,,,,,,,,,,
300,27,Presentation,6,00761960627fa_sunafgdqbclkwfocdhg.jpg,00961960627fa_sunawotxrevnqvamsfp.jpg,00761960627fa.jpg,sunafgdqbclkwfocdhg.jpg,00961960627fa.jpg,sunawotxrevnqvamsfp.jpg,,,>,Face,,,,,1,,,,,,,x
301,27,Presentation,6,00648941031fa_sunadfndyrtqqiasoig.jpg,00745941205fa_sunaeouogqolxvggaoq.jpg,00648941031fa.jpg,sunadfndyrtqqiasoig.jpg,00745941205fa.jpg,sunaeouogqolxvggaoq.jpg,,,>,Face,,,,,1,,,,,,,o
302,27,Presentation,6,00919960620fa_sunapmfmzadmosuogaz.jpg,00789960620fa_sunagpancjmxqfazssf.jpg,00919960620fa.jpg,sunapmfmzadmosuogaz.jpg,00789960620fa.jpg,sunagpancjmxqfazssf.jpg,,,>,Face,,,,,0,,,,,,,o
303,27,Presentation,6,00860940307fa_sunaizeyhvjzknwjudw.jpg,00967960627fa_sunbaejotfklekvpxcz.jpg,00860940307fa.jpg,sunaizeyhvjzknwjudw.jpg,00967960627fa.jpg,sunbaejotfklekvpxcz.jpg,,,>,Face,,,,,1,,,,,,,o
304,27,Presentation,6,00140931230fb_sunaapllqyqlykszopd.jpg,00209940128fb_sunabaergayifsgacxt.jpg,00140931230fb.jpg,sunaapllqyqlykszopd.jpg,00209940128fb.jpg,sunabaergayifsgacxt.jpg,,,>,Face,,,,,1,,,,,,,x
305,27,Presentation,6,00631940928fa_sunadbdqzigzwipuipr.jpg,00070940307fa_sunaaeplwsfslcbtojr.jpg,00631940928fa.jpg,sunadbdqzigzwipuipr.jpg,00070940307fa.jpg,sunaaeplwsfslcbtojr.jpg,,,>,Face,,,,,1,,,,,,,o
306,27,Presentation,6,01002960627fb_sunbwaafjdebjzttuvq.jpg,00911960530fa_sunaooaqzputrowwbsw.jpg,01002960627fb.jpg,sunbwaafjdebjzttuvq.jpg,00911960530fa.jpg,sunaooaqzputrowwbsw.jpg,,,>,Face,,,,,1,,,,,,,x
307,27,Presentation,6,00790941205fa_sunagpjzsbltchlwvou.jpg,01207940128fa_sundbixjudsgeuuehrn.jpg,00790941205fa.jpg,sunagpjzsbltchlwvou.jpg,01207940128fa.jpg,sundbixjudsgeuuehrn.jpg,,,>,Face,,,,,1,,,,,,,o
308,27,Presentation,6,00787960620fa_sunagoufulkpsxrmklt.jpg,00915960620fa_sunapileznnbbmrwoei.jpg,00787960620fa.jpg,sunagoufulkpsxrmklt.jpg,00915960620fa.jpg,sunapileznnbbmrwoei.jpg,,,>,Face,,,,,1,,,,,,,o
309,27,Presentation,6,00242940128fa_sunabcuurugvxwparpk.jpg,00481940519fa_sunabxsuqbleluwczoy.jpg,00242940128fa.jpg,sunabcuurugvxwparpk.jpg,00481940519fa.jpg,sunabxsuqbleluwczoy.jpg,,,>,Face,,,,,1,,,,,,,o
310,27,Memory,6,,,,,,,01002960627fb.jpg,,,,,,,,,,,,,,,
311,27,Memory,6,,,,,,,sundbixjudsgeuuehrn.jpg,,,,,,,,,,,,,,,
312,27,Memory,6,,,,,,,00481940519fa.jpg,,,,,,,,,,,,,,,
313,27,Memory,6,,,,,,,sunagfvluwixdsozaql.jpg,,,,,,,,,,,,,,,
314,27,Memory,6,,,,,,,00911960530fa.jpg,,,,,,,,,,,,,,,
315,27,Memory,6,,,,,,,00242940128fa.jpg,,,,,,,,,,,,,,,
316,27,Memory,6,,,,,,,sunagoufulkpsxrmklt.jpg,,,,,,,,,,,,,,,
317,27,Memory,6,,,,,,,sunaawqdbpihmlbwyyn.jpg,,,,,,,,,,,,,,,
318,27,Memory,6,,,,,,,sunagcthdfirrcawoic.jpg,,,,,,,,,,,,,,,
319,27,Memory,6,,,,,,,00082931230fa.jpg,,,,,,,,,,,,,,,
320,27,Memory,6,,,,,,,00859940307fa.jpg,,,,,,,,,,,,,,,
321,27,Memory,6,,,,,,,sunbaoizrfijvhpnnjn.jpg,,,,,,,,,,,,,,,
322,27,Memory,6,,,,,,,sunavspxmxubqaeidjt.jpg,,,,,,,,,,,,,,,
323,27,Memory,6,,,,,,,01207940128fa.jpg,,,,,,,,,,,,,,,
324,27,Memory,6,,,,,,,sunagpancjmxqfazssf.jpg,,,,,,,,,,,,,,,
325,27,Memory,6,,,,,,,00140931230fb.jpg,,,,,,,,,,,,,,,
326,27,Memory,6,,,,,,,00761960627fa.jpg,,,,,,,,,,,,,,,
327,27,Memory,6,,,,,,,sunawotxrevnqvamsfp.jpg,,,,,,,,,,,,,,,
328,27,Memory,6,,,,,,,sunaooaqzputrowwbsw.jpg,,,,,,,,,,,,,,,
329,27,Memory,6,,,,,,,sunaiycurtqsfkvcaso.jpg,,,,,,,,,,,,,,,
330,27,Memory,6,,,,,,,sunbloeoiozwjjsiamp.jpg,,,,,,,,,,,,,,,
331,27,Memory,6,,,,,,,00185940422fb.jpg,,,,,,,,,,,,,,,
332,27,Memory,6,,,,,,,sunafgdqbclkwfocdhg.jpg,,,,,,,,,,,,,,,
333,27,Memory,6,,,,,,,00961960627fa.jpg,,,,,,,,,,,,,,,
334,27,Memory,6,,,,,,,00782941205fa.jpg,,,,,,,,,,,,,,,
335,27,Memory,6,,,,,,,00987960627fa.jpg,,,,,,,,,,,,,,,
336,27,Memory,6,,,,,,,00969960627fa.jpg,,,,,,,,,,,,,,,
337,27,Memory,6,,,,,,,sunabasphceswhwwqvv.jpg,,,,,,,,,,,,,,,
338,27,Memory,6,,,,,,,00778941205fa.jpg,,,,,,,,,,,,,,,
339,27,Memory,6,,,,,,,sunabcuurugvxwparpk.jpg,,,,,,,,,,,,,,,
340,27,Memory,6,,,,,,,00789960620fa.jpg,,,,,,,,,,,,,,,
341,27,Memory,6,,,,,,,00787960620fa.jpg,,,,,,,,,,,,,,,
342,27,Memory,6,,,,,,,sunbwaafjdebjzttuvq.jpg,,,,,,,,,,,,,,,
343,27,Memory,6,,,,,,,sunaapllqyqlykszopd.jpg,,,,,,,,,,,,,,,
344,27,Memory,6,,,,,,,sunaafvitpexrpvumsa.jpg,,,,,,,,,,,,,,,
345,27,Memory,6,,,,,,,sunaaylzyqlqrsmfwif.jpg,,,,,,,,,,,,,,,
346,27,Memory,6,,,,,,,00958960627fa.jpg,,,,,,,,,,,,,,,
347,27,Memory,6,,,,,,,sunabxsuqbleluwczoy.jpg,,,,,,,,,,,,,,,
348,27,Memory,6,,,,,,,00211940128fa.jpg,,,,,,,,,,,,,,,
349,27,Memory,6,,,,,,,00197940128fa.jpg,,,,,,,,,,,,,,,
350,27,Presentation,7,00938960627fa_sunaqyylsngywqzwfmx.jpg,00828940307fa_sunahuynahneraqftyz.jpg,00938960627fa.jpg,sunaqyylsngywqzwfmx.jpg,00828940307fa.jpg,sunahuynahneraqftyz.jpg,,,<,Place,,,,,1,,,,,,,o
351,27,Presentation,7,00972960627fa_sunbbfqwjpdxniyhies.jpg,00098931230fa_sunaajpqmulidejvjsr.jpg,00972960627fa.jpg,sunbbfqwjpdxniyhies.jpg,00098931230fa.jpg,sunaajpqmulidejvjsr.jpg,,,<,Place,,,,,1,,,,,,,x
352,27,Presentation,7,00862940307fa_sunaizgnnplsvajzhkc.jpg,00115931230fa_sunaakmxzhuceuiryah.jpg,00862940307fa.jpg,sunaizgnnplsvajzhkc.jpg,00115931230fa.jpg,sunaakmxzhuceuiryah.jpg,,,<,Place,,,,,1,,,,,,,o
353,27,Presentation,7,00966960627fa_sunaygrtwrwfezqjizr.jpg,00270940422fb_sunabllobxadqcyttej.jpg,00966960627fa.jpg,sunaygrtwrwfezqjizr.jpg,00270940422fb.jpg,sunabllobxadqcyttej.jpg,,,<,Place,,,,,1,,,,,,,o
354,27,Presentation,7,00069931230fb_sunaaeowapdkwzqpgqr.jpg,00705941205fa_sunadtlxenqqxsyjvix.jpg,00069931230fb.jpg,sunaaeowapdkwzqpgqr.jpg,00705941205fa.jpg,sunadtlxenqqxsyjvix.jpg,,,<,Place,,,,,1,,,,,,,x
355,27,Presentation,7,00292940422fb_sunabrjdpmoedcdjbpo.jpg,01005960627fa_sunbwyuesflwdpqtgoy.jpg,00292940422fb.jpg,sunabrjdpmoedcdjbpo.jpg,01005960627fa.jpg,sunbwyuesflwdpqtgoy.jpg,,,<,Place,,,,,1,,,,,,,o
356,27,Presentation,7,00963960627fa_sunayaepykrqvenaqqy.jpg,00574940928fa_sunacvbrcejzwmcgnoq.jpg,00963960627fa.jpg,sunayaepykrqvenaqqy.jpg,00574940928fa.jpg,sunacvbrcejzwmcgnoq.jpg,,,<,Place,,,,,1,,,,,,,x
357,27,Presentation,7,00633940928fa_sunadbhmrgrrpyzglxs.jpg,00529940519fa_sunacbeefkxpymwevpk.jpg,00633940928fa.jpg,sunadbhmrgrrpyzglxs.jpg,00529940519fa.jpg,sunacbeefkxpymwevpk.jpg,,,<,Place,,,,,1,,,,,,,o
358,27,Presentation,7,00794960620fa_sunagtqhhwxjeuxdebe.jpg,00773941201fa_sunafvcflzhlqloapyo.jpg,00794960620fa.jpg,sunagtqhhwxjeuxdebe.jpg,00773941201fa.jpg,sunafvcflzhlqloapyo.jpg,,,<,Place,,,,,0,,,,,,,o
359,27,Presentation,7,00138931230fa_sunaapfaivxqoynnwwp.jpg,00922960627fa_sunapqkyghktgtosuuk.jpg,00138931230fa.jpg,sunaapfaivxqoynnwwp.jpg,00922960627fa.jpg,sunapqkyghktgtosuuk.jpg,,,<,Place,,,,,1,,,,,,,o
360,27,Memory,7,,,,,,,sunaapfaivxqoynnwwp.jpg,,,,,,,,,,,,,,,
361,27,Memory,7,,,,,,,sunabllobxadqcyttej.jpg,,,,,,,,,,,,,,,
362,27,Memory,7,,,,,,,00794960620fa.jpg,,,,,,,,,,,,,,,
363,27,Memory,7,,,,,,,sunadtlxenqqxsyjvix.jpg,,,,,,,,,,,,,,,
364,27,Memory,7,,,,,,,sunabwmcbaxwioksdgw.jpg,,,,,,,,,,,,,,,
365,27,Memory,7,,,,,,,sunabrjdpmoedcdjbpo.jpg,,,,,,,,,,,,,,,
366,27,Memory,7,,,,,,,00280940422fb.jpg,,,,,,,,,,,,,,,
367,27,Memory,7,,,,,,,00138931230fa.jpg,,,,,,,,,,,,,,,
368,27,Memory,7,,,,,,,sunaahzooisqkwlxwoz.jpg,,,,,,,,,,,,,,,
369,27,Memory,7,,,,,,,00115931230fa.jpg,,,,,,,,,,,,,,,
370,27,Memory,7,,,,,,,00972960627fa.jpg,,,,,,,,,,,,,,,
371,27,Memory,7,,,,,,,00292940422fb.jpg,,,,,,,,,,,,,,,
372,27,Memory,7,,,,,,,sunagtqhhwxjeuxdebe.jpg,,,,,,,,,,,,,,,
373,27,Memory,7,,,,,,,sunaqyylsngywqzwfmx.jpg,,,,,,,,,,,,,,,
374,27,Memory,7,,,,,,,sunbagfpovqwbuexqdn.jpg,,,,,,,,,,,,,,,
375,27,Memory,7,,,,,,,00751960620fa.jpg,,,,,,,,,,,,,,,
376,27,Memory,7,,,,,,,00828940307fa.jpg,,,,,,,,,,,,,,,
377,27,Memory,7,,,,,,,sunahuynahneraqftyz.jpg,,,,,,,,,,,,,,,
378,27,Memory,7,,,,,,,sunabohxbskznglnrhv.jpg,,,,,,,,,,,,,,,
379,27,Memory,7,,,,,,,00095931230fa.jpg,,,,,,,,,,,,,,,
380,27,Memory,7,,,,,,,sunaqgjuuwvdcyiccjt.jpg,,,,,,,,,,,,,,,
381,27,Memory,7,,,,,,,00270940422fb.jpg,,,,,,,,,,,,,,,
382,27,Memory,7,,,,,,,00245940128fa.jpg,,,,,,,,,,,,,,,
383,27,Memory,7,,,,,,,00936960627fa.jpg,,,,,,,,,,,,,,,
384,27,Memory,7,,,,,,,01005960627fa.jpg,,,,,,,,,,,,,,,
385,27,Memory,7,,,,,,,00811960530fa.jpg,,,,,,,,,,,,,,,
386,27,Memory,7,,,,,,,00705941205fa.jpg,,,,,,,,,,,,,,,
387,27,Memory,7,,,,,,,sunaixpqndlwhwjtjek.jpg,,,,,,,,,,,,,,,
388,27,Memory,7,,,,,,,sunbxarcshsnqsefemx.jpg,,,,,,,,,,,,,,,
389,27,Memory,7,,,,,,,00938960627fa.jpg,,,,,,,,,,,,,,,
390,27,Memory,7,,,,,,,00968960627fa.jpg,,,,,,,,,,,,,,,
391,27,Memory,7,,,,,,,01007960627fa.jpg,,,,,,,,,,,,,,,
392,27,Memory,7,,,,,,,sunabeyhmxodahoieyk.jpg,,,,,,,,,,,,,,,
393,27,Memory,7,,,,,,,sunbwyuesflwdpqtgoy.jpg,,,,,,,,,,,,,,,
394,27,Memory,7,,,,,,,sunaakmxzhuceuiryah.jpg,,,,,,,,,,,,,,,
395,27,Memory,7,,,,,,,00858940307fa.jpg,,,,,,,,,,,,,,,
396,27,Memory,7,,,,,,,sunahedfrhtcwpneund.jpg,,,,,,,,,,,,,,,
397,27,Memory,7,,,,,,,sunbbfqwjpdxniyhies.jpg,,,,,,,,,,,,,,,
398,27,Memory,7,,,,,,,sunaezuszgtxnmsxdbk.jpg,,,,,,,,,,,,,,,
399,27,Memory,7,,,,,,,00314940422fa.jpg,,,,,,,,,,,,,,,
