,Subject,Trial Type,Run,Cued Composite,Uncued Composite,Cued Face,Cued Place,Uncued Face,Uncued Place,Memory Image,Category,Cued Side,Cued Category,Attention Response Time (s),Familiarity Reaction Time (s),Familiarity Rating,Attention Level,Cue Validity,Post Invalid Cue,Pre Invalid Cue,Attention Button,Rating History,Stimulus Onset,Stimulus End,Attention Probe
0,30,Presentation,0,00999960627fa_sunbvbrvgbpanfrawft.jpg,00749941201fa_sunaeuvjbmdpknaqqaj.jpg,,,,,,,>,Place,,,,,1,,,,,,,o
1,30,Presentation,0,00598940928fa_sunacxeheuiigkcgquf.jpg,00771941205fa_sunafowswglhxcsufpo.jpg,,,,,,,<,Face,,,,,1,,,,,,,x
2,30,Presentation,0,00790941205fa_sunagpjzsbltchlwvou.jpg,00482940519fa_sunabyfxcxhdebvdyfd.jpg,,,,,,,>,Place,,,,,1,,,,,,,x
3,30,Presentation,0,00800941205fb_sunagvjurcwdbixvnyi.jpg,00147931230fb_sunaatpkocdkocwxpkb.jpg,,,,,,,<,Place,,,,,1,,,,,,,o
4,30,Presentation,0,00313940422fa_sunabwjvmoaddlyxfjr.jpg,00877960530fa_sunajxpkuhbizeveguy.jpg,,,,,,,>,Place,,,,,1,,,,,,,o
5,30,Presentation,0,00785941205fa_sunaglqunwuycxydmyu.jpg,00772941201fa_sunafpfpiiujzoesnqg.jpg,,,,,,,<,Face,,,,,1,,,,,,,x
6,30,Presentation,0,00799941205fa_sunagutjvdvnhxejerz.jpg,00783941205fa_sunagjeesomrwjsfqie.jpg,,,,,,,>,Face,,,,,1,,,,,,,x
7,30,Presentation,0,00245940128fa_sunabeyhmxodahoieyk.jpg,00634940928fa_sunadcphrizvfpljiqt.jpg,,,,,,,<,Face,,,,,1,,,,,,,x
8,30,Presentation,0,00305940422fa_sunabtrnbvpppgczjim.jpg,00816941205fa_sunahmhrncocyhsjpxk.jpg,,,,,,,<,Place,,,,,1,,,,,,,o
9,30,Presentation,0,00935960627fa_sunaqbmgkgqucajzrkp.jpg,00727941205fa_sunaeisnjeetzmkbuad.jpg,,,,,,,>,Face,,,,,1,,,,,,,o
10,30,Memory,0,,,,,,,00929960627fa.jpg,,,,,,,,,,,,,,,
11,30,Memory,0,,,,,,,sunaprnrbmgkomdbchr.jpg,,,,,,,,,,,,,,,
12,30,Memory,0,,,,,,,00983960627fa.jpg,,,,,,,,,,,,,,,
13,30,Memory,0,,,,,,,sunbbfqwjpdxniyhies.jpg,,,,,,,,,,,,,,,
14,30,Memory,0,,,,,,,sunaavjinpnkappuonm.jpg,,,,,,,,,,,,,,,
15,30,Memory,0,,,,,,,00559940519fa.jpg,,,,,,,,,,,,,,,
16,30,Memory,0,,,,,,,sunaezuszgtxnmsxdbk.jpg,,,,,,,,,,,,,,,
17,30,Memory,0,,,,,,,00147931230fb.jpg,,,,,,,,,,,,,,,
18,30,Memory,0,,,,,,,sunabwjvmoaddlyxfjr.jpg,,,,,,,,,,,,,,,
19,30,Memory,0,,,,,,,sunbfyvfqiimvdaxlqn.jpg,,,,,,,,,,,,,,,
20,30,Memory,0,,,,,,,00162931230fb.jpg,,,,,,,,,,,,,,,
21,30,Memory,0,,,,,,,sunabeyhmxodahoieyk.jpg,,,,,,,,,,,,,,,
22,30,Memory,0,,,,,,,sunaafewhewbxmjiurz.jpg,,,,,,,,,,,,,,,
23,30,Memory,0,,,,,,,01010960627fa.jpg,,,,,,,,,,,,,,,
24,30,Memory,0,,,,,,,sunaeisnjeetzmkbuad.jpg,,,,,,,,,,,,,,,
25,30,Memory,0,,,,,,,sunahbvlpavurqoxdeq.jpg,,,,,,,,,,,,,,,
26,30,Memory,0,,,,,,,00972960627fa.jpg,,,,,,,,,,,,,,,
27,30,Memory,0,,,,,,,sunagutjvdvnhxejerz.jpg,,,,,,,,,,,,,,,
28,30,Memory,0,,,,,,,00245940128fa.jpg,,,,,,,,,,,,,,,
29,30,Memory,0,,,,,,,00809960620fa.jpg,,,,,,,,,,,,,,,
30,30,Memory,0,,,,,,,00076931230fa.jpg,,,,,,,,,,,,,,,
31,30,Memory,0,,,,,,,00751960620fa.jpg,,,,,,,,,,,,,,,
32,30,Memory,0,,,,,,,sunagjeesomrwjsfqie.jpg,,,,,,,,,,,,,,,
33,30,Memory,0,,,,,,,sunaglqunwuycxydmyu.jpg,,,,,,,,,,,,,,,
34,30,Memory,0,,,,,,,00877960530fa.jpg,,,,,,,,,,,,,,,
35,30,Memory,0,,,,,,,sunaahwnmtqsrhocysw.jpg,,,,,,,,,,,,,,,
36,30,Memory,0,,,,,,,sunaatpkocdkocwxpkb.jpg,,,,,,,,,,,,,,,
37,30,Memory,0,,,,,,,00785941205fa.jpg,,,,,,,,,,,,,,,
38,30,Memory,0,,,,,,,00313940422fa.jpg,,,,,,,,,,,,,,,
39,30,Memory,0,,,,,,,00799941205fa.jpg,,,,,,,,,,,,,,,
40,30,Memory,0,,,,,,,00727941205fa.jpg,,,,,,,,,,,,,,,
41,30,Memory,0,,,,,,,00093931230fa.jpg,,,,,,,,,,,,,,,
42,30,Memory,0,,,,,,,sunajxpkuhbizeveguy.jpg,,,,,,,,,,,,,,,
43,30,Memory,0,,,,,,,suncnkvbhypnivcohyx.jpg,,,,,,,,,,,,,,,
44,30,Memory,0,,,,,,,00783941205fa.jpg,,,,,,,,,,,,,,,
45,30,Memory,0,,,,,,,00999960627fa.jpg,,,,,,,,,,,,,,,
46,30,Memory,0,,,,,,,sunbvbrvgbpanfrawft.jpg,,,,,,,,,,,,,,,
47,30,Memory,0,,,,,,,00771941205fa.jpg,,,,,,,,,,,,,,,
48,30,Memory,0,,,,,,,sunacjkmnpawfzbyvae.jpg,,,,,,,,,,,,,,,
49,30,Memory,0,,,,,,,sunafowswglhxcsufpo.jpg,,,,,,,,,,,,,,,
50,30,Presentation,1,00208940128fa_sunaazzyhbvqjpmazjq.jpg,00635941031fa_sunaddsaeicthrfbkhe.jpg,,,,,,,>,Place,,,,,1,,,,,,,o
51,30,Presentation,1,00140931230fb_sunaapllqyqlykszopd.jpg,00810941205fa_sunahctntqrunhdxhtb.jpg,,,,,,,>,Face,,,,,1,,,,,,,o
52,30,Presentation,1,00479940519fa_sunabxsbfwjccqxxzxq.jpg,00507940519fa_sunacacflqoyxhsqzhe.jpg,,,,,,,<,Place,,,,,1,,,,,,,x
53,30,Presentation,1,00308940422fb_sunabwfvcqqidycwypa.jpg,00949960627fb_sunasnqkkyhilqkxiqm.jpg,,,,,,,<,Face,,,,,1,,,,,,,o
54,30,Presentation,1,00681941121fa_sunadqmjrhfjyuzyvdd.jpg,00960960627fa_sunawksfbacycuhbrsc.jpg,,,,,,,>,Place,,,,,1,,,,,,,o
55,30,Presentation,1,00102931230fa_sunaajspcoepticvplv.jpg,00288940422fa_sunabppokiyglaxpcha.jpg,,,,,,,<,Place,,,,,1,,,,,,,x
56,30,Presentation,1,00728941205fa_sunaejnvnpltdmhbcsi.jpg,00788941205fa_sunagountlxpzkytsmp.jpg,,,,,,,<,Face,,,,,1,,,,,,,x
57,30,Presentation,1,00112931230fa_sunaakjaacuzulqckgl.jpg,00950960627fa_sunasrjlmglmjzbmqxb.jpg,,,,,,,>,Place,,,,,1,,,,,,,o
58,30,Presentation,1,00675941121fa_sunadoxcchtmsxewsau.jpg,00060931230fa_sunaaehaikpckyjsety.jpg,,,,,,,>,Face,,,,,0,,,,,,,o
59,30,Presentation,1,00914960620fa_sunaozisvwfbmlkfhzv.jpg,00271940422fa_sunabmbnddafmywtjjj.jpg,,,,,,,<,Face,,,,,1,,,,,,,x
60,30,Memory,1,,,,,,,00782941205fa.jpg,,,,,,,,,,,,,,,
61,30,Memory,1,,,,,,,00548940519fa.jpg,,,,,,,,,,,,,,,
62,30,Memory,1,,,,,,,sunbvzmgrdvaakxusbu.jpg,,,,,,,,,,,,,,,
63,30,Memory,1,,,,,,,sunajoveqhiprwqgoco.jpg,,,,,,,,,,,,,,,
64,30,Memory,1,,,,,,,sunacsdhbbsybcyxnel.jpg,,,,,,,,,,,,,,,
65,30,Memory,1,,,,,,,00681941121fa.jpg,,,,,,,,,,,,,,,
66,30,Memory,1,,,,,,,sunasrjlmglmjzbmqxb.jpg,,,,,,,,,,,,,,,
67,30,Memory,1,,,,,,,sunadqmjrhfjyuzyvdd.jpg,,,,,,,,,,,,,,,
68,30,Memory,1,,,,,,,sunaooaqzputrowwbsw.jpg,,,,,,,,,,,,,,,
69,30,Memory,1,,,,,,,00112931230fa.jpg,,,,,,,,,,,,,,,
70,30,Memory,1,,,,,,,00950960627fa.jpg,,,,,,,,,,,,,,,
71,30,Memory,1,,,,,,,00479940519fa.jpg,,,,,,,,,,,,,,,
72,30,Memory,1,,,,,,,sunagfvluwixdsozaql.jpg,,,,,,,,,,,,,,,
73,30,Memory,1,,,,,,,00136931230fb.jpg,,,,,,,,,,,,,,,
74,30,Memory,1,,,,,,,sunabxsbfwjccqxxzxq.jpg,,,,,,,,,,,,,,,
75,30,Memory,1,,,,,,,sunabrjdpmoedcdjbpo.jpg,,,,,,,,,,,,,,,
76,30,Memory,1,,,,,,,sunadpnqovzckyikrjo.jpg,,,,,,,,,,,,,,,
77,30,Memory,1,,,,,,,sunaddsaeicthrfbkhe.jpg,,,,,,,,,,,,,,,
78,30,Memory,1,,,,,,,00676941121fa.jpg,,,,,,,,,,,,,,,
79,30,Memory,1,,,,,,,sunaanptmsknhirrzed.jpg,,,,,,,,,,,,,,,
80,30,Memory,1,,,,,,,sunabppokiyglaxpcha.jpg,,,,,,,,,,,,,,,
81,30,Memory,1,,,,,,,00894960620fa.jpg,,,,,,,,,,,,,,,
82,30,Memory,1,,,,,,,00635941031fa.jpg,,,,,,,,,,,,,,,
83,30,Memory,1,,,,,,,sunacerqowiaeoqkmsq.jpg,,,,,,,,,,,,,,,
84,30,Memory,1,,,,,,,sunagountlxpzkytsmp.jpg,,,,,,,,,,,,,,,
85,30,Memory,1,,,,,,,00869940307fa.jpg,,,,,,,,,,,,,,,
86,30,Memory,1,,,,,,,00308940422fb.jpg,,,,,,,,,,,,,,,
87,30,Memory,1,,,,,,,sunaakjaacuzulqckgl.jpg,,,,,,,,,,,,,,,
88,30,Memory,1,,,,,,,00911960530fa.jpg,,,,,,,,,,,,,,,
89,30,Memory,1,,,,,,,00788941205fa.jpg,,,,,,,,,,,,,,,
90,30,Memory,1,,,,,,,00288940422fa.jpg,,,,,,,,,,,,,,,
91,30,Memory,1,,,,,,,00271940422fa.jpg,,,,,,,,,,,,,,,
92,30,Memory,1,,,,,,,sunaozisvwfbmlkfhzv.jpg,,,,,,,,,,,,,,,
93,30,Memory,1,,,,,,,sunabwfvcqqidycwypa.jpg,,,,,,,,,,,,,,,
94,30,Memory,1,,,,,,,00292940422fb.jpg,,,,,,,,,,,,,,,
95,30,Memory,1,,,,,,,sunalqmfgeadpqsyzpd.jpg,,,,,,,,,,,,,,,
96,30,Memory,1,,,,,,,00914960620fa.jpg,,,,,,,,,,,,,,,
97,30,Memory,1,,,,,,,01000960627fa.jpg,,,,,,,,,,,,,,,
98,30,Memory,1,,,,,,,sunabmbnddafmywtjjj.jpg,,,,,,,,,,,,,,,
99,30,Memory,1,,,,,,,00568940928fa.jpg,,,,,,,,,,,,,,,
100,30,Presentation,2,00804960530fa_sunagwswhkvnsmuszlz.jpg,00787941205fa_sunagmwxxwymwojbvgi.jpg,,,,,,,>,Place,,,,,0,,,,,,,x
101,30,Presentation,2,00971960627fa_sunbbegcweqnetpdlrh.jpg,00984960627fa_sunbfzchmomnvzhbxdg.jpg,,,,,,,<,Place,,,,,1,,,,,,,o
102,30,Presentation,2,00887960530_sunalcrtwiycqobgelp.jpg,00146960620fb_sunaatpeezlljqaxlhj.jpg,,,,,,,<,Face,,,,,1,,,,,,,x
103,30,Presentation,2,00828940307fa_sunahuynahneraqftyz.jpg,00834940307fa_sunaibnpvhkdpdnzcnz.jpg,,,,,,,>,Place,,,,,0,,,,,,,x
104,30,Presentation,2,00210940128fb_sunabanoxjtqxamkucc.jpg,00498960627fa_sunabzjxlmkwnwzimua.jpg,,,,,,,<,Face,,,,,1,,,,,,,o
105,30,Presentation,2,00775941205fa_sunafvwfsmqkjrutjta.jpg,00267940128fb_sunablfqiwfqomjarht.jpg,,,,,,,>,Place,,,,,1,,,,,,,x
106,30,Presentation,2,00779941205fa_sunagdzlvkqtpnfxfcg.jpg,00838940307fa_sunaiozxhxgtfrmoagh.jpg,,,,,,,<,Place,,,,,1,,,,,,,o
107,30,Presentation,2,00663941121fa_sunadnjjzohjhbohlwq.jpg,00938960627fa_sunaqyylsngywqzwfmx.jpg,,,,,,,>,Face,,,,,1,,,,,,,o
108,30,Presentation,2,00276940422fa_sunabmytpyhsgigllxu.jpg,00859940307fa_sunaiycurtqsfkvcaso.jpg,,,,,,,<,Face,,,,,1,,,,,,,o
109,30,Presentation,2,00967960627fa_sunbaejotfklekvpxcz.jpg,00302940422fa_sunabtlfmiwtljmoues.jpg,,,,,,,>,Face,,,,,1,,,,,,,o
110,30,Memory,2,,,,,,,sunamlotskmmsjeogby.jpg,,,,,,,,,,,,,,,
111,30,Memory,2,,,,,,,00787941205fa.jpg,,,,,,,,,,,,,,,
112,30,Memory,2,,,,,,,01011960627fa.jpg,,,,,,,,,,,,,,,
113,30,Memory,2,,,,,,,sunaqyylsngywqzwfmx.jpg,,,,,,,,,,,,,,,
114,30,Memory,2,,,,,,,sunaauglwmctnkxyird.jpg,,,,,,,,,,,,,,,
115,30,Memory,2,,,,,,,sunbaejotfklekvpxcz.jpg,,,,,,,,,,,,,,,
116,30,Memory,2,,,,,,,00938960627fa.jpg,,,,,,,,,,,,,,,
117,30,Memory,2,,,,,,,sunaiozxhxgtfrmoagh.jpg,,,,,,,,,,,,,,,
118,30,Memory,2,,,,,,,00267940128fb.jpg,,,,,,,,,,,,,,,
119,30,Memory,2,,,,,,,sunafvsxtzaizojicxx.jpg,,,,,,,,,,,,,,,
120,30,Memory,2,,,,,,,sunaduslxfzlbxlllnz.jpg,,,,,,,,,,,,,,,
121,30,Memory,2,,,,,,,sunagwswhkvnsmuszlz.jpg,,,,,,,,,,,,,,,
122,30,Memory,2,,,,,,,sunajwqkfsykceonyig.jpg,,,,,,,,,,,,,,,
123,30,Memory,2,,,,,,,00705960530fa.jpg,,,,,,,,,,,,,,,
124,30,Memory,2,,,,,,,00804960530fa.jpg,,,,,,,,,,,,,,,
125,30,Memory,2,,,,,,,sunabanoxjtqxamkucc.jpg,,,,,,,,,,,,,,,
126,30,Memory,2,,,,,,,sunaatpeezlljqaxlhj.jpg,,,,,,,,,,,,,,,
127,30,Memory,2,,,,,,,sunagmwxxwymwojbvgi.jpg,,,,,,,,,,,,,,,
128,30,Memory,2,,,,,,,sunabckqabszusgcykj.jpg,,,,,,,,,,,,,,,
129,30,Memory,2,,,,,,,sundahdxwmcdluscvot.jpg,,,,,,,,,,,,,,,
130,30,Memory,2,,,,,,,00900960530fa.jpg,,,,,,,,,,,,,,,
131,30,Memory,2,,,,,,,00227940128fa.jpg,,,,,,,,,,,,,,,
132,30,Memory,2,,,,,,,00149931230fa.jpg,,,,,,,,,,,,,,,
133,30,Memory,2,,,,,,,sunablfqiwfqomjarht.jpg,,,,,,,,,,,,,,,
134,30,Memory,2,,,,,,,00773960620fa.jpg,,,,,,,,,,,,,,,
135,30,Memory,2,,,,,,,00235940128fb.jpg,,,,,,,,,,,,,,,
136,30,Memory,2,,,,,,,sunabqowuarvqqcnipn.jpg,,,,,,,,,,,,,,,
137,30,Memory,2,,,,,,,00210940128fb.jpg,,,,,,,,,,,,,,,
138,30,Memory,2,,,,,,,sunabclssnoeuigtawp.jpg,,,,,,,,,,,,,,,
139,30,Memory,2,,,,,,,00876960620fa.jpg,,,,,,,,,,,,,,,
140,30,Memory,2,,,,,,,00146960620fb.jpg,,,,,,,,,,,,,,,
141,30,Memory,2,,,,,,,00893960530Fa.jpg,,,,,,,,,,,,,,,
142,30,Memory,2,,,,,,,00967960627fa.jpg,,,,,,,,,,,,,,,
143,30,Memory,2,,,,,,,00290940422fa.jpg,,,,,,,,,,,,,,,
144,30,Memory,2,,,,,,,00663941121fa.jpg,,,,,,,,,,,,,,,
145,30,Memory,2,,,,,,,sunagdzlvkqtpnfxfcg.jpg,,,,,,,,,,,,,,,
146,30,Memory,2,,,,,,,sunadnjjzohjhbohlwq.jpg,,,,,,,,,,,,,,,
147,30,Memory,2,,,,,,,00838940307fa.jpg,,,,,,,,,,,,,,,
148,30,Memory,2,,,,,,,00779941205fa.jpg,,,,,,,,,,,,,,,
149,30,Memory,2,,,,,,,sunaloffvbvysigxent.jpg,,,,,,,,,,,,,,,
150,30,Presentation,3,00878960530fa_sunakgbnzxmfohgehnu.jpg,00797960620fa_sunagufzbeteqdjxais.jpg,,,,,,,<,Face,,,,,1,,,,,,,x
151,30,Presentation,3,00073931230fa_sunaafbmtoniaasysgu.jpg,00990960627fa_sunbpflsdaxnddnwcqi.jpg,,,,,,,<,Place,,,,,1,,,,,,,x
152,30,Presentation,3,00901960530fa_sunammbnoambmhdxdwd.jpg,00097931230fa_sunaajayojuslbbnneg.jpg,,,,,,,>,Face,,,,,1,,,,,,,o
153,30,Presentation,3,00145931230fb_sunaatjesvdupctftmn.jpg,00882960530fa_sunaknlirqjqiwbbeeg.jpg,,,,,,,<,Place,,,,,1,,,,,,,o
154,30,Presentation,3,00116931230fa_sunaakqepfoeqomfgxf.jpg,00776941205fa_sunafxokyavhgptyfye.jpg,,,,,,,>,Place,,,,,1,,,,,,,o
155,30,Presentation,3,00065931230fb_sunaaemixhfquhnxxlm.jpg,00270940422fb_sunabllobxadqcyttej.jpg,,,,,,,<,Face,,,,,0,,,,,,,x
156,30,Presentation,3,00815941205fa_sunahiphsekjihkafsl.jpg,00835940307fa_sunaijsqpvodplbwxkf.jpg,,,,,,,>,Face,,,,,1,,,,,,,x
157,30,Presentation,3,00648941031fa_sunadfndyrtqqiasoig.jpg,00082931230fa_sunaafvitpexrpvumsa.jpg,,,,,,,>,Place,,,,,1,,,,,,,x
158,30,Presentation,3,00870940307fa_sunajrgtewnualfcerj.jpg,00979960627fa_sunbdycacjfaujxitbw.jpg,,,,,,,<,Place,,,,,1,,,,,,,x
159,30,Presentation,3,00768941205fa_sunafkmnlytenlsywia.jpg,00211940128fa_sunabasphceswhwwqvv.jpg,,,,,,,>,Face,,,,,1,,,,,,,o
160,30,Memory,3,,,,,,,sunaisiwfgppimtnmxl.jpg,,,,,,,,,,,,,,,
161,30,Memory,3,,,,,,,00211940128fa.jpg,,,,,,,,,,,,,,,
162,30,Memory,3,,,,,,,00797960620fa.jpg,,,,,,,,,,,,,,,
163,30,Memory,3,,,,,,,00540940519fa.jpg,,,,,,,,,,,,,,,
164,30,Memory,3,,,,,,,sunadvithllcgmfxsrn.jpg,,,,,,,,,,,,,,,
165,30,Memory,3,,,,,,,00116931230fa.jpg,,,,,,,,,,,,,,,
166,30,Memory,3,,,,,,,sunauburywlkjszngcq.jpg,,,,,,,,,,,,,,,
167,30,Memory,3,,,,,,,00955960627fb.jpg,,,,,,,,,,,,,,,
168,30,Memory,3,,,,,,,sunbwdrdvsweerwsdrj.jpg,,,,,,,,,,,,,,,
169,30,Memory,3,,,,,,,sunaafgqutfaishsxyu.jpg,,,,,,,,,,,,,,,
170,30,Memory,3,,,,,,,sunafkmnlytenlsywia.jpg,,,,,,,,,,,,,,,
171,30,Memory,3,,,,,,,sunacdnquypmsshhsbk.jpg,,,,,,,,,,,,,,,
172,30,Memory,3,,,,,,,sunatstrpjxhvtbaczf.jpg,,,,,,,,,,,,,,,
173,30,Memory,3,,,,,,,00953960627fa.jpg,,,,,,,,,,,,,,,
174,30,Memory,3,,,,,,,sunabasphceswhwwqvv.jpg,,,,,,,,,,,,,,,
175,30,Memory,3,,,,,,,00145931230fb.jpg,,,,,,,,,,,,,,,
176,30,Memory,3,,,,,,,sunajrgtewnualfcerj.jpg,,,,,,,,,,,,,,,
177,30,Memory,3,,,,,,,00574940928fa.jpg,,,,,,,,,,,,,,,
178,30,Memory,3,,,,,,,sunaknlirqjqiwbbeeg.jpg,,,,,,,,,,,,,,,
179,30,Memory,3,,,,,,,00073931230fa.jpg,,,,,,,,,,,,,,,
180,30,Memory,3,,,,,,,sunbpflsdaxnddnwcqi.jpg,,,,,,,,,,,,,,,
181,30,Memory,3,,,,,,,00077931230fb.jpg,,,,,,,,,,,,,,,
182,30,Memory,3,,,,,,,00990960627fa.jpg,,,,,,,,,,,,,,,
183,30,Memory,3,,,,,,,sunabgfhvifeijihhjw.jpg,,,,,,,,,,,,,,,
184,30,Memory,3,,,,,,,00882960530fa.jpg,,,,,,,,,,,,,,,
185,30,Memory,3,,,,,,,00870940307fa.jpg,,,,,,,,,,,,,,,
186,30,Memory,3,,,,,,,sunagufzbeteqdjxais.jpg,,,,,,,,,,,,,,,
187,30,Memory,3,,,,,,,sunaakxjfbrrequcjmx.jpg,,,,,,,,,,,,,,,
188,30,Memory,3,,,,,,,01003960627fb.jpg,,,,,,,,,,,,,,,
189,30,Memory,3,,,,,,,00841940307fa.jpg,,,,,,,,,,,,,,,
190,30,Memory,3,,,,,,,sunaafbmtoniaasysgu.jpg,,,,,,,,,,,,,,,
191,30,Memory,3,,,,,,,00260940128fa.jpg,,,,,,,,,,,,,,,
192,30,Memory,3,,,,,,,00122931230fa.jpg,,,,,,,,,,,,,,,
193,30,Memory,3,,,,,,,00719941201fa.jpg,,,,,,,,,,,,,,,
194,30,Memory,3,,,,,,,sunafxokyavhgptyfye.jpg,,,,,,,,,,,,,,,
195,30,Memory,3,,,,,,,sunaakqepfoeqomfgxf.jpg,,,,,,,,,,,,,,,
196,30,Memory,3,,,,,,,sunacvbrcejzwmcgnoq.jpg,,,,,,,,,,,,,,,
197,30,Memory,3,,,,,,,00768941205fa.jpg,,,,,,,,,,,,,,,
198,30,Memory,3,,,,,,,sunaatjesvdupctftmn.jpg,,,,,,,,,,,,,,,
199,30,Memory,3,,,,,,,00776941205fa.jpg,,,,,,,,,,,,,,,
200,30,Presentation,4,00778941205fa_sunagcthdfirrcawoic.jpg,00871940307_sunajrujcsdxmfbssmc.jpg,,,,,,,>,Face,,,,,1,,,,,,,x
201,30,Presentation,4,00124931230fa_sunaalhlvzmjmitybdn.jpg,00794960620fa_sunagtqhhwxjeuxdebe.jpg,,,,,,,<,Place,,,,,1,,,,,,,o
202,30,Presentation,4,00557940519fa_sunachtuarilwyqnvjx.jpg,00885960530fa_sunakwlvxjpddialozd.jpg,,,,,,,<,Face,,,,,0,,,,,,,o
203,30,Presentation,4,00884960530fa_sunakodkcslgqhqlgwl.jpg,00836940307fa_sunainqelldeebvxtcz.jpg,,,,,,,>,Place,,,,,1,,,,,,,x
204,30,Presentation,4,00754941201fa_sunaffgsyyvoqdlkmnk.jpg,00483940519fa_sunabyvpwkgsjtijdwj.jpg,,,,,,,<,Place,,,,,0,,,,,,,x
205,30,Presentation,4,00109931230fa_sunaajuzribjrizdshh.jpg,00937960627fa_sunaqsolmfydodnakub.jpg,,,,,,,>,Face,,,,,1,,,,,,,x
206,30,Presentation,4,00185940422fb_sunaawqdbpihmlbwyyn.jpg,00630941031fa_sunadakkdovnuzlycvp.jpg,,,,,,,>,Place,,,,,1,,,,,,,o
207,30,Presentation,4,00131931230fb_sunaangbuylfvckqqoo.jpg,00752960620fa_sunafbwnojpqeyzssoe.jpg,,,,,,,<,Place,,,,,1,,,,,,,o
208,30,Presentation,4,00957960627fa_sunavhxgmgrqsaptynb.jpg,00265940128fb_sunabkmdplkdbvxriff.jpg,,,,,,,<,Face,,,,,1,,,,,,,x
209,30,Presentation,4,00095931230fa_sunaahzooisqkwlxwoz.jpg,00647941031fa_sunadflbrkckmepztql.jpg,,,,,,,>,Face,,,,,1,,,,,,,o
210,30,Memory,4,,,,,,,sunabkmdplkdbvxriff.jpg,,,,,,,,,,,,,,,
211,30,Memory,4,,,,,,,00889960530fa.jpg,,,,,,,,,,,,,,,
212,30,Memory,4,,,,,,,00193940928fa.jpg,,,,,,,,,,,,,,,
213,30,Memory,4,,,,,,,sunacwggadqsfpovdjv.jpg,,,,,,,,,,,,,,,
214,30,Memory,4,,,,,,,sunaavchcbptaerhcfy.jpg,,,,,,,,,,,,,,,
215,30,Memory,4,,,,,,,00095931230fa.jpg,,,,,,,,,,,,,,,
216,30,Memory,4,,,,,,,sunabxmguapjekttvwm.jpg,,,,,,,,,,,,,,,
217,30,Memory,4,,,,,,,sunaawqdbpihmlbwyyn.jpg,,,,,,,,,,,,,,,
218,30,Memory,4,,,,,,,00630941031fa.jpg,,,,,,,,,,,,,,,
219,30,Memory,4,,,,,,,sunaletopenvvozhpxc.jpg,,,,,,,,,,,,,,,
220,30,Memory,4,,,,,,,sunagtqhhwxjeuxdebe.jpg,,,,,,,,,,,,,,,
221,30,Memory,4,,,,,,,sunaffgsyyvoqdlkmnk.jpg,,,,,,,,,,,,,,,
222,30,Memory,4,,,,,,,00957960627fa.jpg,,,,,,,,,,,,,,,
223,30,Memory,4,,,,,,,sunaaxjpzcnxligjtjq.jpg,,,,,,,,,,,,,,,
224,30,Memory,4,,,,,,,00589940928fa.jpg,,,,,,,,,,,,,,,
225,30,Memory,4,,,,,,,sunavhxgmgrqsaptynb.jpg,,,,,,,,,,,,,,,
226,30,Memory,4,,,,,,,00265940128fb.jpg,,,,,,,,,,,,,,,
227,30,Memory,4,,,,,,,00885960530fa.jpg,,,,,,,,,,,,,,,
228,30,Memory,4,,,,,,,sunbbhqyyzmsxhsbjmp.jpg,,,,,,,,,,,,,,,
229,30,Memory,4,,,,,,,00071940128fa.jpg,,,,,,,,,,,,,,,
230,30,Memory,4,,,,,,,sunaaexpnawiehinlpy.jpg,,,,,,,,,,,,,,,
231,30,Memory,4,,,,,,,00754941201fa.jpg,,,,,,,,,,,,,,,
232,30,Memory,4,,,,,,,00976960627fa.jpg,,,,,,,,,,,,,,,
233,30,Memory,4,,,,,,,00557940519fa.jpg,,,,,,,,,,,,,,,
234,30,Memory,4,,,,,,,sunakwlvxjpddialozd.jpg,,,,,,,,,,,,,,,
235,30,Memory,4,,,,,,,00988960627fa.jpg,,,,,,,,,,,,,,,
236,30,Memory,4,,,,,,,sunabohxbskznglnrhv.jpg,,,,,,,,,,,,,,,
237,30,Memory,4,,,,,,,00266940128fb.jpg,,,,,,,,,,,,,,,
238,30,Memory,4,,,,,,,00185940422fb.jpg,,,,,,,,,,,,,,,
239,30,Memory,4,,,,,,,sunaahzooisqkwlxwoz.jpg,,,,,,,,,,,,,,,
240,30,Memory,4,,,,,,,00280940422fb.jpg,,,,,,,,,,,,,,,
241,30,Memory,4,,,,,,,sunachtuarilwyqnvjx.jpg,,,,,,,,,,,,,,,
242,30,Memory,4,,,,,,,sunadakkdovnuzlycvp.jpg,,,,,,,,,,,,,,,
243,30,Memory,4,,,,,,,00647941031fa.jpg,,,,,,,,,,,,,,,
244,30,Memory,4,,,,,,,00316940422fa.jpg,,,,,,,,,,,,,,,
245,30,Memory,4,,,,,,,00794960620fa.jpg,,,,,,,,,,,,,,,
246,30,Memory,4,,,,,,,sunabkngeblodihjvbk.jpg,,,,,,,,,,,,,,,
247,30,Memory,4,,,,,,,00158931230fb.jpg,,,,,,,,,,,,,,,
248,30,Memory,4,,,,,,,sunbmaiocftdtvnzgap.jpg,,,,,,,,,,,,,,,
249,30,Memory,4,,,,,,,sunadflbrkckmepztql.jpg,,,,,,,,,,,,,,,
250,30,Presentation,5,00925960627fa_sunapqwnqzxlsfvgsjm.jpg,00086931230fa_sunaafynehyrzpsoaml.jpg,,,,,,,>,Face,,,,,1,,,,,,,o
251,30,Presentation,5,00197940128fa_sunaaylzyqlqrsmfwif.jpg,00636941031fa_sunaddtdkycxbqlpfqa.jpg,,,,,,,<,Place,,,,,1,,,,,,,o
252,30,Presentation,5,00966960627fa_sunaygrtwrwfezqjizr.jpg,00760960620fa_sunaffstbkappprzxnv.jpg,,,,,,,<,Face,,,,,1,,,,,,,o
253,30,Presentation,5,00936960627fa_sunaqgjuuwvdcyiccjt.jpg,00163931230fb_sunaavodbcpygkggnfp.jpg,,,,,,,<,Place,,,,,1,,,,,,,x
254,30,Presentation,5,00922960627fa_sunapqkyghktgtosuuk.jpg,00829940307fa_sunahwgbqkqcrwprgvh.jpg,,,,,,,<,Face,,,,,0,,,,,,,x
255,30,Presentation,5,00742941201fa_sunaenwuebvlpdmntju.jpg,00753941201fa_sunafcofuuzebuadceo.jpg,,,,,,,>,Face,,,,,1,,,,,,,x
256,30,Presentation,5,00108960530fa_sunaajtnvzzpsjdzres.jpg,00762941201fa_sunafgzgbisbopcyslr.jpg,,,,,,,<,Place,,,,,1,,,,,,,o
257,30,Presentation,5,00866940307fa_sunajbwkywmsqkldfml.jpg,00062931230fb_sunaaelotvjgibjtjhs.jpg,,,,,,,>,Place,,,,,1,,,,,,,x
258,30,Presentation,5,00811960530fa_sunahedfrhtcwpneund.jpg,00138931230fa_sunaapfaivxqoynnwwp.jpg,,,,,,,>,Face,,,,,1,,,,,,,o
259,30,Presentation,5,00481940519fa_sunabxsuqbleluwczoy.jpg,00126931230fb_sunaamdjwemxpmmtypi.jpg,,,,,,,>,Place,,,,,1,,,,,,,x
260,30,Memory,5,,,,,,,sunaygrtwrwfezqjizr.jpg,,,,,,,,,,,,,,,
261,30,Memory,5,,,,,,,00944960627fa.jpg,,,,,,,,,,,,,,,
262,30,Memory,5,,,,,,,00576941031fa.jpg,,,,,,,,,,,,,,,
263,30,Memory,5,,,,,,,00062931230fb.jpg,,,,,,,,,,,,,,,
264,30,Memory,5,,,,,,,sunaenwuebvlpdmntju.jpg,,,,,,,,,,,,,,,
265,30,Memory,5,,,,,,,sunacvjlsylseoghjup.jpg,,,,,,,,,,,,,,,
266,30,Memory,5,,,,,,,00829940307fa.jpg,,,,,,,,,,,,,,,
267,30,Memory,5,,,,,,,00163931230fb.jpg,,,,,,,,,,,,,,,
268,30,Memory,5,,,,,,,sunaqgjuuwvdcyiccjt.jpg,,,,,,,,,,,,,,,
269,30,Memory,5,,,,,,,00906960530fa.jpg,,,,,,,,,,,,,,,
270,30,Memory,5,,,,,,,00636941031fa.jpg,,,,,,,,,,,,,,,
271,30,Memory,5,,,,,,,sunafgzgbisbopcyslr.jpg,,,,,,,,,,,,,,,
272,30,Memory,5,,,,,,,sunbxarcshsnqsefemx.jpg,,,,,,,,,,,,,,,
273,30,Memory,5,,,,,,,00922960627fa.jpg,,,,,,,,,,,,,,,
274,30,Memory,5,,,,,,,01007960627fa.jpg,,,,,,,,,,,,,,,
275,30,Memory,5,,,,,,,sunahwgbqkqcrwprgvh.jpg,,,,,,,,,,,,,,,
276,30,Memory,5,,,,,,,00780960530fa.jpg,,,,,,,,,,,,,,,
277,30,Memory,5,,,,,,,00481940519fa.jpg,,,,,,,,,,,,,,,
278,30,Memory,5,,,,,,,00742941201fa.jpg,,,,,,,,,,,,,,,
279,30,Memory,5,,,,,,,sunaavodbcpygkggnfp.jpg,,,,,,,,,,,,,,,
280,30,Memory,5,,,,,,,sunasbbntuiheekqyaq.jpg,,,,,,,,,,,,,,,
281,30,Memory,5,,,,,,,sunagoufulkpsxrmklt.jpg,,,,,,,,,,,,,,,
282,30,Memory,5,,,,,,,sunaaelotvjgibjtjhs.jpg,,,,,,,,,,,,,,,
283,30,Memory,5,,,,,,,00154931230fa.jpg,,,,,,,,,,,,,,,
284,30,Memory,5,,,,,,,sunaamvxnvouicstkjb.jpg,,,,,,,,,,,,,,,
285,30,Memory,5,,,,,,,00903960620fa.jpg,,,,,,,,,,,,,,,
286,30,Memory,5,,,,,,,00966960627fa.jpg,,,,,,,,,,,,,,,
287,30,Memory,5,,,,,,,sunanainkqdvktzoxyl.jpg,,,,,,,,,,,,,,,
288,30,Memory,5,,,,,,,00936960627fa.jpg,,,,,,,,,,,,,,,
289,30,Memory,5,,,,,,,sunabxsuqbleluwczoy.jpg,,,,,,,,,,,,,,,
290,30,Memory,5,,,,,,,sunaauueuhhvklldjik.jpg,,,,,,,,,,,,,,,
291,30,Memory,5,,,,,,,00787960620fa.jpg,,,,,,,,,,,,,,,
292,30,Memory,5,,,,,,,sunagetqixeypsysbpn.jpg,,,,,,,,,,,,,,,
293,30,Memory,5,,,,,,,00978960627fa.jpg,,,,,,,,,,,,,,,
294,30,Memory,5,,,,,,,sunaddtdkycxbqlpfqa.jpg,,,,,,,,,,,,,,,
295,30,Memory,5,,,,,,,sunapqkyghktgtosuuk.jpg,,,,,,,,,,,,,,,
296,30,Memory,5,,,,,,,00130931230fa.jpg,,,,,,,,,,,,,,,
297,30,Memory,5,,,,,,,00762941201fa.jpg,,,,,,,,,,,,,,,
298,30,Memory,5,,,,,,,sunantryfbloeaomfta.jpg,,,,,,,,,,,,,,,
299,30,Memory,5,,,,,,,sunbddbivbptlrlauhy.jpg,,,,,,,,,,,,,,,
300,30,Presentation,6,00789960620fa_sunagpancjmxqfazssf.jpg,00194940128fb_sunaayehfdqcyxggsej.jpg,,,,,,,<,Face,,,,,1,,,,,,,o
301,30,Presentation,6,00063931230fa_sunaaelyvurpntclgau.jpg,00745941205fa_sunaeouogqolxvggaoq.jpg,,,,,,,<,Place,,,,,0,,,,,,,x
302,30,Presentation,6,00847940307fa_sunaivdjruhkrfywfed.jpg,00144931230fb_sunaathajvxrgptwhoj.jpg,,,,,,,>,Face,,,,,1,,,,,,,x
303,30,Presentation,6,00947960627fa_sunasmmcxdddtmtazwx.jpg,00296940422fa_sunabrwnslxalcohfre.jpg,,,,,,,<,Place,,,,,1,,,,,,,o
304,30,Presentation,6,00214940128fa_sunabbafjowbzcvbucc.jpg,00744941201fa_sunaeomlfaabhpswasy.jpg,,,,,,,>,Face,,,,,1,,,,,,,x
305,30,Presentation,6,00989960627fa_sunbondbduabvijnmch.jpg,00793941205fa_sunagtjwilqjvxohypn.jpg,,,,,,,>,Place,,,,,1,,,,,,,x
306,30,Presentation,6,00958960627fa_sunavspxmxubqaeidjt.jpg,00968960627fa_sunbagfpovqwbuexqdn.jpg,,,,,,,>,Face,,,,,1,,,,,,,x
307,30,Presentation,6,00630940928fa_sunaczwgyukesaajxnx.jpg,00670941121fa_sunadochqcucscehsgk.jpg,,,,,,,>,Place,,,,,1,,,,,,,o
308,30,Presentation,6,00746941201fa_sunaetydippjxikifsb.jpg,00071941031fa_sunaaexqbtdswxrqjvz.jpg,,,,,,,<,Place,,,,,1,,,,,,,o
309,30,Presentation,6,00705941205fa_sunadtlxenqqxsyjvix.jpg,00123931230fb_sunaalcrrdbjgdztbiz.jpg,,,,,,,<,Face,,,,,1,,,,,,,x
310,30,Memory,6,,,,,,,sunadzuvtmtmgupotmf.jpg,,,,,,,,,,,,,,,
311,30,Memory,6,,,,,,,00745941205fa.jpg,,,,,,,,,,,,,,,
312,30,Memory,6,,,,,,,00123931230fb.jpg,,,,,,,,,,,,,,,
313,30,Memory,6,,,,,,,sunbondbduabvijnmch.jpg,,,,,,,,,,,,,,,
314,30,Memory,6,,,,,,,00987960627fa.jpg,,,,,,,,,,,,,,,
315,30,Memory,6,,,,,,,sunasmmcxdddtmtazwx.jpg,,,,,,,,,,,,,,,
316,30,Memory,6,,,,,,,00598941031fa.jpg,,,,,,,,,,,,,,,
317,30,Memory,6,,,,,,,00947960627fa.jpg,,,,,,,,,,,,,,,
318,30,Memory,6,,,,,,,sunbagfpovqwbuexqdn.jpg,,,,,,,,,,,,,,,
319,30,Memory,6,,,,,,,sunbloeoiozwjjsiamp.jpg,,,,,,,,,,,,,,,
320,30,Memory,6,,,,,,,00968960627fa.jpg,,,,,,,,,,,,,,,
321,30,Memory,6,,,,,,,00221940128fa.jpg,,,,,,,,,,,,,,,
322,30,Memory,6,,,,,,,00063931230fa.jpg,,,,,,,,,,,,,,,
323,30,Memory,6,,,,,,,00314940422fa.jpg,,,,,,,,,,,,,,,
324,30,Memory,6,,,,,,,00194940128fb.jpg,,,,,,,,,,,,,,,
325,30,Memory,6,,,,,,,sunaeouogqolxvggaoq.jpg,,,,,,,,,,,,,,,
326,30,Memory,6,,,,,,,sunaayehfdqcyxggsej.jpg,,,,,,,,,,,,,,,
327,30,Memory,6,,,,,,,00793941205fa.jpg,,,,,,,,,,,,,,,
328,30,Memory,6,,,,,,,sunaivdjruhkrfywfed.jpg,,,,,,,,,,,,,,,
329,30,Memory,6,,,,,,,sunaaftlyfudyzuhqzf.jpg,,,,,,,,,,,,,,,
330,30,Memory,6,,,,,,,sunaakgekhjklxmvulj.jpg,,,,,,,,,,,,,,,
331,30,Memory,6,,,,,,,sunaczwgyukesaajxnx.jpg,,,,,,,,,,,,,,,
332,30,Memory,6,,,,,,,00081941031fa.jpg,,,,,,,,,,,,,,,
333,30,Memory,6,,,,,,,sunaalcrrdbjgdztbiz.jpg,,,,,,,,,,,,,,,
334,30,Memory,6,,,,,,,sunbprywzqxjcezkbch.jpg,,,,,,,,,,,,,,,
335,30,Memory,6,,,,,,,sunaakxgygjfqrzpyoz.jpg,,,,,,,,,,,,,,,
336,30,Memory,6,,,,,,,00111931230fb.jpg,,,,,,,,,,,,,,,
337,30,Memory,6,,,,,,,sunabcfpwlpolnutyju.jpg,,,,,,,,,,,,,,,
338,30,Memory,6,,,,,,,00719960620fa.jpg,,,,,,,,,,,,,,,
339,30,Memory,6,,,,,,,00120931230fa.jpg,,,,,,,,,,,,,,,
340,30,Memory,6,,,,,,,00847940307fa.jpg,,,,,,,,,,,,,,,
341,30,Memory,6,,,,,,,00989960627fa.jpg,,,,,,,,,,,,,,,
342,30,Memory,6,,,,,,,00218940128fa.jpg,,,,,,,,,,,,,,,
343,30,Memory,6,,,,,,,00993960627fa.jpg,,,,,,,,,,,,,,,
344,30,Memory,6,,,,,,,sunabwmcbaxwioksdgw.jpg,,,,,,,,,,,,,,,
345,30,Memory,6,,,,,,,00630940928fa.jpg,,,,,,,,,,,,,,,
346,30,Memory,6,,,,,,,sunaaelyvurpntclgau.jpg,,,,,,,,,,,,,,,
347,30,Memory,6,,,,,,,sunacxtcahkymosigud.jpg,,,,,,,,,,,,,,,
348,30,Memory,6,,,,,,,sunabbwggenhfbftyvi.jpg,,,,,,,,,,,,,,,
349,30,Memory,6,,,,,,,sunagtjwilqjvxohypn.jpg,,,,,,,,,,,,,,,
350,30,Presentation,7,00874940307fa_sunajtrfunvzdfticna.jpg,00115931230fa_sunaakmxzhuceuiryah.jpg,,,,,,,>,Place,,,,,1,,,,,,,o
351,30,Presentation,7,00977960627fa_sunbbxkanhzjgbwyxqs.jpg,00750941201fa_sunaeuzwggvibufclwf.jpg,,,,,,,<,Place,,,,,1,,,,,,,x
352,30,Presentation,7,00965960627fa_sunaydywdmvlfddbxbk.jpg,00694941121fa_sunadrmfzmstgdjdcod.jpg,,,,,,,>,Place,,,,,1,,,,,,,x
353,30,Presentation,7,00970960627fa_sunbasypfgzjtomktmu.jpg,00868960307fa_sunajjxttslobudoqbv.jpg,,,,,,,>,Face,,,,,1,,,,,,,o
354,30,Presentation,7,00902960530fa_sunanaacmmosxrfwmvl.jpg,00985960627fa_sunbgklxeqjhdbyfhhy.jpg,,,,,,,<,Face,,,,,1,,,,,,,o
355,30,Presentation,7,00919960620fa_sunapmfmzadmosuogaz.jpg,00858940307fa_sunaixpqndlwhwjtjek.jpg,,,,,,,>,Place,,,,,1,,,,,,,o
356,30,Presentation,7,00952960627fa_sunathzzbcwjykldrem.jpg,00905960530fa_sunanmoqeyprjjjfxjt.jpg,,,,,,,<,Face,,,,,1,,,,,,,x
357,30,Presentation,7,00942960627fa_sunarfdklgdnjgeqfjg.jpg,00839940307fa_sunaipyohrqlwngaqif.jpg,,,,,,,>,Face,,,,,1,,,,,,,x
358,30,Presentation,7,00784941205fb_sunagjzcrjvmxzqzljx.jpg,00209940128fb_sunabaergayifsgacxt.jpg,,,,,,,<,Face,,,,,1,,,,,,,x
359,30,Presentation,7,00807941205fa_sunahawfngukizslzsd.jpg,00571940928fa_sunacuatpqpqhyjhjqk.jpg,,,,,,,<,Place,,,,,1,,,,,,,o
360,30,Memory,7,,,,,,,sunaafjszryxyavjzln.jpg,,,,,,,,,,,,,,,
361,30,Memory,7,,,,,,,00209940128fb.jpg,,,,,,,,,,,,,,,
362,30,Memory,7,,,,,,,00970960627fa.jpg,,,,,,,,,,,,,,,
363,30,Memory,7,,,,,,,00750941201fa.jpg,,,,,,,,,,,,,,,
364,30,Memory,7,,,,,,,sunaizeyhvjzknwjudw.jpg,,,,,,,,,,,,,,,
365,30,Memory,7,,,,,,,00860940307fa.jpg,,,,,,,,,,,,,,,
366,30,Memory,7,,,,,,,sunanmoqeyprjjjfxjt.jpg,,,,,,,,,,,,,,,
367,30,Memory,7,,,,,,,00777941205fa.jpg,,,,,,,,,,,,,,,
368,30,Memory,7,,,,,,,sunadrmfzmstgdjdcod.jpg,,,,,,,,,,,,,,,
369,30,Memory,7,,,,,,,sunapwjkcxdaeqehfql.jpg,,,,,,,,,,,,,,,
370,30,Memory,7,,,,,,,00650941031fa.jpg,,,,,,,,,,,,,,,
371,30,Memory,7,,,,,,,00694941121fa.jpg,,,,,,,,,,,,,,,
372,30,Memory,7,,,,,,,sunaeuzwggvibufclwf.jpg,,,,,,,,,,,,,,,
373,30,Memory,7,,,,,,,sunarfdklgdnjgeqfjg.jpg,,,,,,,,,,,,,,,
374,30,Memory,7,,,,,,,sunbgklxeqjhdbyfhhy.jpg,,,,,,,,,,,,,,,
375,30,Memory,7,,,,,,,00080931230fb.jpg,,,,,,,,,,,,,,,
376,30,Memory,7,,,,,,,00070940307fa.jpg,,,,,,,,,,,,,,,
377,30,Memory,7,,,,,,,sunbesrwkdsffeogeqq.jpg,,,,,,,,,,,,,,,
378,30,Memory,7,,,,,,,sunaaeplwsfslcbtojr.jpg,,,,,,,,,,,,,,,
379,30,Memory,7,,,,,,,00127931230fa.jpg,,,,,,,,,,,,,,,
380,30,Memory,7,,,,,,,00807941205fa.jpg,,,,,,,,,,,,,,,
381,30,Memory,7,,,,,,,00963960627fa.jpg,,,,,,,,,,,,,,,
382,30,Memory,7,,,,,,,sunaydywdmvlfddbxbk.jpg,,,,,,,,,,,,,,,
383,30,Memory,7,,,,,,,00985960627fa.jpg,,,,,,,,,,,,,,,
384,30,Memory,7,,,,,,,00942960627fa.jpg,,,,,,,,,,,,,,,
385,30,Memory,7,,,,,,,sunadikxpvqeabxrvvc.jpg,,,,,,,,,,,,,,,
386,30,Memory,7,,,,,,,sunahqrxievfeusiqlt.jpg,,,,,,,,,,,,,,,
387,30,Memory,7,,,,,,,sunaampvucecsfbdafn.jpg,,,,,,,,,,,,,,,
388,30,Memory,7,,,,,,,00965960627fa.jpg,,,,,,,,,,,,,,,
389,30,Memory,7,,,,,,,00784941205fb.jpg,,,,,,,,,,,,,,,
390,30,Memory,7,,,,,,,00933960627fa.jpg,,,,,,,,,,,,,,,
391,30,Memory,7,,,,,,,sunahawfngukizslzsd.jpg,,,,,,,,,,,,,,,
392,30,Memory,7,,,,,,,sunagjzcrjvmxzqzljx.jpg,,,,,,,,,,,,,,,
393,30,Memory,7,,,,,,,sunbasypfgzjtomktmu.jpg,,,,,,,,,,,,,,,
394,30,Memory,7,,,,,,,00905960530fa.jpg,,,,,,,,,,,,,,,
395,30,Memory,7,,,,,,,00822940307fa.jpg,,,,,,,,,,,,,,,
396,30,Memory,7,,,,,,,sunayaepykrqvenaqqy.jpg,,,,,,,,,,,,,,,
397,30,Memory,7,,,,,,,00982960627fa.jpg,,,,,,,,,,,,,,,
398,30,Memory,7,,,,,,,sunagcinxkccdtrjmlv.jpg,,,,,,,,,,,,,,,
399,30,Memory,7,,,,,,,sunabaergayifsgacxt.jpg,,,,,,,,,,,,,,,
