,Subject,Trial Type,Run,Cued Composite,Uncued Composite,Cued Face,Cued Place,Uncued Face,Uncued Place,Memory Image,Category,Cued Side,Cued Category,Attention Reaction Time (s),Familiarity Reaction Time (s),Familiarity Rating,Attention Level,Cue Validity,Post Invalid Cue,Pre Invalid Cue,Attention Button,Rating History,Stimulus Onset,Stimulus End,Attention Probe
0,kk,Presentation,0,00812941205fa_sunahgtbwgsmtqeodwh.jpg,00112931230fa_sunaakjaacuzulqckgl.jpg,00812941205fa.jpg,sunahgtbwgsmtqeodwh.jpg,00112931230fa.jpg,sunaakjaacuzulqckgl.jpg,,,<,Place,,,,,1,,,,,,,x
1,kk,Presentation,0,00564940928fa_sunacmpqqfbsvlzinzl.jpg,00750941201fa_sunaeuzwggvibufclwf.jpg,00564940928fa.jpg,sunacmpqqfbsvlzinzl.jpg,00750941201fa.jpg,sunaeuzwggvibufclwf.jpg,,,<,Place,,,,,1,,,,,,,x
2,kk,Presentation,0,00968960627fa_sunbagfpovqwbuexqdn.jpg,00955960627fb_sunauburywlkjszngcq.jpg,00968960627fa.jpg,sunbagfpovqwbuexqdn.jpg,00955960627fb.jpg,sunauburywlkjszngcq.jpg,,,<,Place,,,,,1,,,,,,,x
3,kk,Presentation,0,00598941031fa_sunacxtcahkymosigud.jpg,00773960620fa_sunafvsxtzaizojicxx.jpg,00598941031fa.jpg,sunacxtcahkymosigud.jpg,00773960620fa.jpg,sunafvsxtzaizojicxx.jpg,,,<,Place,,,,,1,,,,,,,o
4,kk,Presentation,0,00868960307fa_sunajjxttslobudoqbv.jpg,00482940519fa_sunabyfxcxhdebvdyfd.jpg,00868960307fa.jpg,sunajjxttslobudoqbv.jpg,00482940519fa.jpg,sunabyfxcxhdebvdyfd.jpg,,,<,Place,,,,,1,,,,,,,o
5,kk,Presentation,0,00792941205fa_sunagsiwrmuixqgdimb.jpg,00675941121fa_sunadoxcchtmsxewsau.jpg,00792941205fa.jpg,sunagsiwrmuixqgdimb.jpg,00675941121fa.jpg,sunadoxcchtmsxewsau.jpg,,,<,Place,,,,,1,,,,,,,o
6,kk,Presentation,0,00198940128fb_sunaazezcsunmhttzxz.jpg,00828940307fa_sunahuynahneraqftyz.jpg,00198940128fb.jpg,sunaazezcsunmhttzxz.jpg,00828940307fa.jpg,sunahuynahneraqftyz.jpg,,,<,Place,,,,,1,,,,,,,o
7,kk,Presentation,0,00866940307fa_sunajbwkywmsqkldfml.jpg,00870940307fa_sunajrgtewnualfcerj.jpg,00866940307fa.jpg,sunajbwkywmsqkldfml.jpg,00870940307fa.jpg,sunajrgtewnualfcerj.jpg,,,<,Place,,,,,1,,,,,,,o
8,kk,Presentation,0,00093931230fa_sunaahwnmtqsrhocysw.jpg,00209940128fb_sunabaergayifsgacxt.jpg,00093931230fa.jpg,sunaahwnmtqsrhocysw.jpg,00209940128fb.jpg,sunabaergayifsgacxt.jpg,,,<,Place,,,,,1,,,,,,,o
9,kk,Presentation,0,00063931230fa_sunaaelyvurpntclgau.jpg,00082931230fa_sunaafvitpexrpvumsa.jpg,00063931230fa.jpg,sunaaelyvurpntclgau.jpg,00082931230fa.jpg,sunaafvitpexrpvumsa.jpg,,,<,Place,,,,,1,,,,,,,o
10,kk,Memory,0,,,,,,,sunabaergayifsgacxt.jpg,,,,,,,,,,,,,,,
11,kk,Memory,0,,,,,,,00082931230fa.jpg,,,,,,,,,,,,,,,
12,kk,Memory,0,,,,,,,00598941031fa.jpg,,,,,,,,,,,,,,,
13,kk,Memory,0,,,,,,,sunabyfxcxhdebvdyfd.jpg,,,,,,,,,,,,,,,
14,kk,Memory,0,,,,,,,sunajjxttslobudoqbv.jpg,,,,,,,,,,,,,,,
15,kk,Memory,0,,,,,,,00564940928fa.jpg,,,,,,,,,,,,,,,
16,kk,Memory,0,,,,,,,sunacycdoztxoluxjyk.jpg,,,,,,,,,,,,,,,
17,kk,Memory,0,,,,,,,00895960530fa.jpg,,,,,,,,,,,,,,,
18,kk,Memory,0,,,,,,,sunauburywlkjszngcq.jpg,,,,,,,,,,,,,,,
19,kk,Memory,0,,,,,,,00828940307fa.jpg,,,,,,,,,,,,,,,
20,kk,Memory,0,,,,,,,sunahgtbwgsmtqeodwh.jpg,,,,,,,,,,,,,,,
21,kk,Memory,0,,,,,,,00557940519fa.jpg,,,,,,,,,,,,,,,
22,kk,Memory,0,,,,,,,sunamczizlzavhzhpay.jpg,,,,,,,,,,,,,,,
23,kk,Memory,0,,,,,,,00265940128fb.jpg,,,,,,,,,,,,,,,
24,kk,Memory,0,,,,,,,sunajbwkywmsqkldfml.jpg,,,,,,,,,,,,,,,
25,kk,Memory,0,,,,,,,sunachtuarilwyqnvjx.jpg,,,,,,,,,,,,,,,
26,kk,Memory,0,,,,,,,sunahuynahneraqftyz.jpg,,,,,,,,,,,,,,,
27,kk,Memory,0,,,,,,,00209940128fb.jpg,,,,,,,,,,,,,,,
28,kk,Memory,0,,,,,,,sunacmpqqfbsvlzinzl.jpg,,,,,,,,,,,,,,,
29,kk,Memory,0,,,,,,,sundbixjudsgeuuehrn.jpg,,,,,,,,,,,,,,,
30,kk,Memory,0,,,,,,,sunacxtcahkymosigud.jpg,,,,,,,,,,,,,,,
31,kk,Memory,0,,,,,,,sunaaftlyfudyzuhqzf.jpg,,,,,,,,,,,,,,,
32,kk,Memory,0,,,,,,,00081941031fa.jpg,,,,,,,,,,,,,,,
33,kk,Memory,0,,,,,,,sunaafvitpexrpvumsa.jpg,,,,,,,,,,,,,,,
34,kk,Memory,0,,,,,,,sunavspxmxubqaeidjt.jpg,,,,,,,,,,,,,,,
35,kk,Memory,0,,,,,,,00783941205fa.jpg,,,,,,,,,,,,,,,
36,kk,Memory,0,,,,,,,00127931230fa.jpg,,,,,,,,,,,,,,,
37,kk,Memory,0,,,,,,,00955960627fb.jpg,,,,,,,,,,,,,,,
38,kk,Memory,0,,,,,,,00609940928fa.jpg,,,,,,,,,,,,,,,
39,kk,Memory,0,,,,,,,01207940128fa.jpg,,,,,,,,,,,,,,,
40,kk,Memory,0,,,,,,,sunabkmdplkdbvxriff.jpg,,,,,,,,,,,,,,,
41,kk,Memory,0,,,,,,,sunaivdylrawbmhryfp.jpg,,,,,,,,,,,,,,,
42,kk,Memory,0,,,,,,,00482940519fa.jpg,,,,,,,,,,,,,,,
43,kk,Memory,0,,,,,,,00812941205fa.jpg,,,,,,,,,,,,,,,
44,kk,Memory,0,,,,,,,00848940307fa.jpg,,,,,,,,,,,,,,,
45,kk,Memory,0,,,,,,,sunagjeesomrwjsfqie.jpg,,,,,,,,,,,,,,,
46,kk,Memory,0,,,,,,,00868960307fa.jpg,,,,,,,,,,,,,,,
47,kk,Memory,0,,,,,,,00866940307fa.jpg,,,,,,,,,,,,,,,
48,kk,Memory,0,,,,,,,00958960627fa.jpg,,,,,,,,,,,,,,,
49,kk,Memory,0,,,,,,,sunaampvucecsfbdafn.jpg,,,,,,,,,,,,,,,
50,kk,Presentation,1,00620940928fa_sunacypmnujalygkunp.jpg,00133931230fa_sunaanlwnpqndclffxt.jpg,00620940928fa.jpg,sunacypmnujalygkunp.jpg,00133931230fa.jpg,sunaanlwnpqndclffxt.jpg,,,>,Place,,,,,1,,,,,,,o
51,kk,Presentation,1,00630940928fa_sunaczwgyukesaajxnx.jpg,00914960620fa_sunaozisvwfbmlkfhzv.jpg,00630940928fa.jpg,sunaczwgyukesaajxnx.jpg,00914960620fa.jpg,sunaozisvwfbmlkfhzv.jpg,,,>,Place,,,,,0,,,,,,,x
52,kk,Presentation,1,00308940422fb_sunabwfvcqqidycwypa.jpg,00903960620fa_sunanainkqdvktzoxyl.jpg,00308940422fb.jpg,sunabwfvcqqidycwypa.jpg,00903960620fa.jpg,sunanainkqdvktzoxyl.jpg,,,>,Place,,,,,1,,,,,,,o
53,kk,Presentation,1,00211940128fa_sunabasphceswhwwqvv.jpg,00571940928fa_sunacuatpqpqhyjhjqk.jpg,00211940128fa.jpg,sunabasphceswhwwqvv.jpg,00571940928fa.jpg,sunacuatpqpqhyjhjqk.jpg,,,>,Place,,,,,1,,,,,,,x
54,kk,Presentation,1,00882960530fa_sunaknlirqjqiwbbeeg.jpg,00294940422fb_sunabrlndkruqokhury.jpg,00882960530fa.jpg,sunaknlirqjqiwbbeeg.jpg,00294940422fb.jpg,sunabrlndkruqokhury.jpg,,,>,Place,,,,,1,,,,,,,o
55,kk,Presentation,1,00805941205fa_sunagwzdbtlixdhgolm.jpg,00822940307fa_sunahqrxievfeusiqlt.jpg,00805941205fa.jpg,sunagwzdbtlixdhgolm.jpg,00822940307fa.jpg,sunahqrxievfeusiqlt.jpg,,,>,Place,,,,,1,,,,,,,o
56,kk,Presentation,1,00788941205fa_sunagountlxpzkytsmp.jpg,00760960620fa_sunaffstbkappprzxnv.jpg,00788941205fa.jpg,sunagountlxpzkytsmp.jpg,00760960620fa.jpg,sunaffstbkappprzxnv.jpg,,,>,Place,,,,,1,,,,,,,x
57,kk,Presentation,1,00581940928fa_sunacvzhvcksnwqcqbw.jpg,00766960620fa_sunafijbgncijwykrnl.jpg,00581940928fa.jpg,sunacvzhvcksnwqcqbw.jpg,00766960620fa.jpg,sunafijbgncijwykrnl.jpg,,,>,Place,,,,,0,,,,,,,o
58,kk,Presentation,1,00978960627fa_sunbddbivbptlrlauhy.jpg,00635941031fa_sunaddsaeicthrfbkhe.jpg,00978960627fa.jpg,sunbddbivbptlrlauhy.jpg,00635941031fa.jpg,sunaddsaeicthrfbkhe.jpg,,,>,Place,,,,,1,,,,,,,x
59,kk,Presentation,1,00799941205fa_sunagutjvdvnhxejerz.jpg,00742941201fa_sunaenwuebvlpdmntju.jpg,00799941205fa.jpg,sunagutjvdvnhxejerz.jpg,00742941201fa.jpg,sunaenwuebvlpdmntju.jpg,,,>,Place,,,,,1,,,,,,,x
60,kk,Memory,1,,,,,,,sunagountlxpzkytsmp.jpg,,,,,,,,,,,,,,,
61,kk,Memory,1,,,,,,,00638941031fa.jpg,,,,,,,,,,,,,,,
62,kk,Memory,1,,,,,,,sunaaylzyqlqrsmfwif.jpg,,,,,,,,,,,,,,,
63,kk,Memory,1,,,,,,,sunaknlirqjqiwbbeeg.jpg,,,,,,,,,,,,,,,
64,kk,Memory,1,,,,,,,00788941205fa.jpg,,,,,,,,,,,,,,,
65,kk,Memory,1,,,,,,,00882960530fa.jpg,,,,,,,,,,,,,,,
66,kk,Memory,1,,,,,,,00620940928fa.jpg,,,,,,,,,,,,,,,
67,kk,Memory,1,,,,,,,sunaenwuebvlpdmntju.jpg,,,,,,,,,,,,,,,
68,kk,Memory,1,,,,,,,00787960620fa.jpg,,,,,,,,,,,,,,,
69,kk,Memory,1,,,,,,,00571940928fa.jpg,,,,,,,,,,,,,,,
70,kk,Memory,1,,,,,,,sunadfktsqjthoglcsm.jpg,,,,,,,,,,,,,,,
71,kk,Memory,1,,,,,,,00791941205fa.jpg,,,,,,,,,,,,,,,
72,kk,Memory,1,,,,,,,sunaavjinpnkappuonm.jpg,,,,,,,,,,,,,,,
73,kk,Memory,1,,,,,,,sunaozisvwfbmlkfhzv.jpg,,,,,,,,,,,,,,,
74,kk,Memory,1,,,,,,,00133931230fa.jpg,,,,,,,,,,,,,,,
75,kk,Memory,1,,,,,,,00162931230fb.jpg,,,,,,,,,,,,,,,
76,kk,Memory,1,,,,,,,00197940128fa.jpg,,,,,,,,,,,,,,,
77,kk,Memory,1,,,,,,,00796941205fa.jpg,,,,,,,,,,,,,,,
78,kk,Memory,1,,,,,,,sunabclssnoeuigtawp.jpg,,,,,,,,,,,,,,,
79,kk,Memory,1,,,,,,,sunaanlwnpqndclffxt.jpg,,,,,,,,,,,,,,,
80,kk,Memory,1,,,,,,,sunagoufulkpsxrmklt.jpg,,,,,,,,,,,,,,,
81,kk,Memory,1,,,,,,,00630940928fa.jpg,,,,,,,,,,,,,,,
82,kk,Memory,1,,,,,,,sunaguchqqnrtodtezq.jpg,,,,,,,,,,,,,,,
83,kk,Memory,1,,,,,,,sunaczwgyukesaajxnx.jpg,,,,,,,,,,,,,,,
84,kk,Memory,1,,,,,,,sunacypmnujalygkunp.jpg,,,,,,,,,,,,,,,
85,kk,Memory,1,,,,,,,sunajtrfunvzdfticna.jpg,,,,,,,,,,,,,,,
86,kk,Memory,1,,,,,,,00777941205fa.jpg,,,,,,,,,,,,,,,
87,kk,Memory,1,,,,,,,sunbpflsdaxnddnwcqi.jpg,,,,,,,,,,,,,,,
88,kk,Memory,1,,,,,,,sunaddsaeicthrfbkhe.jpg,,,,,,,,,,,,,,,
89,kk,Memory,1,,,,,,,00635941031fa.jpg,,,,,,,,,,,,,,,
90,kk,Memory,1,,,,,,,sunagcinxkccdtrjmlv.jpg,,,,,,,,,,,,,,,
91,kk,Memory,1,,,,,,,00978960627fa.jpg,,,,,,,,,,,,,,,
92,kk,Memory,1,,,,,,,00874940307fa.jpg,,,,,,,,,,,,,,,
93,kk,Memory,1,,,,,,,00742941201fa.jpg,,,,,,,,,,,,,,,
94,kk,Memory,1,,,,,,,sunbddbivbptlrlauhy.jpg,,,,,,,,,,,,,,,
95,kk,Memory,1,,,,,,,00235940128fb.jpg,,,,,,,,,,,,,,,
96,kk,Memory,1,,,,,,,sunacuatpqpqhyjhjqk.jpg,,,,,,,,,,,,,,,
97,kk,Memory,1,,,,,,,00990960627fa.jpg,,,,,,,,,,,,,,,
98,kk,Memory,1,,,,,,,sunagrmyoovzukhxmlo.jpg,,,,,,,,,,,,,,,
99,kk,Memory,1,,,,,,,00914960620fa.jpg,,,,,,,,,,,,,,,
100,kk,Presentation,2,00996960627fa_sunbpvgllfdejxcpjqp.jpg,00290940422fa_sunabqowuarvqqcnipn.jpg,00996960627fa.jpg,sunbpvgllfdejxcpjqp.jpg,00290940422fa.jpg,sunabqowuarvqqcnipn.jpg,,,<,Face,,,,,1,,,,,,,x
101,kk,Presentation,2,00061931230fb_sunaaekxzjzrfgtkwjf.jpg,00819940307fa_sunahqldjibofgsfdgb.jpg,00061931230fb.jpg,sunaaekxzjzrfgtkwjf.jpg,00819940307fa.jpg,sunahqldjibofgsfdgb.jpg,,,<,Face,,,,,1,,,,,,,o
102,kk,Presentation,2,00080931230fb_sunaafjszryxyavjzln.jpg,00647941031fa_sunadflbrkckmepztql.jpg,00080931230fb.jpg,sunaafjszryxyavjzln.jpg,00647941031fa.jpg,sunadflbrkckmepztql.jpg,,,<,Face,,,,,1,,,,,,,x
103,kk,Presentation,2,00153931230fa_sunaauhozyxzeeqstxi.jpg,00589940928fa_sunacwggadqsfpovdjv.jpg,00153931230fa.jpg,sunaauhozyxzeeqstxi.jpg,00589940928fa.jpg,sunacwggadqsfpovdjv.jpg,,,<,Face,,,,,1,,,,,,,x
104,kk,Presentation,2,00060931230fa_sunaaehaikpckyjsety.jpg,00905960530fa_sunanmoqeyprjjjfxjt.jpg,00060931230fa.jpg,sunaaehaikpckyjsety.jpg,00905960530fa.jpg,sunanmoqeyprjjjfxjt.jpg,,,<,Face,,,,,0,,,,,,,o
105,kk,Presentation,2,00929960627fa_sunaprnrbmgkomdbchr.jpg,00854940307fa_sunaiwduelojtwaqeyh.jpg,00929960627fa.jpg,sunaprnrbmgkomdbchr.jpg,00854940307fa.jpg,sunaiwduelojtwaqeyh.jpg,,,<,Face,,,,,1,,,,,,,o
106,kk,Presentation,2,00957960627fa_sunavhxgmgrqsaptynb.jpg,00973960627fa_sunbbgtoeuzierkkajt.jpg,00957960627fa.jpg,sunavhxgmgrqsaptynb.jpg,00973960627fa.jpg,sunbbgtoeuzierkkajt.jpg,,,<,Face,,,,,1,,,,,,,x
107,kk,Presentation,2,00858940307fa_sunaixpqndlwhwjtjek.jpg,00479940519fa_sunabxsbfwjccqxxzxq.jpg,00858940307fa.jpg,sunaixpqndlwhwjtjek.jpg,00479940519fa.jpg,sunabxsbfwjccqxxzxq.jpg,,,<,Face,,,,,1,,,,,,,x
108,kk,Presentation,2,00245940128fa_sunabeyhmxodahoieyk.jpg,00971960627fa_sunbbegcweqnetpdlrh.jpg,00245940128fa.jpg,sunabeyhmxodahoieyk.jpg,00971960627fa.jpg,sunbbegcweqnetpdlrh.jpg,,,<,Face,,,,,1,,,,,,,o
109,kk,Presentation,2,00097931230fa_sunaajayojuslbbnneg.jpg,00598940928fa_sunacxeheuiigkcgquf.jpg,00097931230fa.jpg,sunaajayojuslbbnneg.jpg,00598940928fa.jpg,sunacxeheuiigkcgquf.jpg,,,<,Face,,,,,1,,,,,,,o
110,kk,Memory,2,,,,,,,sunanaacmmosxrfwmvl.jpg,,,,,,,,,,,,,,,
111,kk,Memory,2,,,,,,,sunbgklxeqjhdbyfhhy.jpg,,,,,,,,,,,,,,,
112,kk,Memory,2,,,,,,,sunabxsbfwjccqxxzxq.jpg,,,,,,,,,,,,,,,
113,kk,Memory,2,,,,,,,00869940307fa.jpg,,,,,,,,,,,,,,,
114,kk,Memory,2,,,,,,,00957960627fa.jpg,,,,,,,,,,,,,,,
115,kk,Memory,2,,,,,,,sunaauhozyxzeeqstxi.jpg,,,,,,,,,,,,,,,
116,kk,Memory,2,,,,,,,00902960530fa.jpg,,,,,,,,,,,,,,,
117,kk,Memory,2,,,,,,,sunacxeheuiigkcgquf.jpg,,,,,,,,,,,,,,,
118,kk,Memory,2,,,,,,,00262940128fa.jpg,,,,,,,,,,,,,,,
119,kk,Memory,2,,,,,,,sunanmoqeyprjjjfxjt.jpg,,,,,,,,,,,,,,,
120,kk,Memory,2,,,,,,,sunadflbrkckmepztql.jpg,,,,,,,,,,,,,,,
121,kk,Memory,2,,,,,,,sunaafjszryxyavjzln.jpg,,,,,,,,,,,,,,,
122,kk,Memory,2,,,,,,,sunaaehaikpckyjsety.jpg,,,,,,,,,,,,,,,
123,kk,Memory,2,,,,,,,00153931230fa.jpg,,,,,,,,,,,,,,,
124,kk,Memory,2,,,,,,,00483940519fa.jpg,,,,,,,,,,,,,,,
125,kk,Memory,2,,,,,,,00479940519fa.jpg,,,,,,,,,,,,,,,
126,kk,Memory,2,,,,,,,00598940928fa.jpg,,,,,,,,,,,,,,,
127,kk,Memory,2,,,,,,,sunbxarcshsnqsefemx.jpg,,,,,,,,,,,,,,,
128,kk,Memory,2,,,,,,,00961960627fa.jpg,,,,,,,,,,,,,,,
129,kk,Memory,2,,,,,,,sunabgfhvifeijihhjw.jpg,,,,,,,,,,,,,,,
130,kk,Memory,2,,,,,,,sunaiycurtqsfkvcaso.jpg,,,,,,,,,,,,,,,
131,kk,Memory,2,,,,,,,00080931230fb.jpg,,,,,,,,,,,,,,,
132,kk,Memory,2,,,,,,,00060931230fa.jpg,,,,,,,,,,,,,,,
133,kk,Memory,2,,,,,,,00859940307fa.jpg,,,,,,,,,,,,,,,
134,kk,Memory,2,,,,,,,01007960627fa.jpg,,,,,,,,,,,,,,,
135,kk,Memory,2,,,,,,,sunajoveqhiprwqgoco.jpg,,,,,,,,,,,,,,,
136,kk,Memory,2,,,,,,,00260940128fa.jpg,,,,,,,,,,,,,,,
137,kk,Memory,2,,,,,,,00996960627fa.jpg,,,,,,,,,,,,,,,
138,kk,Memory,2,,,,,,,sunbbgtoeuzierkkajt.jpg,,,,,,,,,,,,,,,
139,kk,Memory,2,,,,,,,sunabyvpwkgsjtijdwj.jpg,,,,,,,,,,,,,,,
140,kk,Memory,2,,,,,,,00973960627fa.jpg,,,,,,,,,,,,,,,
141,kk,Memory,2,,,,,,,sunbpvgllfdejxcpjqp.jpg,,,,,,,,,,,,,,,
142,kk,Memory,2,,,,,,,sunavhxgmgrqsaptynb.jpg,,,,,,,,,,,,,,,
143,kk,Memory,2,,,,,,,00630941031fa.jpg,,,,,,,,,,,,,,,
144,kk,Memory,2,,,,,,,sunadakkdovnuzlycvp.jpg,,,,,,,,,,,,,,,
145,kk,Memory,2,,,,,,,00905960530fa.jpg,,,,,,,,,,,,,,,
146,kk,Memory,2,,,,,,,sunawotxrevnqvamsfp.jpg,,,,,,,,,,,,,,,
147,kk,Memory,2,,,,,,,00647941031fa.jpg,,,,,,,,,,,,,,,
148,kk,Memory,2,,,,,,,sunabizydfotqddlnjp.jpg,,,,,,,,,,,,,,,
149,kk,Memory,2,,,,,,,00985960627fa.jpg,,,,,,,,,,,,,,,
150,kk,Presentation,3,00648941031fa_sunadfndyrtqqiasoig.jpg,00993960627fa_sunbprywzqxjcezkbch.jpg,00648941031fa.jpg,sunadfndyrtqqiasoig.jpg,00993960627fa.jpg,sunbprywzqxjcezkbch.jpg,,,>,Face,,,,,1,,,,,,,x
151,kk,Presentation,3,00789960620fa_sunagpancjmxqfazssf.jpg,00891960530fa_sunalkiibhqpxfamlll.jpg,00789960620fa.jpg,sunagpancjmxqfazssf.jpg,00891960530fa.jpg,sunalkiibhqpxfamlll.jpg,,,>,Face,,,,,1,,,,,,,o
152,kk,Presentation,3,00073931230fa_sunaafbmtoniaasysgu.jpg,00564941031fa_sunacsaovnjezqwbykf.jpg,00073931230fa.jpg,sunaafbmtoniaasysgu.jpg,00564941031fa.jpg,sunacsaovnjezqwbykf.jpg,,,>,Face,,,,,1,,,,,,,x
153,kk,Presentation,3,00976960627fa_sunbbhqyyzmsxhsbjmp.jpg,00744941201fa_sunaeomlfaabhpswasy.jpg,00976960627fa.jpg,sunbbhqyyzmsxhsbjmp.jpg,00744941201fa.jpg,sunaeomlfaabhpswasy.jpg,,,>,Face,,,,,0,,,,,,,x
154,kk,Presentation,3,00095931230fa_sunaahzooisqkwlxwoz.jpg,00115931230fa_sunaakmxzhuceuiryah.jpg,00095931230fa.jpg,sunaahzooisqkwlxwoz.jpg,00115931230fa.jpg,sunaakmxzhuceuiryah.jpg,,,>,Face,,,,,1,,,,,,,o
155,kk,Presentation,3,00676941121fa_sunadpnqovzckyikrjo.jpg,00770941201fa_sunaflojskatpeqyzqp.jpg,00676941121fa.jpg,sunadpnqovzckyikrjo.jpg,00770941201fa.jpg,sunaflojskatpeqyzqp.jpg,,,>,Face,,,,,1,,,,,,,o
156,kk,Presentation,3,00670941121fa_sunadochqcucscehsgk.jpg,00130931230fa_sunaamvxnvouicstkjb.jpg,00670941121fa.jpg,sunadochqcucscehsgk.jpg,00130931230fa.jpg,sunaamvxnvouicstkjb.jpg,,,>,Face,,,,,1,,,,,,,o
157,kk,Presentation,3,00779941205fa_sunagdzlvkqtpnfxfcg.jpg,01009960627fa_sunbxzweleltykebgan.jpg,00779941205fa.jpg,sunagdzlvkqtpnfxfcg.jpg,01009960627fa.jpg,sunbxzweleltykebgan.jpg,,,>,Face,,,,,1,,,,,,,o
158,kk,Presentation,3,00915960620fa_sunapileznnbbmrwoei.jpg,00999960627fa_sunbvbrvgbpanfrawft.jpg,00915960620fa.jpg,sunapileznnbbmrwoei.jpg,00999960627fa.jpg,sunbvbrvgbpanfrawft.jpg,,,>,Face,,,,,1,,,,,,,o
159,kk,Presentation,3,00123931230fb_sunaalcrrdbjgdztbiz.jpg,00947960627fa_sunasmmcxdddtmtazwx.jpg,00123931230fb.jpg,sunaalcrrdbjgdztbiz.jpg,00947960627fa.jpg,sunasmmcxdddtmtazwx.jpg,,,>,Face,,,,,1,,,,,,,x
160,kk,Memory,3,,,,,,,01010960627fa.jpg,,,,,,,,,,,,,,,
161,kk,Memory,3,,,,,,,sunalkiibhqpxfamlll.jpg,,,,,,,,,,,,,,,
162,kk,Memory,3,,,,,,,00751960620fa.jpg,,,,,,,,,,,,,,,
163,kk,Memory,3,,,,,,,sunagpancjmxqfazssf.jpg,,,,,,,,,,,,,,,
164,kk,Memory,3,,,,,,,00900960530fa.jpg,,,,,,,,,,,,,,,
165,kk,Memory,3,,,,,,,sunaofikylqtxphvdem.jpg,,,,,,,,,,,,,,,
166,kk,Memory,3,,,,,,,00789960620fa.jpg,,,,,,,,,,,,,,,
167,kk,Memory,3,,,,,,,00891960530fa.jpg,,,,,,,,,,,,,,,
168,kk,Memory,3,,,,,,,00095931230fa.jpg,,,,,,,,,,,,,,,
169,kk,Memory,3,,,,,,,00125931230fa.jpg,,,,,,,,,,,,,,,
170,kk,Memory,3,,,,,,,sunabrwnslxalcohfre.jpg,,,,,,,,,,,,,,,
171,kk,Memory,3,,,,,,,00073931230fa.jpg,,,,,,,,,,,,,,,
172,kk,Memory,3,,,,,,,01009960627fa.jpg,,,,,,,,,,,,,,,
173,kk,Memory,3,,,,,,,sunabmytpyhsgigllxu.jpg,,,,,,,,,,,,,,,
174,kk,Memory,3,,,,,,,00993960627fa.jpg,,,,,,,,,,,,,,,
175,kk,Memory,3,,,,,,,00296940422fa.jpg,,,,,,,,,,,,,,,
176,kk,Memory,3,,,,,,,sunadpnqovzckyikrjo.jpg,,,,,,,,,,,,,,,
177,kk,Memory,3,,,,,,,00115931230fa.jpg,,,,,,,,,,,,,,,
178,kk,Memory,3,,,,,,,00676941121fa.jpg,,,,,,,,,,,,,,,
179,kk,Memory,3,,,,,,,00931960627fa.jpg,,,,,,,,,,,,,,,
180,kk,Memory,3,,,,,,,sunaakmxzhuceuiryah.jpg,,,,,,,,,,,,,,,
181,kk,Memory,3,,,,,,,sunamlotskmmsjeogby.jpg,,,,,,,,,,,,,,,
182,kk,Memory,3,,,,,,,00910960530fa.jpg,,,,,,,,,,,,,,,
183,kk,Memory,3,,,,,,,00276940422fa.jpg,,,,,,,,,,,,,,,
184,kk,Memory,3,,,,,,,sunaalcrrdbjgdztbiz.jpg,,,,,,,,,,,,,,,
185,kk,Memory,3,,,,,,,00947960627fa.jpg,,,,,,,,,,,,,,,
186,kk,Memory,3,,,,,,,sunaptrqvaooxfvktvw.jpg,,,,,,,,,,,,,,,
187,kk,Memory,3,,,,,,,sunaahzooisqkwlxwoz.jpg,,,,,,,,,,,,,,,
188,kk,Memory,3,,,,,,,sunbprywzqxjcezkbch.jpg,,,,,,,,,,,,,,,
189,kk,Memory,3,,,,,,,sunbxzweleltykebgan.jpg,,,,,,,,,,,,,,,
190,kk,Memory,3,,,,,,,suncnkvbhypnivcohyx.jpg,,,,,,,,,,,,,,,
191,kk,Memory,3,,,,,,,sunaalltyvjhbzhkmvg.jpg,,,,,,,,,,,,,,,
192,kk,Memory,3,,,,,,,00123931230fb.jpg,,,,,,,,,,,,,,,
193,kk,Memory,3,,,,,,,sunaafbmtoniaasysgu.jpg,,,,,,,,,,,,,,,
194,kk,Memory,3,,,,,,,00911960530fa.jpg,,,,,,,,,,,,,,,
195,kk,Memory,3,,,,,,,sunapmfmzadmosuogaz.jpg,,,,,,,,,,,,,,,
196,kk,Memory,3,,,,,,,sunaezuszgtxnmsxdbk.jpg,,,,,,,,,,,,,,,
197,kk,Memory,3,,,,,,,sunaooaqzputrowwbsw.jpg,,,,,,,,,,,,,,,
198,kk,Memory,3,,,,,,,sunasmmcxdddtmtazwx.jpg,,,,,,,,,,,,,,,
199,kk,Memory,3,,,,,,,00919960620fa.jpg,,,,,,,,,,,,,,,
200,kk,Presentation,4,00140931230fb_sunaapllqyqlykszopd.jpg,00851940307fa_sunaivflshbyfrfzhqb.jpg,00140931230fb.jpg,sunaapllqyqlykszopd.jpg,00851940307fa.jpg,sunaivflshbyfrfzhqb.jpg,,,<,Place,,,,,0,,,,,,,x
201,kk,Presentation,4,00773941201fa_sunafvcflzhlqloapyo.jpg,00142931230fb_sunaapxkpvrhpjplsok.jpg,00773941201fa.jpg,sunafvcflzhlqloapyo.jpg,00142931230fb.jpg,sunaapxkpvrhpjplsok.jpg,,,<,Place,,,,,1,,,,,,,x
202,kk,Presentation,4,00089931230fa_sunaagcpoejbuzyvddd.jpg,00800941205fb_sunagvjurcwdbixvnyi.jpg,00089931230fa.jpg,sunaagcpoejbuzyvddd.jpg,00800941205fb.jpg,sunagvjurcwdbixvnyi.jpg,,,<,Place,,,,,1,,,,,,,x
203,kk,Presentation,4,00984960627fa_sunbfzchmomnvzhbxdg.jpg,00071941031fa_sunaaexqbtdswxrqjvz.jpg,00984960627fa.jpg,sunbfzchmomnvzhbxdg.jpg,00071941031fa.jpg,sunaaexqbtdswxrqjvz.jpg,,,<,Place,,,,,1,,,,,,,o
204,kk,Presentation,4,00239940128fa_sunabctlikybqabezjv.jpg,00132931230fb_sunaanjcbzdvtvblsdy.jpg,00239940128fa.jpg,sunabctlikybqabezjv.jpg,00132931230fb.jpg,sunaanjcbzdvtvblsdy.jpg,,,<,Place,,,,,1,,,,,,,x
205,kk,Presentation,4,00116931230fa_sunaakqepfoeqomfgxf.jpg,00784941205fb_sunagjzcrjvmxzqzljx.jpg,00116931230fa.jpg,sunaakqepfoeqomfgxf.jpg,00784941205fb.jpg,sunagjzcrjvmxzqzljx.jpg,,,<,Place,,,,,1,,,,,,,o
206,kk,Presentation,4,00505960627fa_sunabzuqsrgcsonqlkz.jpg,00263940128fb_sunabjuovqvyfuzvqwt.jpg,00505960627fa.jpg,sunabzuqsrgcsonqlkz.jpg,00263940128fb.jpg,sunabjuovqvyfuzvqwt.jpg,,,<,Place,,,,,1,,,,,,,x
207,kk,Presentation,4,00942960627fa_sunarfdklgdnjgeqfjg.jpg,00871940307_sunajrujcsdxmfbssmc.jpg,00942960627fa.jpg,sunarfdklgdnjgeqfjg.jpg,00871940307.jpg,sunajrujcsdxmfbssmc.jpg,,,<,Place,,,,,0,,,,,,,o
208,kk,Presentation,4,00857940307fa_sunaiwfobocrruqznsv.jpg,00163931230fb_sunaavodbcpygkggnfp.jpg,00857940307fa.jpg,sunaiwfobocrruqznsv.jpg,00163931230fb.jpg,sunaavodbcpygkggnfp.jpg,,,<,Place,,,,,1,,,,,,,o
209,kk,Presentation,4,00797960620fa_sunagufzbeteqdjxais.jpg,00901960530fa_sunammbnoambmhdxdwd.jpg,00797960620fa.jpg,sunagufzbeteqdjxais.jpg,00901960530fa.jpg,sunammbnoambmhdxdwd.jpg,,,<,Place,,,,,1,,,,,,,o
210,kk,Memory,4,,,,,,,sunaauglwmctnkxyird.jpg,,,,,,,,,,,,,,,
211,kk,Memory,4,,,,,,,00498960627fa.jpg,,,,,,,,,,,,,,,
212,kk,Memory,4,,,,,,,00149931230fa.jpg,,,,,,,,,,,,,,,
213,kk,Memory,4,,,,,,,sunarfdklgdnjgeqfjg.jpg,,,,,,,,,,,,,,,
214,kk,Memory,4,,,,,,,sunaanjcbzdvtvblsdy.jpg,,,,,,,,,,,,,,,
215,kk,Memory,4,,,,,,,00069931230fb.jpg,,,,,,,,,,,,,,,
216,kk,Memory,4,,,,,,,00505960627fa.jpg,,,,,,,,,,,,,,,
217,kk,Memory,4,,,,,,,00800941205fb.jpg,,,,,,,,,,,,,,,
218,kk,Memory,4,,,,,,,sunabtrnbvpppgczjim.jpg,,,,,,,,,,,,,,,
219,kk,Memory,4,,,,,,,sunaakqepfoeqomfgxf.jpg,,,,,,,,,,,,,,,
220,kk,Memory,4,,,,,,,sunabanoxjtqxamkucc.jpg,,,,,,,,,,,,,,,
221,kk,Memory,4,,,,,,,00901960530fa.jpg,,,,,,,,,,,,,,,
222,kk,Memory,4,,,,,,,sunagvprlbprarvgdvj.jpg,,,,,,,,,,,,,,,
223,kk,Memory,4,,,,,,,00210940128fb.jpg,,,,,,,,,,,,,,,
224,kk,Memory,4,,,,,,,00263940128fb.jpg,,,,,,,,,,,,,,,
225,kk,Memory,4,,,,,,,00568940928fa.jpg,,,,,,,,,,,,,,,
226,kk,Memory,4,,,,,,,00801941205fa.jpg,,,,,,,,,,,,,,,
227,kk,Memory,4,,,,,,,00089931230fa.jpg,,,,,,,,,,,,,,,
228,kk,Memory,4,,,,,,,sunabzjxlmkwnwzimua.jpg,,,,,,,,,,,,,,,
229,kk,Memory,4,,,,,,,sunammbnoambmhdxdwd.jpg,,,,,,,,,,,,,,,
230,kk,Memory,4,,,,,,,sunbfzchmomnvzhbxdg.jpg,,,,,,,,,,,,,,,
231,kk,Memory,4,,,,,,,00984960627fa.jpg,,,,,,,,,,,,,,,
232,kk,Memory,4,,,,,,,sunaaeowapdkwzqpgqr.jpg,,,,,,,,,,,,,,,
233,kk,Memory,4,,,,,,,sunasnqkkyhilqkxiqm.jpg,,,,,,,,,,,,,,,
234,kk,Memory,4,,,,,,,00982960627fa.jpg,,,,,,,,,,,,,,,
235,kk,Memory,4,,,,,,,00949960627fb.jpg,,,,,,,,,,,,,,,
236,kk,Memory,4,,,,,,,00894960620fa.jpg,,,,,,,,,,,,,,,
237,kk,Memory,4,,,,,,,sunagvjurcwdbixvnyi.jpg,,,,,,,,,,,,,,,
238,kk,Memory,4,,,,,,,sunbesrwkdsffeogeqq.jpg,,,,,,,,,,,,,,,
239,kk,Memory,4,,,,,,,sunacsdhbbsybcyxnel.jpg,,,,,,,,,,,,,,,
240,kk,Memory,4,,,,,,,sunaagcpoejbuzyvddd.jpg,,,,,,,,,,,,,,,
241,kk,Memory,4,,,,,,,00116931230fa.jpg,,,,,,,,,,,,,,,
242,kk,Memory,4,,,,,,,00305940422fa.jpg,,,,,,,,,,,,,,,
243,kk,Memory,4,,,,,,,sunabzuqsrgcsonqlkz.jpg,,,,,,,,,,,,,,,
244,kk,Memory,4,,,,,,,sunalqmfgeadpqsyzpd.jpg,,,,,,,,,,,,,,,
245,kk,Memory,4,,,,,,,00942960627fa.jpg,,,,,,,,,,,,,,,
246,kk,Memory,4,,,,,,,sunagjzcrjvmxzqzljx.jpg,,,,,,,,,,,,,,,
247,kk,Memory,4,,,,,,,00132931230fb.jpg,,,,,,,,,,,,,,,
248,kk,Memory,4,,,,,,,00784941205fb.jpg,,,,,,,,,,,,,,,
249,kk,Memory,4,,,,,,,sunabjuovqvyfuzvqwt.jpg,,,,,,,,,,,,,,,
250,kk,Presentation,5,00836940307fa_sunainqelldeebvxtcz.jpg,00124931230fa_sunaalhlvzmjmitybdn.jpg,00836940307fa.jpg,sunainqelldeebvxtcz.jpg,00124931230fa.jpg,sunaalhlvzmjmitybdn.jpg,,,>,Place,,,,,1,,,,,,,x
251,kk,Presentation,5,00785941205fa_sunaglqunwuycxydmyu.jpg,00898960530fa_sunamkmeblgteyggink.jpg,00785941205fa.jpg,sunaglqunwuycxydmyu.jpg,00898960530fa.jpg,sunamkmeblgteyggink.jpg,,,>,Place,,,,,0,,,,,,,x
252,kk,Presentation,5,00768941205fa_sunafkmnlytenlsywia.jpg,00967960627fa_sunbaejotfklekvpxcz.jpg,00768941205fa.jpg,sunafkmnlytenlsywia.jpg,00967960627fa.jpg,sunbaejotfklekvpxcz.jpg,,,>,Place,,,,,1,,,,,,,o
253,kk,Presentation,5,00136931230fb_sunaanptmsknhirrzed.jpg,01000960627fa_sunbvzmgrdvaakxusbu.jpg,00136931230fb.jpg,sunaanptmsknhirrzed.jpg,01000960627fa.jpg,sunbvzmgrdvaakxusbu.jpg,,,>,Place,,,,,1,,,,,,,o
254,kk,Presentation,5,00753941201fa_sunafcofuuzebuadceo.jpg,00807941205fa_sunahawfngukizslzsd.jpg,00753941201fa.jpg,sunafcofuuzebuadceo.jpg,00807941205fa.jpg,sunahawfngukizslzsd.jpg,,,>,Place,,,,,1,,,,,,,x
255,kk,Presentation,5,00144931230fb_sunaathajvxrgptwhoj.jpg,00878960530fa_sunakgbnzxmfohgehnu.jpg,00144931230fb.jpg,sunaathajvxrgptwhoj.jpg,00878960530fa.jpg,sunakgbnzxmfohgehnu.jpg,,,>,Place,,,,,1,,,,,,,x
256,kk,Presentation,5,00921960627fa_sunapqkpqdfvxlbqwyo.jpg,00774941201fa_sunafvtpfczkzopbgue.jpg,00921960627fa.jpg,sunapqkpqdfvxlbqwyo.jpg,00774941201fa.jpg,sunafvtpfczkzopbgue.jpg,,,>,Place,,,,,1,,,,,,,x
257,kk,Presentation,5,00725941201fa_sunaefgzwiramypjvtd.jpg,00925960627fa_sunapqwnqzxlsfvgsjm.jpg,00725941201fa.jpg,sunaefgzwiramypjvtd.jpg,00925960627fa.jpg,sunapqwnqzxlsfvgsjm.jpg,,,>,Place,,,,,1,,,,,,,x
258,kk,Presentation,5,00811960530fa_sunahedfrhtcwpneund.jpg,00086931230fa_sunaafynehyrzpsoaml.jpg,00811960530fa.jpg,sunahedfrhtcwpneund.jpg,00086931230fa.jpg,sunaafynehyrzpsoaml.jpg,,,>,Place,,,,,0,,,,,,,o
259,kk,Presentation,5,00700941121fa_sunadsgmtznewzyasnk.jpg,00185940422fb_sunaawqdbpihmlbwyyn.jpg,00700941121fa.jpg,sunadsgmtznewzyasnk.jpg,00185940422fb.jpg,sunaawqdbpihmlbwyyn.jpg,,,>,Place,,,,,1,,,,,,,o
260,kk,Memory,5,,,,,,,sunagtumacdlmciqamz.jpg,,,,,,,,,,,,,,,
261,kk,Memory,5,,,,,,,00939960627fa.jpg,,,,,,,,,,,,,,,
262,kk,Memory,5,,,,,,,00576941031fa.jpg,,,,,,,,,,,,,,,
263,kk,Memory,5,,,,,,,00065931230fb.jpg,,,,,,,,,,,,,,,
264,kk,Memory,5,,,,,,,00753941201fa.jpg,,,,,,,,,,,,,,,
265,kk,Memory,5,,,,,,,sunaahedjlmtqekgyvj.jpg,,,,,,,,,,,,,,,
266,kk,Memory,5,,,,,,,sunaiozxhxgtfrmoagh.jpg,,,,,,,,,,,,,,,
267,kk,Memory,5,,,,,,,sunahedfrhtcwpneund.jpg,,,,,,,,,,,,,,,
268,kk,Memory,5,,,,,,,00144931230fb.jpg,,,,,,,,,,,,,,,
269,kk,Memory,5,,,,,,,01000960627fa.jpg,,,,,,,,,,,,,,,
270,kk,Memory,5,,,,,,,sunahawfngukizslzsd.jpg,,,,,,,,,,,,,,,
271,kk,Memory,5,,,,,,,00836940307fa.jpg,,,,,,,,,,,,,,,
272,kk,Memory,5,,,,,,,sunabbwggenhfbftyvi.jpg,,,,,,,,,,,,,,,
273,kk,Memory,5,,,,,,,00785941205fa.jpg,,,,,,,,,,,,,,,
274,kk,Memory,5,,,,,,,00776941205fa.jpg,,,,,,,,,,,,,,,
275,kk,Memory,5,,,,,,,sunainqelldeebvxtcz.jpg,,,,,,,,,,,,,,,
276,kk,Memory,5,,,,,,,sunacvjlsylseoghjup.jpg,,,,,,,,,,,,,,,
277,kk,Memory,5,,,,,,,sunbvzmgrdvaakxusbu.jpg,,,,,,,,,,,,,,,
278,kk,Memory,5,,,,,,,sunaalhlvzmjmitybdn.jpg,,,,,,,,,,,,,,,
279,kk,Memory,5,,,,,,,sunaglqunwuycxydmyu.jpg,,,,,,,,,,,,,,,
280,kk,Memory,5,,,,,,,00070940307fa.jpg,,,,,,,,,,,,,,,
281,kk,Memory,5,,,,,,,00090931230fa.jpg,,,,,,,,,,,,,,,
282,kk,Memory,5,,,,,,,sunafcofuuzebuadceo.jpg,,,,,,,,,,,,,,,
283,kk,Memory,5,,,,,,,sunaaemixhfquhnxxlm.jpg,,,,,,,,,,,,,,,
284,kk,Memory,5,,,,,,,00967960627fa.jpg,,,,,,,,,,,,,,,
285,kk,Memory,5,,,,,,,sunbaejotfklekvpxcz.jpg,,,,,,,,,,,,,,,
286,kk,Memory,5,,,,,,,00811960530fa.jpg,,,,,,,,,,,,,,,
287,kk,Memory,5,,,,,,,00838940307fa.jpg,,,,,,,,,,,,,,,
288,kk,Memory,5,,,,,,,sunarceibpcyacbmfga.jpg,,,,,,,,,,,,,,,
289,kk,Memory,5,,,,,,,00124931230fa.jpg,,,,,,,,,,,,,,,
290,kk,Memory,5,,,,,,,00218940128fa.jpg,,,,,,,,,,,,,,,
291,kk,Memory,5,,,,,,,00108960530fa.jpg,,,,,,,,,,,,,,,
292,kk,Memory,5,,,,,,,00086931230fa.jpg,,,,,,,,,,,,,,,
293,kk,Memory,5,,,,,,,sunaathajvxrgptwhoj.jpg,,,,,,,,,,,,,,,
294,kk,Memory,5,,,,,,,sunaajtnvzzpsjdzres.jpg,,,,,,,,,,,,,,,
295,kk,Memory,5,,,,,,,sunaafynehyrzpsoaml.jpg,,,,,,,,,,,,,,,
296,kk,Memory,5,,,,,,,sunaaeplwsfslcbtojr.jpg,,,,,,,,,,,,,,,
297,kk,Memory,5,,,,,,,00795941205fa.jpg,,,,,,,,,,,,,,,
298,kk,Memory,5,,,,,,,sunafxokyavhgptyfye.jpg,,,,,,,,,,,,,,,
299,kk,Memory,5,,,,,,,00807941205fa.jpg,,,,,,,,,,,,,,,
300,kk,Presentation,6,00762941201fa_sunafgzgbisbopcyslr.jpg,00935960627fa_sunaqbmgkgqucajzrkp.jpg,00762941201fa.jpg,sunafgzgbisbopcyslr.jpg,00935960627fa.jpg,sunaqbmgkgqucajzrkp.jpg,,,<,Face,,,,,1,,,,,,,o
301,kk,Presentation,6,00719960620fa_sunadzuvtmtmgupotmf.jpg,00778941205fa_sunagcthdfirrcawoic.jpg,00719960620fa.jpg,sunadzuvtmtmgupotmf.jpg,00778941205fa.jpg,sunagcthdfirrcawoic.jpg,,,<,Face,,,,,1,,,,,,,x
302,kk,Presentation,6,00952960627fa_sunathzzbcwjykldrem.jpg,00841940307fa_sunaisiwfgppimtnmxl.jpg,00952960627fa.jpg,sunathzzbcwjykldrem.jpg,00841940307fa.jpg,sunaisiwfgppimtnmxl.jpg,,,<,Face,,,,,1,,,,,,,x
303,kk,Presentation,6,00727941205fa_sunaeisnjeetzmkbuad.jpg,00101931230fb_sunaajqmsaavkmgbsth.jpg,00727941205fa.jpg,sunaeisnjeetzmkbuad.jpg,00101931230fb.jpg,sunaajqmsaavkmgbsth.jpg,,,<,Face,,,,,1,,,,,,,o
304,kk,Presentation,6,00780960530fa_sunagetqixeypsysbpn.jpg,00829940307fa_sunahwgbqkqcrwprgvh.jpg,00780960530fa.jpg,sunagetqixeypsysbpn.jpg,00829940307fa.jpg,sunahwgbqkqcrwprgvh.jpg,,,<,Face,,,,,1,,,,,,,o
305,kk,Presentation,6,00122931230fa_sunaakxjfbrrequcjmx.jpg,00906960530fa_sunantryfbloeaomfta.jpg,00122931230fa.jpg,sunaakxjfbrrequcjmx.jpg,00906960530fa.jpg,sunantryfbloeaomfta.jpg,,,<,Face,,,,,1,,,,,,,x
306,kk,Presentation,6,00109931230fa_sunaajuzribjrizdshh.jpg,00119931230fb_sunaakvmbftkrgqhjun.jpg,00109931230fa.jpg,sunaajuzribjrizdshh.jpg,00119931230fb.jpg,sunaakvmbftkrgqhjun.jpg,,,<,Face,,,,,1,,,,,,,x
307,kk,Presentation,6,00969960627fa_sunbaoizrfijvhpnnjn.jpg,00979960627fa_sunbdycacjfaujxitbw.jpg,00969960627fa.jpg,sunbaoizrfijvhpnnjn.jpg,00979960627fa.jpg,sunbdycacjfaujxitbw.jpg,,,<,Face,,,,,1,,,,,,,o
308,kk,Presentation,6,00835940307fa_sunaijsqpvodplbwxkf.jpg,00302940422fa_sunabtlfmiwtljmoues.jpg,00835940307fa.jpg,sunaijsqpvodplbwxkf.jpg,00302940422fa.jpg,sunabtlfmiwtljmoues.jpg,,,<,Face,,,,,1,,,,,,,x
309,kk,Presentation,6,00540940519fa_sunacdnquypmsshhsbk.jpg,00834940307fa_sunaibnpvhkdpdnzcnz.jpg,00540940519fa.jpg,sunacdnquypmsshhsbk.jpg,00834940307fa.jpg,sunaibnpvhkdpdnzcnz.jpg,,,<,Face,,,,,1,,,,,,,o
310,kk,Memory,6,,,,,,,sunaajqmsaavkmgbsth.jpg,,,,,,,,,,,,,,,
311,kk,Memory,6,,,,,,,00719960620fa.jpg,,,,,,,,,,,,,,,
312,kk,Memory,6,,,,,,,sunacjkmnpawfzbyvae.jpg,,,,,,,,,,,,,,,
313,kk,Memory,6,,,,,,,sunaakvmbftkrgqhjun.jpg,,,,,,,,,,,,,,,
314,kk,Memory,6,,,,,,,sunagtjwilqjvxohypn.jpg,,,,,,,,,,,,,,,
315,kk,Memory,6,,,,,,,00720960620fa.jpg,,,,,,,,,,,,,,,
316,kk,Memory,6,,,,,,,00101931230fb.jpg,,,,,,,,,,,,,,,
317,kk,Memory,6,,,,,,,sunahwgbqkqcrwprgvh.jpg,,,,,,,,,,,,,,,
318,kk,Memory,6,,,,,,,00829940307fa.jpg,,,,,,,,,,,,,,,
319,kk,Memory,6,,,,,,,00193940928fa.jpg,,,,,,,,,,,,,,,
320,kk,Memory,6,,,,,,,sunakmnfgklupjijsgf.jpg,,,,,,,,,,,,,,,
321,kk,Memory,6,,,,,,,sunaakxjfbrrequcjmx.jpg,,,,,,,,,,,,,,,
322,kk,Memory,6,,,,,,,sunacdnquypmsshhsbk.jpg,,,,,,,,,,,,,,,
323,kk,Memory,6,,,,,,,00271940422fa.jpg,,,,,,,,,,,,,,,
324,kk,Memory,6,,,,,,,sunaajuzribjrizdshh.jpg,,,,,,,,,,,,,,,
325,kk,Memory,6,,,,,,,sunadzuvtmtmgupotmf.jpg,,,,,,,,,,,,,,,
326,kk,Memory,6,,,,,,,sunaibnpvhkdpdnzcnz.jpg,,,,,,,,,,,,,,,
327,kk,Memory,6,,,,,,,00102931230fa.jpg,,,,,,,,,,,,,,,
328,kk,Memory,6,,,,,,,sunabmbnddafmywtjjj.jpg,,,,,,,,,,,,,,,
329,kk,Memory,6,,,,,,,sunacacflqoyxhsqzhe.jpg,,,,,,,,,,,,,,,
330,kk,Memory,6,,,,,,,00122931230fa.jpg,,,,,,,,,,,,,,,
331,kk,Memory,6,,,,,,,00727941205fa.jpg,,,,,,,,,,,,,,,
332,kk,Memory,6,,,,,,,00880960530fa.jpg,,,,,,,,,,,,,,,
333,kk,Memory,6,,,,,,,00793941205fa.jpg,,,,,,,,,,,,,,,
334,kk,Memory,6,,,,,,,00841940307fa.jpg,,,,,,,,,,,,,,,
335,kk,Memory,6,,,,,,,sunaajspcoepticvplv.jpg,,,,,,,,,,,,,,,
336,kk,Memory,6,,,,,,,00119931230fb.jpg,,,,,,,,,,,,,,,
337,kk,Memory,6,,,,,,,00834940307fa.jpg,,,,,,,,,,,,,,,
338,kk,Memory,6,,,,,,,sunaloffvbvysigxent.jpg,,,,,,,,,,,,,,,
339,kk,Memory,6,,,,,,,00158931230fb.jpg,,,,,,,,,,,,,,,
340,kk,Memory,6,,,,,,,sunaavchcbptaerhcfy.jpg,,,,,,,,,,,,,,,
341,kk,Memory,6,,,,,,,sunaecpkgfewqqreqwe.jpg,,,,,,,,,,,,,,,
342,kk,Memory,6,,,,,,,sunaeisnjeetzmkbuad.jpg,,,,,,,,,,,,,,,
343,kk,Memory,6,,,,,,,00540940519fa.jpg,,,,,,,,,,,,,,,
344,kk,Memory,6,,,,,,,00893960530Fa.jpg,,,,,,,,,,,,,,,
345,kk,Memory,6,,,,,,,00507940519fa.jpg,,,,,,,,,,,,,,,
346,kk,Memory,6,,,,,,,00559940519fa.jpg,,,,,,,,,,,,,,,
347,kk,Memory,6,,,,,,,00109931230fa.jpg,,,,,,,,,,,,,,,
348,kk,Memory,6,,,,,,,sunaaxjpzcnxligjtjq.jpg,,,,,,,,,,,,,,,
349,kk,Memory,6,,,,,,,sunaisiwfgppimtnmxl.jpg,,,,,,,,,,,,,,,
350,kk,Presentation,7,00096931230fa_sunaaiqiqcggrskoqgy.jpg,00745941205fa_sunaeouogqolxvggaoq.jpg,00096931230fa.jpg,sunaaiqiqcggrskoqgy.jpg,00745941205fa.jpg,sunaeouogqolxvggaoq.jpg,,,>,Face,,,,,1,,,,,,,o
351,kk,Presentation,7,00574940928fa_sunacvbrcejzwmcgnoq.jpg,00989960627fa_sunbondbduabvijnmch.jpg,00574940928fa.jpg,sunacvbrcejzwmcgnoq.jpg,00989960627fa.jpg,sunbondbduabvijnmch.jpg,,,>,Face,,,,,1,,,,,,,x
352,kk,Presentation,7,00938960627fa_sunaqyylsngywqzwfmx.jpg,00960960627fa_sunawksfbacycuhbrsc.jpg,00938960627fa.jpg,sunaqyylsngywqzwfmx.jpg,00960960627fa.jpg,sunawksfbacycuhbrsc.jpg,,,>,Face,,,,,1,,,,,,,x
353,kk,Presentation,7,00120931230fa_sunaakxgygjfqrzpyoz.jpg,00847940307fa_sunaivdjruhkrfywfed.jpg,00120931230fa.jpg,sunaakxgygjfqrzpyoz.jpg,00847940307fa.jpg,sunaivdjruhkrfywfed.jpg,,,>,Face,,,,,1,,,,,,,x
354,kk,Presentation,7,00662941121fa_sunadkazmlajmohnwfl.jpg,00772941201fa_sunafpfpiiujzoesnqg.jpg,00662941121fa.jpg,sunadkazmlajmohnwfl.jpg,00772941201fa.jpg,sunafpfpiiujzoesnqg.jpg,,,>,Face,,,,,1,,,,,,,o
355,kk,Presentation,7,00723941201fa_sunaedtgwjvvziytspa.jpg,00966960627fa_sunaygrtwrwfezqjizr.jpg,00723941201fa.jpg,sunaedtgwjvvziytspa.jpg,00966960627fa.jpg,sunaygrtwrwfezqjizr.jpg,,,>,Face,,,,,1,,,,,,,x
356,kk,Presentation,7,00876960620fa_sunajwqkfsykceonyig.jpg,00138931230fa_sunaapfaivxqoynnwwp.jpg,00876960620fa.jpg,sunajwqkfsykceonyig.jpg,00138931230fa.jpg,sunaapfaivxqoynnwwp.jpg,,,>,Face,,,,,1,,,,,,,o
357,kk,Presentation,7,00746941201fa_sunaetydippjxikifsb.jpg,00705960530fa_sunaduslxfzlbxlllnz.jpg,00746941201fa.jpg,sunaetydippjxikifsb.jpg,00705960530fa.jpg,sunaduslxfzlbxlllnz.jpg,,,>,Face,,,,,1,,,,,,,x
358,kk,Presentation,7,00839940307fa_sunaipyohrqlwngaqif.jpg,00818940307fa_sunahpblecxtmuzkmxb.jpg,00839940307fa.jpg,sunaipyohrqlwngaqif.jpg,00818940307fa.jpg,sunahpblecxtmuzkmxb.jpg,,,>,Face,,,,,1,,,,,,,x
359,kk,Presentation,7,00077931230fb_sunaafgqutfaishsxyu.jpg,00562941031fa_sunacjnahdmqfnjfwqx.jpg,00077931230fb.jpg,sunaafgqutfaishsxyu.jpg,00562941031fa.jpg,sunacjnahdmqfnjfwqx.jpg,,,>,Face,,,,,1,,,,,,,x
360,kk,Memory,7,,,,,,,sunadbdqzigzwipuipr.jpg,,,,,,,,,,,,,,,
361,kk,Memory,7,,,,,,,00746941201fa.jpg,,,,,,,,,,,,,,,
362,kk,Memory,7,,,,,,,sunablfqiwfqomjarht.jpg,,,,,,,,,,,,,,,
363,kk,Memory,7,,,,,,,sunbwyuesflwdpqtgoy.jpg,,,,,,,,,,,,,,,
364,kk,Memory,7,,,,,,,00862940307fa.jpg,,,,,,,,,,,,,,,
365,kk,Memory,7,,,,,,,00184940128fa.jpg,,,,,,,,,,,,,,,
366,kk,Memory,7,,,,,,,sunaafgqutfaishsxyu.jpg,,,,,,,,,,,,,,,
367,kk,Memory,7,,,,,,,00876960620fa.jpg,,,,,,,,,,,,,,,
368,kk,Memory,7,,,,,,,00818940307fa.jpg,,,,,,,,,,,,,,,
369,kk,Memory,7,,,,,,,00987960627fa.jpg,,,,,,,,,,,,,,,
370,kk,Memory,7,,,,,,,sunaooffzffbhcpirmm.jpg,,,,,,,,,,,,,,,
371,kk,Memory,7,,,,,,,sunbloeoiozwjjsiamp.jpg,,,,,,,,,,,,,,,
372,kk,Memory,7,,,,,,,sunaedtgwjvvziytspa.jpg,,,,,,,,,,,,,,,
373,kk,Memory,7,,,,,,,00631940928fa.jpg,,,,,,,,,,,,,,,
374,kk,Memory,7,,,,,,,00913960530fa.jpg,,,,,,,,,,,,,,,
375,kk,Memory,7,,,,,,,sunahpblecxtmuzkmxb.jpg,,,,,,,,,,,,,,,
376,kk,Memory,7,,,,,,,sunaletopenvvozhpxc.jpg,,,,,,,,,,,,,,,
377,kk,Memory,7,,,,,,,sunaavtbadenwnzeutj.jpg,,,,,,,,,,,,,,,
378,kk,Memory,7,,,,,,,sunaetydippjxikifsb.jpg,,,,,,,,,,,,,,,
379,kk,Memory,7,,,,,,,sunaduslxfzlbxlllnz.jpg,,,,,,,,,,,,,,,
380,kk,Memory,7,,,,,,,00131931230fb.jpg,,,,,,,,,,,,,,,
381,kk,Memory,7,,,,,,,00889960530fa.jpg,,,,,,,,,,,,,,,
382,kk,Memory,7,,,,,,,00562941031fa.jpg,,,,,,,,,,,,,,,
383,kk,Memory,7,,,,,,,sunajwqkfsykceonyig.jpg,,,,,,,,,,,,,,,
384,kk,Memory,7,,,,,,,00662941121fa.jpg,,,,,,,,,,,,,,,
385,kk,Memory,7,,,,,,,sunaangbuylfvckqqoo.jpg,,,,,,,,,,,,,,,
386,kk,Memory,7,,,,,,,00077931230fb.jpg,,,,,,,,,,,,,,,
387,kk,Memory,7,,,,,,,00763941205fa.jpg,,,,,,,,,,,,,,,
388,kk,Memory,7,,,,,,,00772941201fa.jpg,,,,,,,,,,,,,,,
389,kk,Memory,7,,,,,,,sunafhmnhsdurlvddpw.jpg,,,,,,,,,,,,,,,
390,kk,Memory,7,,,,,,,01005960627fa.jpg,,,,,,,,,,,,,,,
391,kk,Memory,7,,,,,,,00966960627fa.jpg,,,,,,,,,,,,,,,
392,kk,Memory,7,,,,,,,sunacjnahdmqfnjfwqx.jpg,,,,,,,,,,,,,,,
393,kk,Memory,7,,,,,,,sunaizgnnplsvajzhkc.jpg,,,,,,,,,,,,,,,
394,kk,Memory,7,,,,,,,sunadkazmlajmohnwfl.jpg,,,,,,,,,,,,,,,
395,kk,Memory,7,,,,,,,sunaygrtwrwfezqjizr.jpg,,,,,,,,,,,,,,,
396,kk,Memory,7,,,,,,,00705960530fa.jpg,,,,,,,,,,,,,,,
397,kk,Memory,7,,,,,,,00723941201fa.jpg,,,,,,,,,,,,,,,
398,kk,Memory,7,,,,,,,sunafpfpiiujzoesnqg.jpg,,,,,,,,,,,,,,,
399,kk,Memory,7,,,,,,,00267940128fb.jpg,,,,,,,,,,,,,,,
