,Subject,Trial Type,Run,Cued Composite,Uncued Composite,Cued Face,Cued Place,Uncued Face,Uncued Place,Memory Image,Category,Cued Side,Cued Category,Attention Response Time (s),Familiarity Reaction Time (s),Familiarity Rating,Attention Level,Cue Validity,Post Invalid Cue,Pre Invalid Cue,Attention Button,Rating History,Stimulus Onset,Stimulus End,Attention Probe
0,25,Presentation,0,00086931230fa_sunaafynehyrzpsoaml.jpg,00081941031fa_sunaaftlyfudyzuhqzf.jpg,,,,,,,<,Place,,,,,1,,,,,,,o
1,25,Presentation,0,00971960627fa_sunbbegcweqnetpdlrh.jpg,00788941205fa_sunagountlxpzkytsmp.jpg,,,,,,,>,Face,,,,,1,,,,,,,x
2,25,Presentation,0,00071940128fa_sunaaexpnawiehinlpy.jpg,00266940128fb_sunabkngeblodihjvbk.jpg,,,,,,,>,Place,,,,,1,,,,,,,o
3,25,Presentation,0,00796941205fa_sunaguchqqnrtodtezq.jpg,00098931230fa_sunaajpqmulidejvjsr.jpg,,,,,,,<,Face,,,,,1,,,,,,,o
4,25,Presentation,0,00122931230fa_sunaakxjfbrrequcjmx.jpg,00862940307fa_sunaizgnnplsvajzhkc.jpg,,,,,,,<,Place,,,,,1,,,,,,,x
5,25,Presentation,0,00210940128fb_sunabanoxjtqxamkucc.jpg,00878960530fa_sunakgbnzxmfohgehnu.jpg,,,,,,,>,Face,,,,,0,,,,,,,o
6,25,Presentation,0,00096931230fa_sunaaiqiqcggrskoqgy.jpg,00773941201fa_sunafvcflzhlqloapyo.jpg,,,,,,,>,Place,,,,,1,,,,,,,o
7,25,Presentation,0,00663941121fa_sunadnjjzohjhbohlwq.jpg,00576941031fa_sunacvjlsylseoghjup.jpg,,,,,,,>,Face,,,,,1,,,,,,,x
8,25,Presentation,0,00936960627fa_sunaqgjuuwvdcyiccjt.jpg,00119931230fb_sunaakvmbftkrgqhjun.jpg,,,,,,,<,Face,,,,,1,,,,,,,x
9,25,Presentation,0,00898960530fa_sunamkmeblgteyggink.jpg,00959960627fa_sunavxokzybtomhbmvm.jpg,,,,,,,<,Place,,,,,1,,,,,,,o
10,25,Memory,0,,,,,,,sunadnjjzohjhbohlwq.jpg,,,,,,,,,,,,,,,
11,25,Memory,0,,,,,,,sunabgfhvifeijihhjw.jpg,,,,,,,,,,,,,,,
12,25,Memory,0,,,,,,,sunaavchcbptaerhcfy.jpg,,,,,,,,,,,,,,,
13,25,Memory,0,,,,,,,sunafvcflzhlqloapyo.jpg,,,,,,,,,,,,,,,
14,25,Memory,0,,,,,,,sunaajpqmulidejvjsr.jpg,,,,,,,,,,,,,,,
15,25,Memory,0,,,,,,,00126931230fb.jpg,,,,,,,,,,,,,,,
16,25,Memory,0,,,,,,,00984960627fa.jpg,,,,,,,,,,,,,,,
17,25,Memory,0,,,,,,,sunbfzchmomnvzhbxdg.jpg,,,,,,,,,,,,,,,
18,25,Memory,0,,,,,,,00081941031fa.jpg,,,,,,,,,,,,,,,
19,25,Memory,0,,,,,,,sunaamdjwemxpmmtypi.jpg,,,,,,,,,,,,,,,
20,25,Memory,0,,,,,,,00971960627fa.jpg,,,,,,,,,,,,,,,
21,25,Memory,0,,,,,,,00098931230fa.jpg,,,,,,,,,,,,,,,
22,25,Memory,0,,,,,,,sunagfvluwixdsozaql.jpg,,,,,,,,,,,,,,,
23,25,Memory,0,,,,,,,sunabanoxjtqxamkucc.jpg,,,,,,,,,,,,,,,
24,25,Memory,0,,,,,,,00119931230fb.jpg,,,,,,,,,,,,,,,
25,25,Memory,0,,,,,,,00818940307fa.jpg,,,,,,,,,,,,,,,
26,25,Memory,0,,,,,,,00663941121fa.jpg,,,,,,,,,,,,,,,
27,25,Memory,0,,,,,,,00260940128fa.jpg,,,,,,,,,,,,,,,
28,25,Memory,0,,,,,,,sunaaftlyfudyzuhqzf.jpg,,,,,,,,,,,,,,,
29,25,Memory,0,,,,,,,00959960627fa.jpg,,,,,,,,,,,,,,,
30,25,Memory,0,,,,,,,00936960627fa.jpg,,,,,,,,,,,,,,,
31,25,Memory,0,,,,,,,00158931230fb.jpg,,,,,,,,,,,,,,,
32,25,Memory,0,,,,,,,00073931230fa.jpg,,,,,,,,,,,,,,,
33,25,Memory,0,,,,,,,00096931230fa.jpg,,,,,,,,,,,,,,,
34,25,Memory,0,,,,,,,sunbdycacjfaujxitbw.jpg,,,,,,,,,,,,,,,
35,25,Memory,0,,,,,,,00782941205fa.jpg,,,,,,,,,,,,,,,
36,25,Memory,0,,,,,,,sunaawsdjisukbbginm.jpg,,,,,,,,,,,,,,,
37,25,Memory,0,,,,,,,sunavxokzybtomhbmvm.jpg,,,,,,,,,,,,,,,
38,25,Memory,0,,,,,,,00877960530fa.jpg,,,,,,,,,,,,,,,
39,25,Memory,0,,,,,,,sunaaiqiqcggrskoqgy.jpg,,,,,,,,,,,,,,,
40,25,Memory,0,,,,,,,sunajxpkuhbizeveguy.jpg,,,,,,,,,,,,,,,
41,25,Memory,0,,,,,,,sunahpblecxtmuzkmxb.jpg,,,,,,,,,,,,,,,
42,25,Memory,0,,,,,,,00210940128fb.jpg,,,,,,,,,,,,,,,
43,25,Memory,0,,,,,,,00979960627fa.jpg,,,,,,,,,,,,,,,
44,25,Memory,0,,,,,,,00191940128fb.jpg,,,,,,,,,,,,,,,
45,25,Memory,0,,,,,,,00773941201fa.jpg,,,,,,,,,,,,,,,
46,25,Memory,0,,,,,,,sunaakvmbftkrgqhjun.jpg,,,,,,,,,,,,,,,
47,25,Memory,0,,,,,,,sunaafbmtoniaasysgu.jpg,,,,,,,,,,,,,,,
48,25,Memory,0,,,,,,,sunaqgjuuwvdcyiccjt.jpg,,,,,,,,,,,,,,,
49,25,Memory,0,,,,,,,sunbbegcweqnetpdlrh.jpg,,,,,,,,,,,,,,,
50,25,Presentation,1,00163931230fb_sunaavodbcpygkggnfp.jpg,00982960627fa_sunbesrwkdsffeogeqq.jpg,,,,,,,>,Place,,,,,1,,,,,,,x
51,25,Presentation,1,00851940307fa_sunaivflshbyfrfzhqb.jpg,00581940928fa_sunacvzhvcksnwqcqbw.jpg,,,,,,,<,Face,,,,,1,,,,,,,x
52,25,Presentation,1,00571940928fa_sunacuatpqpqhyjhjqk.jpg,00859940307fa_sunaiycurtqsfkvcaso.jpg,,,,,,,<,Place,,,,,0,,,,,,,o
53,25,Presentation,1,00944960627fa_sunasbbntuiheekqyaq.jpg,00725941201fa_sunaefgzwiramypjvtd.jpg,,,,,,,>,Place,,,,,1,,,,,,,x
54,25,Presentation,1,00108960530fa_sunaajtnvzzpsjdzres.jpg,00532960627fa_sunaccdtpgenvcbcbcf.jpg,,,,,,,>,Face,,,,,1,,,,,,,x
55,25,Presentation,1,00747941201fa_sunaeutbrtswvsozxyk.jpg,00675941121fa_sunadoxcchtmsxewsau.jpg,,,,,,,<,Face,,,,,1,,,,,,,o
56,25,Presentation,1,00902960530fa_sunanaacmmosxrfwmvl.jpg,00313940422fa_sunabwjvmoaddlyxfjr.jpg,,,,,,,>,Place,,,,,1,,,,,,,o
57,25,Presentation,1,00976960627fa_sunbbhqyyzmsxhsbjmp.jpg,00314940422fa_sunabwmcbaxwioksdgw.jpg,,,,,,,>,Face,,,,,1,,,,,,,x
58,25,Presentation,1,00263940128fb_sunabjuovqvyfuzvqwt.jpg,00949960627fb_sunasnqkkyhilqkxiqm.jpg,,,,,,,<,Face,,,,,1,,,,,,,x
59,25,Presentation,1,00564941031fa_sunacsaovnjezqwbykf.jpg,00961960627fa_sunawotxrevnqvamsfp.jpg,,,,,,,<,Place,,,,,1,,,,,,,x
60,25,Memory,1,,,,,,,sunaloffvbvysigxent.jpg,,,,,,,,,,,,,,,
61,25,Memory,1,,,,,,,00280940422fb.jpg,,,,,,,,,,,,,,,
62,25,Memory,1,,,,,,,sunaajayojuslbbnneg.jpg,,,,,,,,,,,,,,,
63,25,Memory,1,,,,,,,sunacsaovnjezqwbykf.jpg,,,,,,,,,,,,,,,
64,25,Memory,1,,,,,,,00120931230fa.jpg,,,,,,,,,,,,,,,
65,25,Memory,1,,,,,,,sunaajuzribjrizdshh.jpg,,,,,,,,,,,,,,,
66,25,Memory,1,,,,,,,00209940128fb.jpg,,,,,,,,,,,,,,,
67,25,Memory,1,,,,,,,00564941031fa.jpg,,,,,,,,,,,,,,,
68,25,Memory,1,,,,,,,sunaivflshbyfrfzhqb.jpg,,,,,,,,,,,,,,,
69,25,Memory,1,,,,,,,00747941201fa.jpg,,,,,,,,,,,,,,,
70,25,Memory,1,,,,,,,00194940128fb.jpg,,,,,,,,,,,,,,,
71,25,Memory,1,,,,,,,sunaagcpoejbuzyvddd.jpg,,,,,,,,,,,,,,,
72,25,Memory,1,,,,,,,00893960530Fa.jpg,,,,,,,,,,,,,,,
73,25,Memory,1,,,,,,,sunaazzyhbvqjpmazjq.jpg,,,,,,,,,,,,,,,
74,25,Memory,1,,,,,,,sunabaergayifsgacxt.jpg,,,,,,,,,,,,,,,
75,25,Memory,1,,,,,,,sunasnqkkyhilqkxiqm.jpg,,,,,,,,,,,,,,,
76,25,Memory,1,,,,,,,sunaakxgygjfqrzpyoz.jpg,,,,,,,,,,,,,,,
77,25,Memory,1,,,,,,,00097931230fa.jpg,,,,,,,,,,,,,,,
78,25,Memory,1,,,,,,,00109931230fa.jpg,,,,,,,,,,,,,,,
79,25,Memory,1,,,,,,,sunaayehfdqcyxggsej.jpg,,,,,,,,,,,,,,,
80,25,Memory,1,,,,,,,sunaeutbrtswvsozxyk.jpg,,,,,,,,,,,,,,,
81,25,Memory,1,,,,,,,sunadkazmlajmohnwfl.jpg,,,,,,,,,,,,,,,
82,25,Memory,1,,,,,,,00263940128fb.jpg,,,,,,,,,,,,,,,
83,25,Memory,1,,,,,,,00089931230fa.jpg,,,,,,,,,,,,,,,
84,25,Memory,1,,,,,,,00851940307fa.jpg,,,,,,,,,,,,,,,
85,25,Memory,1,,,,,,,sunabwjvmoaddlyxfjr.jpg,,,,,,,,,,,,,,,
86,25,Memory,1,,,,,,,sunaiycurtqsfkvcaso.jpg,,,,,,,,,,,,,,,
87,25,Memory,1,,,,,,,sunasbbntuiheekqyaq.jpg,,,,,,,,,,,,,,,
88,25,Memory,1,,,,,,,sunabwmcbaxwioksdgw.jpg,,,,,,,,,,,,,,,
89,25,Memory,1,,,,,,,00314940422fa.jpg,,,,,,,,,,,,,,,
90,25,Memory,1,,,,,,,00662941121fa.jpg,,,,,,,,,,,,,,,
91,25,Memory,1,,,,,,,00859940307fa.jpg,,,,,,,,,,,,,,,
92,25,Memory,1,,,,,,,00944960627fa.jpg,,,,,,,,,,,,,,,
93,25,Memory,1,,,,,,,sunabohxbskznglnrhv.jpg,,,,,,,,,,,,,,,
94,25,Memory,1,,,,,,,sunbesrwkdsffeogeqq.jpg,,,,,,,,,,,,,,,
95,25,Memory,1,,,,,,,00982960627fa.jpg,,,,,,,,,,,,,,,
96,25,Memory,1,,,,,,,00949960627fb.jpg,,,,,,,,,,,,,,,
97,25,Memory,1,,,,,,,00208940128fa.jpg,,,,,,,,,,,,,,,
98,25,Memory,1,,,,,,,00313940422fa.jpg,,,,,,,,,,,,,,,
99,25,Memory,1,,,,,,,sunabjuovqvyfuzvqwt.jpg,,,,,,,,,,,,,,,
100,25,Presentation,2,00700941121fa_sunadsgmtznewzyasnk.jpg,00894960620fa_sunalqmfgeadpqsyzpd.jpg,,,,,,,<,Place,,,,,1,,,,,,,o
101,25,Presentation,2,00071941031fa_sunaaexqbtdswxrqjvz.jpg,00989960627fa_sunbondbduabvijnmch.jpg,,,,,,,>,Place,,,,,1,,,,,,,x
102,25,Presentation,2,01002960627fb_sunbwaafjdebjzttuvq.jpg,00937960627fa_sunaqsolmfydodnakub.jpg,,,,,,,>,Face,,,,,1,,,,,,,x
103,25,Presentation,2,00751960620fa_sunaezuszgtxnmsxdbk.jpg,00061931230fb_sunaaekxzjzrfgtkwjf.jpg,,,,,,,<,Place,,,,,1,,,,,,,o
104,25,Presentation,2,00557940519fa_sunachtuarilwyqnvjx.jpg,00804960530fa_sunagwswhkvnsmuszlz.jpg,,,,,,,<,Face,,,,,1,,,,,,,x
105,25,Presentation,2,00554940519fa_sunacfdkbsrughwqwtt.jpg,00800941205fb_sunagvjurcwdbixvnyi.jpg,,,,,,,>,Face,,,,,1,,,,,,,o
106,25,Presentation,2,00993960627fa_sunbprywzqxjcezkbch.jpg,00316940422fa_sunabxmguapjekttvwm.jpg,,,,,,,>,Place,,,,,0,,,,,,,o
107,25,Presentation,2,00750941201fa_sunaeuzwggvibufclwf.jpg,00773960620fa_sunafvsxtzaizojicxx.jpg,,,,,,,<,Place,,,,,0,,,,,,,x
108,25,Presentation,2,00929960627fa_sunaprnrbmgkomdbchr.jpg,00794960620fa_sunagtqhhwxjeuxdebe.jpg,,,,,,,>,Face,,,,,1,,,,,,,o
109,25,Presentation,2,00620940928fa_sunacypmnujalygkunp.jpg,00481940519fa_sunabxsuqbleluwczoy.jpg,,,,,,,<,Face,,,,,1,,,,,,,o
110,25,Memory,2,,,,,,,sunabxmguapjekttvwm.jpg,,,,,,,,,,,,,,,
111,25,Memory,2,,,,,,,00069931230fb.jpg,,,,,,,,,,,,,,,
112,25,Memory,2,,,,,,,00598940928fa.jpg,,,,,,,,,,,,,,,
113,25,Memory,2,,,,,,,00929960627fa.jpg,,,,,,,,,,,,,,,
114,25,Memory,2,,,,,,,00481940519fa.jpg,,,,,,,,,,,,,,,
115,25,Memory,2,,,,,,,sunbwaafjdebjzttuvq.jpg,,,,,,,,,,,,,,,
116,25,Memory,2,,,,,,,sunainqelldeebvxtcz.jpg,,,,,,,,,,,,,,,
117,25,Memory,2,,,,,,,00836940307fa.jpg,,,,,,,,,,,,,,,
118,25,Memory,2,,,,,,,sunalqmfgeadpqsyzpd.jpg,,,,,,,,,,,,,,,
119,25,Memory,2,,,,,,,sunacfdkbsrughwqwtt.jpg,,,,,,,,,,,,,,,
120,25,Memory,2,,,,,,,sunacxeheuiigkcgquf.jpg,,,,,,,,,,,,,,,
121,25,Memory,2,,,,,,,00648941031fa.jpg,,,,,,,,,,,,,,,
122,25,Memory,2,,,,,,,sunaqsolmfydodnakub.jpg,,,,,,,,,,,,,,,
123,25,Memory,2,,,,,,,00827940307fa.jpg,,,,,,,,,,,,,,,
124,25,Memory,2,,,,,,,sunadfndyrtqqiasoig.jpg,,,,,,,,,,,,,,,
125,25,Memory,2,,,,,,,sunachtuarilwyqnvjx.jpg,,,,,,,,,,,,,,,
126,25,Memory,2,,,,,,,00316940422fa.jpg,,,,,,,,,,,,,,,
127,25,Memory,2,,,,,,,sunacwggadqsfpovdjv.jpg,,,,,,,,,,,,,,,
128,25,Memory,2,,,,,,,00634940928fa.jpg,,,,,,,,,,,,,,,
129,25,Memory,2,,,,,,,00989960627fa.jpg,,,,,,,,,,,,,,,
130,25,Memory,2,,,,,,,00774941201fa.jpg,,,,,,,,,,,,,,,
131,25,Memory,2,,,,,,,00071941031fa.jpg,,,,,,,,,,,,,,,
132,25,Memory,2,,,,,,,sunabxsuqbleluwczoy.jpg,,,,,,,,,,,,,,,
133,25,Memory,2,,,,,,,sunaprnrbmgkomdbchr.jpg,,,,,,,,,,,,,,,
134,25,Memory,2,,,,,,,sundbixjudsgeuuehrn.jpg,,,,,,,,,,,,,,,
135,25,Memory,2,,,,,,,sunagetqixeypsysbpn.jpg,,,,,,,,,,,,,,,
136,25,Memory,2,,,,,,,sunahtfxgsrmkiulnwk.jpg,,,,,,,,,,,,,,,
137,25,Memory,2,,,,,,,00589940928fa.jpg,,,,,,,,,,,,,,,
138,25,Memory,2,,,,,,,sunaaeowapdkwzqpgqr.jpg,,,,,,,,,,,,,,,
139,25,Memory,2,,,,,,,00937960627fa.jpg,,,,,,,,,,,,,,,
140,25,Memory,2,,,,,,,00557940519fa.jpg,,,,,,,,,,,,,,,
141,25,Memory,2,,,,,,,sunaaexqbtdswxrqjvz.jpg,,,,,,,,,,,,,,,
142,25,Memory,2,,,,,,,sunafvtpfczkzopbgue.jpg,,,,,,,,,,,,,,,
143,25,Memory,2,,,,,,,sunadcphrizvfpljiqt.jpg,,,,,,,,,,,,,,,
144,25,Memory,2,,,,,,,00894960620fa.jpg,,,,,,,,,,,,,,,
145,25,Memory,2,,,,,,,00780960530fa.jpg,,,,,,,,,,,,,,,
146,25,Memory,2,,,,,,,sunbondbduabvijnmch.jpg,,,,,,,,,,,,,,,
147,25,Memory,2,,,,,,,00554940519fa.jpg,,,,,,,,,,,,,,,
148,25,Memory,2,,,,,,,01207940128fa.jpg,,,,,,,,,,,,,,,
149,25,Memory,2,,,,,,,01002960627fb.jpg,,,,,,,,,,,,,,,
150,25,Presentation,3,00076931230fa_sunaafewhewbxmjiurz.jpg,00568940928fa_sunacsdhbbsybcyxnel.jpg,,,,,,,<,Place,,,,,1,,,,,,,x
151,25,Presentation,3,00871940307_sunajrujcsdxmfbssmc.jpg,00065931230fb_sunaaemixhfquhnxxlm.jpg,,,,,,,>,Place,,,,,1,,,,,,,o
152,25,Presentation,3,00719941201fa_sunadvithllcgmfxsrn.jpg,00149931230fa_sunaauglwmctnkxyird.jpg,,,,,,,<,Face,,,,,1,,,,,,,x
153,25,Presentation,3,00880960530fa_sunakmnfgklupjijsgf.jpg,00102931230fa_sunaajspcoepticvplv.jpg,,,,,,,>,Place,,,,,1,,,,,,,x
154,25,Presentation,3,00540940519fa_sunacdnquypmsshhsbk.jpg,00214940128fa_sunabbafjowbzcvbucc.jpg,,,,,,,>,Face,,,,,1,,,,,,,x
155,25,Presentation,3,00305940422fa_sunabtrnbvpppgczjim.jpg,00965960627fa_sunaydywdmvlfddbxbk.jpg,,,,,,,>,Place,,,,,1,,,,,,,x
156,25,Presentation,3,00144931230fb_sunaathajvxrgptwhoj.jpg,00727941205fa_sunaeisnjeetzmkbuad.jpg,,,,,,,>,Face,,,,,1,,,,,,,x
157,25,Presentation,3,00892960530fa_sunalntxqqadigcletd.jpg,00101931230fb_sunaajqmsaavkmgbsth.jpg,,,,,,,<,Face,,,,,1,,,,,,,o
158,25,Presentation,3,00942960627fa_sunarfdklgdnjgeqfjg.jpg,01011960627fa_sundahdxwmcdluscvot.jpg,,,,,,,<,Place,,,,,0,,,,,,,x
159,25,Presentation,3,00835940307fa_sunaijsqpvodplbwxkf.jpg,00919960620fa_sunapmfmzadmosuogaz.jpg,,,,,,,<,Face,,,,,1,,,,,,,o
160,25,Memory,3,,,,,,,sunapmfmzadmosuogaz.jpg,,,,,,,,,,,,,,,
161,25,Memory,3,,,,,,,sunaijsqpvodplbwxkf.jpg,,,,,,,,,,,,,,,
162,25,Memory,3,,,,,,,00062931230fb.jpg,,,,,,,,,,,,,,,
163,25,Memory,3,,,,,,,00926960627Fa.jpg,,,,,,,,,,,,,,,
164,25,Memory,3,,,,,,,sunacdnquypmsshhsbk.jpg,,,,,,,,,,,,,,,
165,25,Memory,3,,,,,,,00102931230fa.jpg,,,,,,,,,,,,,,,
166,25,Memory,3,,,,,,,sunafijbgncijwykrnl.jpg,,,,,,,,,,,,,,,
167,25,Memory,3,,,,,,,00728941205fa.jpg,,,,,,,,,,,,,,,
168,25,Memory,3,,,,,,,00835940307fa.jpg,,,,,,,,,,,,,,,
169,25,Memory,3,,,,,,,00990960627fa.jpg,,,,,,,,,,,,,,,
170,25,Memory,3,,,,,,,sunapqwoeotxshkukbh.jpg,,,,,,,,,,,,,,,
171,25,Memory,3,,,,,,,00766960620fa.jpg,,,,,,,,,,,,,,,
172,25,Memory,3,,,,,,,sunabtrnbvpppgczjim.jpg,,,,,,,,,,,,,,,
173,25,Memory,3,,,,,,,sunbpflsdaxnddnwcqi.jpg,,,,,,,,,,,,,,,
174,25,Memory,3,,,,,,,sunaffstbkappprzxnv.jpg,,,,,,,,,,,,,,,
175,25,Memory,3,,,,,,,sunagvprlbprarvgdvj.jpg,,,,,,,,,,,,,,,
176,25,Memory,3,,,,,,,sunarfdklgdnjgeqfjg.jpg,,,,,,,,,,,,,,,
177,25,Memory,3,,,,,,,00801941205fa.jpg,,,,,,,,,,,,,,,
178,25,Memory,3,,,,,,,sunaajqmsaavkmgbsth.jpg,,,,,,,,,,,,,,,
179,25,Memory,3,,,,,,,00919960620fa.jpg,,,,,,,,,,,,,,,
180,25,Memory,3,,,,,,,sunalntxqqadigcletd.jpg,,,,,,,,,,,,,,,
181,25,Memory,3,,,,,,,00483940519fa.jpg,,,,,,,,,,,,,,,
182,25,Memory,3,,,,,,,00305940422fa.jpg,,,,,,,,,,,,,,,
183,25,Memory,3,,,,,,,00892960530fa.jpg,,,,,,,,,,,,,,,
184,25,Memory,3,,,,,,,sunabyvpwkgsjtijdwj.jpg,,,,,,,,,,,,,,,
185,25,Memory,3,,,,,,,sunagwzdbtlixdhgolm.jpg,,,,,,,,,,,,,,,
186,25,Memory,3,,,,,,,00149931230fa.jpg,,,,,,,,,,,,,,,
187,25,Memory,3,,,,,,,00214940128fa.jpg,,,,,,,,,,,,,,,
188,25,Memory,3,,,,,,,sunaauglwmctnkxyird.jpg,,,,,,,,,,,,,,,
189,25,Memory,3,,,,,,,00942960627fa.jpg,,,,,,,,,,,,,,,
190,25,Memory,3,,,,,,,00101931230fb.jpg,,,,,,,,,,,,,,,
191,25,Memory,3,,,,,,,sunabbafjowbzcvbucc.jpg,,,,,,,,,,,,,,,
192,25,Memory,3,,,,,,,00540940519fa.jpg,,,,,,,,,,,,,,,
193,25,Memory,3,,,,,,,sunaajspcoepticvplv.jpg,,,,,,,,,,,,,,,
194,25,Memory,3,,,,,,,sunafcofuuzebuadceo.jpg,,,,,,,,,,,,,,,
195,25,Memory,3,,,,,,,00753941201fa.jpg,,,,,,,,,,,,,,,
196,25,Memory,3,,,,,,,sunaejnvnpltdmhbcsi.jpg,,,,,,,,,,,,,,,
197,25,Memory,3,,,,,,,00760960620fa.jpg,,,,,,,,,,,,,,,
198,25,Memory,3,,,,,,,00805941205fa.jpg,,,,,,,,,,,,,,,
199,25,Memory,3,,,,,,,sunaaelotvjgibjtjhs.jpg,,,,,,,,,,,,,,,
200,25,Presentation,4,00676941121fa_sunadpnqovzckyikrjo.jpg,00184940128fa_sunaavtbadenwnzeutj.jpg,,,,,,,>,Place,,,,,1,,,,,,,x
201,25,Presentation,4,00242940128fa_sunabcuurugvxwparpk.jpg,00670941121fa_sunadochqcucscehsgk.jpg,,,,,,,>,Face,,,,,1,,,,,,,o
202,25,Presentation,4,00292940422fb_sunabrjdpmoedcdjbpo.jpg,00762941201fa_sunafgzgbisbopcyslr.jpg,,,,,,,>,Place,,,,,1,,,,,,,o
203,25,Presentation,4,00922960627fa_sunapqkyghktgtosuuk.jpg,00631940928fa_sunadbdqzigzwipuipr.jpg,,,,,,,<,Place,,,,,1,,,,,,,o
204,25,Presentation,4,00154931230fa_sunaauueuhhvklldjik.jpg,00218940128fa_sunabbwggenhfbftyvi.jpg,,,,,,,<,Face,,,,,1,,,,,,,o
205,25,Presentation,4,00302940422fa_sunabtlfmiwtljmoues.jpg,00630940928fa_sunaczwgyukesaajxnx.jpg,,,,,,,>,Place,,,,,0,,,,,,,x
206,25,Presentation,4,00609940928fa_sunacycdoztxoluxjyk.jpg,00913960530fa_sunaooffzffbhcpirmm.jpg,,,,,,,<,Face,,,,,0,,,,,,,x
207,25,Presentation,4,00482940519fa_sunabyfxcxhdebvdyfd.jpg,00828940307fa_sunahuynahneraqftyz.jpg,,,,,,,<,Place,,,,,1,,,,,,,o
208,25,Presentation,4,00754941201fa_sunaffgsyyvoqdlkmnk.jpg,00925960627fa_sunapqwnqzxlsfvgsjm.jpg,,,,,,,<,Face,,,,,1,,,,,,,o
209,25,Presentation,4,00789960620fa_sunagpancjmxqfazssf.jpg,00901960530fa_sunammbnoambmhdxdwd.jpg,,,,,,,>,Face,,,,,1,,,,,,,x
210,25,Memory,4,,,,,,,00292940422fb.jpg,,,,,,,,,,,,,,,
211,25,Memory,4,,,,,,,sunabcuurugvxwparpk.jpg,,,,,,,,,,,,,,,
212,25,Memory,4,,,,,,,sunaatjesvdupctftmn.jpg,,,,,,,,,,,,,,,
213,25,Memory,4,,,,,,,sunapileznnbbmrwoei.jpg,,,,,,,,,,,,,,,
214,25,Memory,4,,,,,,,sunabrjdpmoedcdjbpo.jpg,,,,,,,,,,,,,,,
215,25,Memory,4,,,,,,,sunaetydippjxikifsb.jpg,,,,,,,,,,,,,,,
216,25,Memory,4,,,,,,,00909960530.jpg,,,,,,,,,,,,,,,
217,25,Memory,4,,,,,,,00676941121fa.jpg,,,,,,,,,,,,,,,
218,25,Memory,4,,,,,,,sunalcrtwiycqobgelp.jpg,,,,,,,,,,,,,,,
219,25,Memory,4,,,,,,,00720960620fa.jpg,,,,,,,,,,,,,,,
220,25,Memory,4,,,,,,,00242940128fa.jpg,,,,,,,,,,,,,,,
221,25,Memory,4,,,,,,,sunaecpkgfewqqreqwe.jpg,,,,,,,,,,,,,,,
222,25,Memory,4,,,,,,,sunaczwgyukesaajxnx.jpg,,,,,,,,,,,,,,,
223,25,Memory,4,,,,,,,00145931230fb.jpg,,,,,,,,,,,,,,,
224,25,Memory,4,,,,,,,00082931230fa.jpg,,,,,,,,,,,,,,,
225,25,Memory,4,,,,,,,00887960530.jpg,,,,,,,,,,,,,,,
226,25,Memory,4,,,,,,,sunaafvitpexrpvumsa.jpg,,,,,,,,,,,,,,,
227,25,Memory,4,,,,,,,sunadbdqzigzwipuipr.jpg,,,,,,,,,,,,,,,
228,25,Memory,4,,,,,,,00630940928fa.jpg,,,,,,,,,,,,,,,
229,25,Memory,4,,,,,,,00922960627fa.jpg,,,,,,,,,,,,,,,
230,25,Memory,4,,,,,,,00915960620fa.jpg,,,,,,,,,,,,,,,
231,25,Memory,4,,,,,,,sunbgzjryivyczuvkvm.jpg,,,,,,,,,,,,,,,
232,25,Memory,4,,,,,,,00983960627fa.jpg,,,,,,,,,,,,,,,
233,25,Memory,4,,,,,,,sunapqkyghktgtosuuk.jpg,,,,,,,,,,,,,,,
234,25,Memory,4,,,,,,,00986960627fa.jpg,,,,,,,,,,,,,,,
235,25,Memory,4,,,,,,,sunantryfbloeaomfta.jpg,,,,,,,,,,,,,,,
236,25,Memory,4,,,,,,,sunbfyvfqiimvdaxlqn.jpg,,,,,,,,,,,,,,,
237,25,Memory,4,,,,,,,00913960530fa.jpg,,,,,,,,,,,,,,,
238,25,Memory,4,,,,,,,00901960530fa.jpg,,,,,,,,,,,,,,,
239,25,Memory,4,,,,,,,00631940928fa.jpg,,,,,,,,,,,,,,,
240,25,Memory,4,,,,,,,00746941201fa.jpg,,,,,,,,,,,,,,,
241,25,Memory,4,,,,,,,sunaobtizabegtwfwul.jpg,,,,,,,,,,,,,,,
242,25,Memory,4,,,,,,,sunabtlfmiwtljmoues.jpg,,,,,,,,,,,,,,,
243,25,Memory,4,,,,,,,00906960530fa.jpg,,,,,,,,,,,,,,,
244,25,Memory,4,,,,,,,00302940422fa.jpg,,,,,,,,,,,,,,,
245,25,Memory,4,,,,,,,sunaavtbadenwnzeutj.jpg,,,,,,,,,,,,,,,
246,25,Memory,4,,,,,,,00184940128fa.jpg,,,,,,,,,,,,,,,
247,25,Memory,4,,,,,,,sunammbnoambmhdxdwd.jpg,,,,,,,,,,,,,,,
248,25,Memory,4,,,,,,,sunaooffzffbhcpirmm.jpg,,,,,,,,,,,,,,,
249,25,Memory,4,,,,,,,sunadpnqovzckyikrjo.jpg,,,,,,,,,,,,,,,
250,25,Presentation,5,00193940928fa_sunaaxjpzcnxligjtjq.jpg,00723941201fa_sunaedtgwjvvziytspa.jpg,,,,,,,<,Face,,,,,1,,,,,,,x
251,25,Presentation,5,00911960530fa_sunaooaqzputrowwbsw.jpg,01010960627fa_suncnkvbhypnivcohyx.jpg,,,,,,,<,Place,,,,,1,,,,,,,o
252,25,Presentation,5,00966960627fa_sunaygrtwrwfezqjizr.jpg,00908960530fa_sunanwjjyqqwzqrqagd.jpg,,,,,,,>,Face,,,,,1,,,,,,,o
253,25,Presentation,5,00111931230fb_sunaakgekhjklxmvulj.jpg,00809960620fa_sunahbvlpavurqoxdeq.jpg,,,,,,,<,Place,,,,,1,,,,,,,x
254,25,Presentation,5,00905960530fa_sunanmoqeyprjjjfxjt.jpg,00694941121fa_sunadrmfzmstgdjdcod.jpg,,,,,,,>,Face,,,,,1,,,,,,,x
255,25,Presentation,5,00077931230fb_sunaafgqutfaishsxyu.jpg,00745941205fa_sunaeouogqolxvggaoq.jpg,,,,,,,>,Place,,,,,1,,,,,,,x
256,25,Presentation,5,00127931230fa_sunaampvucecsfbdafn.jpg,00235940128fb_sunabclssnoeuigtawp.jpg,,,,,,,>,Face,,,,,1,,,,,,,x
257,25,Presentation,5,00792941205fa_sunagsiwrmuixqgdimb.jpg,00793941205fa_sunagtjwilqjvxohypn.jpg,,,,,,,<,Face,,,,,1,,,,,,,o
258,25,Presentation,5,01005960627fa_sunbwyuesflwdpqtgoy.jpg,00761960627fa_sunafgdqbclkwfocdhg.jpg,,,,,,,<,Place,,,,,1,,,,,,,x
259,25,Presentation,5,00227940128fa_sunabckqabszusgcykj.jpg,00988960627fa_sunbmaiocftdtvnzgap.jpg,,,,,,,>,Place,,,,,1,,,,,,,x
260,25,Memory,5,,,,,,,sunafgdqbclkwfocdhg.jpg,,,,,,,,,,,,,,,
261,25,Memory,5,,,,,,,sunacxtcahkymosigud.jpg,,,,,,,,,,,,,,,
262,25,Memory,5,,,,,,,sunbmaiocftdtvnzgap.jpg,,,,,,,,,,,,,,,
263,25,Memory,5,,,,,,,sunaiozxhxgtfrmoagh.jpg,,,,,,,,,,,,,,,
264,25,Memory,5,,,,,,,sunbbfqwjpdxniyhies.jpg,,,,,,,,,,,,,,,
265,25,Memory,5,,,,,,,sunagoufulkpsxrmklt.jpg,,,,,,,,,,,,,,,
266,25,Memory,5,,,,,,,01005960627fa.jpg,,,,,,,,,,,,,,,
267,25,Memory,5,,,,,,,sunadzuvtmtmgupotmf.jpg,,,,,,,,,,,,,,,
268,25,Memory,5,,,,,,,sunaampvucecsfbdafn.jpg,,,,,,,,,,,,,,,
269,25,Memory,5,,,,,,,sunagsiwrmuixqgdimb.jpg,,,,,,,,,,,,,,,
270,25,Memory,5,,,,,,,00988960627fa.jpg,,,,,,,,,,,,,,,
271,25,Memory,5,,,,,,,00874940307fa.jpg,,,,,,,,,,,,,,,
272,25,Memory,5,,,,,,,00911960530fa.jpg,,,,,,,,,,,,,,,
273,25,Memory,5,,,,,,,00838940307fa.jpg,,,,,,,,,,,,,,,
274,25,Memory,5,,,,,,,sunaooaqzputrowwbsw.jpg,,,,,,,,,,,,,,,
275,25,Memory,5,,,,,,,sunahbvlpavurqoxdeq.jpg,,,,,,,,,,,,,,,
276,25,Memory,5,,,,,,,00598941031fa.jpg,,,,,,,,,,,,,,,
277,25,Memory,5,,,,,,,sunaibnpvhkdpdnzcnz.jpg,,,,,,,,,,,,,,,
278,25,Memory,5,,,,,,,00792941205fa.jpg,,,,,,,,,,,,,,,
279,25,Memory,5,,,,,,,sunadrmfzmstgdjdcod.jpg,,,,,,,,,,,,,,,
280,25,Memory,5,,,,,,,00914960620fa.jpg,,,,,,,,,,,,,,,
281,25,Memory,5,,,,,,,00834940307fa.jpg,,,,,,,,,,,,,,,
282,25,Memory,5,,,,,,,sunajtrfunvzdfticna.jpg,,,,,,,,,,,,,,,
283,25,Memory,5,,,,,,,00127931230fa.jpg,,,,,,,,,,,,,,,
284,25,Memory,5,,,,,,,00809960620fa.jpg,,,,,,,,,,,,,,,
285,25,Memory,5,,,,,,,00761960627fa.jpg,,,,,,,,,,,,,,,
286,25,Memory,5,,,,,,,00694941121fa.jpg,,,,,,,,,,,,,,,
287,25,Memory,5,,,,,,,sunaozisvwfbmlkfhzv.jpg,,,,,,,,,,,,,,,
288,25,Memory,5,,,,,,,00787960620fa.jpg,,,,,,,,,,,,,,,
289,25,Memory,5,,,,,,,sunbtpilbhhbmhmeuzq.jpg,,,,,,,,,,,,,,,
290,25,Memory,5,,,,,,,sunbwyuesflwdpqtgoy.jpg,,,,,,,,,,,,,,,
291,25,Memory,5,,,,,,,00973960627fa.jpg,,,,,,,,,,,,,,,
292,25,Memory,5,,,,,,,00997960627fa.jpg,,,,,,,,,,,,,,,
293,25,Memory,5,,,,,,,00972960627fa.jpg,,,,,,,,,,,,,,,
294,25,Memory,5,,,,,,,sunaedtgwjvvziytspa.jpg,,,,,,,,,,,,,,,
295,25,Memory,5,,,,,,,00966960627fa.jpg,,,,,,,,,,,,,,,
296,25,Memory,5,,,,,,,sunbbgtoeuzierkkajt.jpg,,,,,,,,,,,,,,,
297,25,Memory,5,,,,,,,00723941201fa.jpg,,,,,,,,,,,,,,,
298,25,Memory,5,,,,,,,sunaygrtwrwfezqjizr.jpg,,,,,,,,,,,,,,,
299,25,Memory,5,,,,,,,00719960620fa.jpg,,,,,,,,,,,,,,,
300,25,Presentation,6,00953960627fa_sunatstrpjxhvtbaczf.jpg,00885960530fa_sunakwlvxjpddialozd.jpg,,,,,,,<,Face,,,,,1,,,,,,,o
301,25,Presentation,6,00819940307fa_sunahqldjibofgsfdgb.jpg,00185940422fb_sunaawqdbpihmlbwyyn.jpg,,,,,,,>,Place,,,,,1,,,,,,,x
302,25,Presentation,6,00955960627fb_sunauburywlkjszngcq.jpg,00812941205fa_sunahgtbwgsmtqeodwh.jpg,,,,,,,<,Face,,,,,1,,,,,,,o
303,25,Presentation,6,00799941205fa_sunagutjvdvnhxejerz.jpg,01004960627fa_sunbwtlihsuptkrckid.jpg,,,,,,,>,Place,,,,,1,,,,,,,o
304,25,Presentation,6,00140931230fb_sunaapllqyqlykszopd.jpg,00564940928fa_sunacmpqqfbsvlzinzl.jpg,,,,,,,>,Face,,,,,1,,,,,,,x
305,25,Presentation,6,00681941121fa_sunadqmjrhfjyuzyvdd.jpg,00095931230fa_sunaahzooisqkwlxwoz.jpg,,,,,,,<,Place,,,,,1,,,,,,,o
306,25,Presentation,6,00290940422fa_sunabqowuarvqqcnipn.jpg,00630941031fa_sunadakkdovnuzlycvp.jpg,,,,,,,<,Face,,,,,1,,,,,,,o
307,25,Presentation,6,00198940128fb_sunaazezcsunmhttzxz.jpg,00938960627fa_sunaqyylsngywqzwfmx.jpg,,,,,,,>,Face,,,,,1,,,,,,,o
308,25,Presentation,6,00776941205fa_sunafxokyavhgptyfye.jpg,00860940307fa_sunaizeyhvjzknwjudw.jpg,,,,,,,>,Place,,,,,1,,,,,,,o
309,25,Presentation,6,00129931230fb_sunaamsdyakblkfoydx.jpg,00783941205fa_sunagjeesomrwjsfqie.jpg,,,,,,,<,Place,,,,,1,,,,,,,o
310,25,Memory,6,,,,,,,00799941205fa.jpg,,,,,,,,,,,,,,,
311,25,Memory,6,,,,,,,00815941205fa.jpg,,,,,,,,,,,,,,,
312,25,Memory,6,,,,,,,sunaaeplwsfslcbtojr.jpg,,,,,,,,,,,,,,,
313,25,Memory,6,,,,,,,00864940307fa.jpg,,,,,,,,,,,,,,,
314,25,Memory,6,,,,,,,00860940307fa.jpg,,,,,,,,,,,,,,,
315,25,Memory,6,,,,,,,sunablfqiwfqomjarht.jpg,,,,,,,,,,,,,,,
316,25,Memory,6,,,,,,,00819940307fa.jpg,,,,,,,,,,,,,,,
317,25,Memory,6,,,,,,,sunahiphsekjihkafsl.jpg,,,,,,,,,,,,,,,
318,25,Memory,6,,,,,,,00564940928fa.jpg,,,,,,,,,,,,,,,
319,25,Memory,6,,,,,,,sunaapfaivxqoynnwwp.jpg,,,,,,,,,,,,,,,
320,25,Memory,6,,,,,,,sunaizeyhvjzknwjudw.jpg,,,,,,,,,,,,,,,
321,25,Memory,6,,,,,,,sunatstrpjxhvtbaczf.jpg,,,,,,,,,,,,,,,
322,25,Memory,6,,,,,,,sunafxokyavhgptyfye.jpg,,,,,,,,,,,,,,,
323,25,Memory,6,,,,,,,sunbaoizrfijvhpnnjn.jpg,,,,,,,,,,,,,,,
324,25,Memory,6,,,,,,,sunagutjvdvnhxejerz.jpg,,,,,,,,,,,,,,,
325,25,Memory,6,,,,,,,sunahqldjibofgsfdgb.jpg,,,,,,,,,,,,,,,
326,25,Memory,6,,,,,,,sunabwfvcqqidycwypa.jpg,,,,,,,,,,,,,,,
327,25,Memory,6,,,,,,,00138931230fa.jpg,,,,,,,,,,,,,,,
328,25,Memory,6,,,,,,,sunahgtbwgsmtqeodwh.jpg,,,,,,,,,,,,,,,
329,25,Memory,6,,,,,,,00730960620fa.jpg,,,,,,,,,,,,,,,
330,25,Memory,6,,,,,,,00969960627fa.jpg,,,,,,,,,,,,,,,
331,25,Memory,6,,,,,,,sunajawzbrlrwafowen.jpg,,,,,,,,,,,,,,,
332,25,Memory,6,,,,,,,sunaatpeezlljqaxlhj.jpg,,,,,,,,,,,,,,,
333,25,Memory,6,,,,,,,sunaekgzpfilgjxpeyq.jpg,,,,,,,,,,,,,,,
334,25,Memory,6,,,,,,,00146960620fb.jpg,,,,,,,,,,,,,,,
335,25,Memory,6,,,,,,,sunakwlvxjpddialozd.jpg,,,,,,,,,,,,,,,
336,25,Memory,6,,,,,,,00070940307fa.jpg,,,,,,,,,,,,,,,
337,25,Memory,6,,,,,,,00267940128fb.jpg,,,,,,,,,,,,,,,
338,25,Memory,6,,,,,,,00308940422fb.jpg,,,,,,,,,,,,,,,
339,25,Memory,6,,,,,,,00953960627fa.jpg,,,,,,,,,,,,,,,
340,25,Memory,6,,,,,,,sunajoveqhiprwqgoco.jpg,,,,,,,,,,,,,,,
341,25,Memory,6,,,,,,,00140931230fb.jpg,,,,,,,,,,,,,,,
342,25,Memory,6,,,,,,,00869940307fa.jpg,,,,,,,,,,,,,,,
343,25,Memory,6,,,,,,,sunacmpqqfbsvlzinzl.jpg,,,,,,,,,,,,,,,
344,25,Memory,6,,,,,,,00776941205fa.jpg,,,,,,,,,,,,,,,
345,25,Memory,6,,,,,,,00812941205fa.jpg,,,,,,,,,,,,,,,
346,25,Memory,6,,,,,,,00783941205fa.jpg,,,,,,,,,,,,,,,
347,25,Memory,6,,,,,,,sunaapllqyqlykszopd.jpg,,,,,,,,,,,,,,,
348,25,Memory,6,,,,,,,sunagjeesomrwjsfqie.jpg,,,,,,,,,,,,,,,
349,25,Memory,6,,,,,,,00885960530fa.jpg,,,,,,,,,,,,,,,
350,25,Presentation,7,00211940128fa_sunabasphceswhwwqvv.jpg,00921960627fa_sunapqkpqdfvxlbqwyo.jpg,,,,,,,<,Face,,,,,1,,,,,,,o
351,25,Presentation,7,00130931230fa_sunaamvxnvouicstkjb.jpg,00939960627fa_sunarceibpcyacbmfga.jpg,,,,,,,<,Place,,,,,1,,,,,,,x
352,25,Presentation,7,00978960627fa_sunbddbivbptlrlauhy.jpg,00807941205fa_sunahawfngukizslzsd.jpg,,,,,,,>,Place,,,,,1,,,,,,,x
353,25,Presentation,7,00063931230fa_sunaaelyvurpntclgau.jpg,00958960627fa_sunavspxmxubqaeidjt.jpg,,,,,,,>,Face,,,,,1,,,,,,,x
354,25,Presentation,7,00498960627fa_sunabzjxlmkwnwzimua.jpg,00080931230fb_sunaafjszryxyavjzln.jpg,,,,,,,>,Place,,,,,1,,,,,,,o
355,25,Presentation,7,00529940519fa_sunacbeefkxpymwevpk.jpg,00825940307fa_sunahrltmuwbiehihpe.jpg,,,,,,,<,Place,,,,,1,,,,,,,o
356,25,Presentation,7,00787941205fa_sunagmwxxwymwojbvgi.jpg,00816941205fa_sunahmhrncocyhsjpxk.jpg,,,,,,,>,Face,,,,,1,,,,,,,x
357,25,Presentation,7,00967960627fa_sunbaejotfklekvpxcz.jpg,00543940519fa_sunacepzfrmtkiqonpy.jpg,,,,,,,<,Place,,,,,1,,,,,,,o
358,25,Presentation,7,00803941205fa_sunagvxkjokqimstxpe.jpg,00795941205fa_sunagtumacdlmciqamz.jpg,,,,,,,>,Face,,,,,1,,,,,,,o
359,25,Presentation,7,00847940307fa_sunaivdjruhkrfywfed.jpg,00650941031fa_sunadikxpvqeabxrvvc.jpg,,,,,,,<,Face,,,,,0,,,,,,,x
360,25,Memory,7,,,,,,,sunacepzfrmtkiqonpy.jpg,,,,,,,,,,,,,,,
361,25,Memory,7,,,,,,,sunabasphceswhwwqvv.jpg,,,,,,,,,,,,,,,
362,25,Memory,7,,,,,,,sunaalhlvzmjmitybdn.jpg,,,,,,,,,,,,,,,
363,25,Memory,7,,,,,,,00211940128fa.jpg,,,,,,,,,,,,,,,
364,25,Memory,7,,,,,,,sunbxarcshsnqsefemx.jpg,,,,,,,,,,,,,,,
365,25,Memory,7,,,,,,,00884960530fa.jpg,,,,,,,,,,,,,,,
366,25,Memory,7,,,,,,,00803941205fa.jpg,,,,,,,,,,,,,,,
367,25,Memory,7,,,,,,,sunadikxpvqeabxrvvc.jpg,,,,,,,,,,,,,,,
368,25,Memory,7,,,,,,,00900960530fa.jpg,,,,,,,,,,,,,,,
369,25,Memory,7,,,,,,,sunaddsaeicthrfbkhe.jpg,,,,,,,,,,,,,,,
370,25,Memory,7,,,,,,,00650941031fa.jpg,,,,,,,,,,,,,,,
371,25,Memory,7,,,,,,,sunahawfngukizslzsd.jpg,,,,,,,,,,,,,,,
372,25,Memory,7,,,,,,,sunbddbivbptlrlauhy.jpg,,,,,,,,,,,,,,,
373,25,Memory,7,,,,,,,00112931230fa.jpg,,,,,,,,,,,,,,,
374,25,Memory,7,,,,,,,sunagmwxxwymwojbvgi.jpg,,,,,,,,,,,,,,,
375,25,Memory,7,,,,,,,sunaahedjlmtqekgyvj.jpg,,,,,,,,,,,,,,,
376,25,Memory,7,,,,,,,sunafkmnlytenlsywia.jpg,,,,,,,,,,,,,,,
377,25,Memory,7,,,,,,,00752960620fa.jpg,,,,,,,,,,,,,,,
378,25,Memory,7,,,,,,,sunaamvxnvouicstkjb.jpg,,,,,,,,,,,,,,,
379,25,Memory,7,,,,,,,00130931230fa.jpg,,,,,,,,,,,,,,,
380,25,Memory,7,,,,,,,sunagtumacdlmciqamz.jpg,,,,,,,,,,,,,,,
381,25,Memory,7,,,,,,,sunagvxkjokqimstxpe.jpg,,,,,,,,,,,,,,,
382,25,Memory,7,,,,,,,00816941205fa.jpg,,,,,,,,,,,,,,,
383,25,Memory,7,,,,,,,00807941205fa.jpg,,,,,,,,,,,,,,,
384,25,Memory,7,,,,,,,00543940519fa.jpg,,,,,,,,,,,,,,,
385,25,Memory,7,,,,,,,00787941205fa.jpg,,,,,,,,,,,,,,,
386,25,Memory,7,,,,,,,00795941205fa.jpg,,,,,,,,,,,,,,,
387,25,Memory,7,,,,,,,00124931230fa.jpg,,,,,,,,,,,,,,,
388,25,Memory,7,,,,,,,01007960627fa.jpg,,,,,,,,,,,,,,,
389,25,Memory,7,,,,,,,00635941031fa.jpg,,,,,,,,,,,,,,,
390,25,Memory,7,,,,,,,00857940307fa.jpg,,,,,,,,,,,,,,,
391,25,Memory,7,,,,,,,sunafbwnojpqeyzssoe.jpg,,,,,,,,,,,,,,,
392,25,Memory,7,,,,,,,sunakodkcslgqhqlgwl.jpg,,,,,,,,,,,,,,,
393,25,Memory,7,,,,,,,sunahmhrncocyhsjpxk.jpg,,,,,,,,,,,,,,,
394,25,Memory,7,,,,,,,00090931230fa.jpg,,,,,,,,,,,,,,,
395,25,Memory,7,,,,,,,sunaakjaacuzulqckgl.jpg,,,,,,,,,,,,,,,
396,25,Memory,7,,,,,,,00768941205fa.jpg,,,,,,,,,,,,,,,
397,25,Memory,7,,,,,,,sunamlotskmmsjeogby.jpg,,,,,,,,,,,,,,,
398,25,Memory,7,,,,,,,sunaiwfobocrruqznsv.jpg,,,,,,,,,,,,,,,
399,25,Memory,7,,,,,,,00978960627fa.jpg,,,,,,,,,,,,,,,
