,Subject,Trial Type,Run,Cued Composite,Uncued Composite,Cued Face,Cued Place,Uncued Face,Uncued Place,Memory Image,Category,Cued Side,Cued Category,Attention Reaction Time (s),Familiarity Reaction Time (s),Familiarity Rating,Attention Level,Cue Validity,Post Invalid Cue,Pre Invalid Cue,Attention Button,Rating History,Stimulus Onset,Stimulus End,Attention Probe
0,27,Presentation,0,00871940307_sunajrujcsdxmfbssmc.jpg,00576941031fa_sunacvjlsylseoghjup.jpg,00871940307.jpg,sunajrujcsdxmfbssmc.jpg,00576941031fa.jpg,sunacvjlsylseoghjup.jpg,,,>,Place,,,,,1,,,,,,,x
1,27,Presentation,0,00903960620fa_sunanainkqdvktzoxyl.jpg,00193940928fa_sunaaxjpzcnxligjtjq.jpg,00903960620fa.jpg,sunanainkqdvktzoxyl.jpg,00193940928fa.jpg,sunaaxjpzcnxligjtjq.jpg,,,>,Face,,,,,0,,,,,,,o
2,27,Presentation,0,00728941205fa_sunaejnvnpltdmhbcsi.jpg,00785941205fa_sunaglqunwuycxydmyu.jpg,00728941205fa.jpg,sunaejnvnpltdmhbcsi.jpg,00785941205fa.jpg,sunaglqunwuycxydmyu.jpg,,,<,Face,,,,,1,,,,,,,x
3,27,Presentation,0,00797960620fa_sunagufzbeteqdjxais.jpg,00119931230fb_sunaakvmbftkrgqhjun.jpg,00797960620fa.jpg,sunagufzbeteqdjxais.jpg,00119931230fb.jpg,sunaakvmbftkrgqhjun.jpg,,,<,Place,,,,,1,,,,,,,x
4,27,Presentation,0,00969960627fa_sunbaoizrfijvhpnnjn.jpg,00763941205fa_sunafhmnhsdurlvddpw.jpg,00969960627fa.jpg,sunbaoizrfijvhpnnjn.jpg,00763941205fa.jpg,sunafhmnhsdurlvddpw.jpg,,,<,Face,,,,,1,,,,,,,x
5,27,Presentation,0,00868960307fa_sunajjxttslobudoqbv.jpg,00859940307fa_sunaiycurtqsfkvcaso.jpg,00868960307fa.jpg,sunajjxttslobudoqbv.jpg,00859940307fa.jpg,sunaiycurtqsfkvcaso.jpg,,,<,Place,,,,,1,,,,,,,x
6,27,Presentation,0,00777941205fa_sunagcinxkccdtrjmlv.jpg,00766960620fa_sunafijbgncijwykrnl.jpg,00777941205fa.jpg,sunagcinxkccdtrjmlv.jpg,00766960620fa.jpg,sunafijbgncijwykrnl.jpg,,,>,Face,,,,,1,,,,,,,o
7,27,Presentation,0,00071940128fa_sunaaexpnawiehinlpy.jpg,00108960530fa_sunaajtnvzzpsjdzres.jpg,00071940128fa.jpg,sunaaexpnawiehinlpy.jpg,00108960530fa.jpg,sunaajtnvzzpsjdzres.jpg,,,>,Face,,,,,1,,,,,,,o
8,27,Presentation,0,00069931230fb_sunaaeowapdkwzqpgqr.jpg,00761960627fa_sunafgdqbclkwfocdhg.jpg,00069931230fb.jpg,sunaaeowapdkwzqpgqr.jpg,00761960627fa.jpg,sunafgdqbclkwfocdhg.jpg,,,>,Place,,,,,1,,,,,,,o
9,27,Presentation,0,00889960530fa_sunaletopenvvozhpxc.jpg,00937960627fa_sunaqsolmfydodnakub.jpg,00889960530fa.jpg,sunaletopenvvozhpxc.jpg,00937960627fa.jpg,sunaqsolmfydodnakub.jpg,,,<,Place,,,,,1,,,,,,,x
10,27,Memory,0,,,,,,,sunaejnvnpltdmhbcsi.jpg,,,,,,,,,,,,,,,
11,27,Memory,0,,,,,,,00983960627fa.jpg,,,,,,,,,,,,,,,
12,27,Memory,0,,,,,,,sunaaylzyqlqrsmfwif.jpg,,,,,,,,,,,,,,,
13,27,Memory,0,,,,,,,sunagcinxkccdtrjmlv.jpg,,,,,,,,,,,,,,,
14,27,Memory,0,,,,,,,sunafhmnhsdurlvddpw.jpg,,,,,,,,,,,,,,,
15,27,Memory,0,,,,,,,00785941205fa.jpg,,,,,,,,,,,,,,,
16,27,Memory,0,,,,,,,sunbaoizrfijvhpnnjn.jpg,,,,,,,,,,,,,,,
17,27,Memory,0,,,,,,,sunaakqepfoeqomfgxf.jpg,,,,,,,,,,,,,,,
18,27,Memory,0,,,,,,,sunaauhozyxzeeqstxi.jpg,,,,,,,,,,,,,,,
19,27,Memory,0,,,,,,,00859940307fa.jpg,,,,,,,,,,,,,,,
20,27,Memory,0,,,,,,,00314940422fa.jpg,,,,,,,,,,,,,,,
21,27,Memory,0,,,,,,,00969960627fa.jpg,,,,,,,,,,,,,,,
22,27,Memory,0,,,,,,,sunabyvpwkgsjtijdwj.jpg,,,,,,,,,,,,,,,
23,27,Memory,0,,,,,,,00778941205fa.jpg,,,,,,,,,,,,,,,
24,27,Memory,0,,,,,,,sunajrujcsdxmfbssmc.jpg,,,,,,,,,,,,,,,
25,27,Memory,0,,,,,,,sunaglqunwuycxydmyu.jpg,,,,,,,,,,,,,,,
26,27,Memory,0,,,,,,,sunagutjvdvnhxejerz.jpg,,,,,,,,,,,,,,,
27,27,Memory,0,,,,,,,00153931230fa.jpg,,,,,,,,,,,,,,,
28,27,Memory,0,,,,,,,sunafijbgncijwykrnl.jpg,,,,,,,,,,,,,,,
29,27,Memory,0,,,,,,,sunaiycurtqsfkvcaso.jpg,,,,,,,,,,,,,,,
30,27,Memory,0,,,,,,,sunacvjlsylseoghjup.jpg,,,,,,,,,,,,,,,
31,27,Memory,0,,,,,,,sunabwmcbaxwioksdgw.jpg,,,,,,,,,,,,,,,
32,27,Memory,0,,,,,,,00777941205fa.jpg,,,,,,,,,,,,,,,
33,27,Memory,0,,,,,,,00900960530fa.jpg,,,,,,,,,,,,,,,
34,27,Memory,0,,,,,,,00871940307.jpg,,,,,,,,,,,,,,,
35,27,Memory,0,,,,,,,sunbfyvfqiimvdaxlqn.jpg,,,,,,,,,,,,,,,
36,27,Memory,0,,,,,,,00071940128fa.jpg,,,,,,,,,,,,,,,
37,27,Memory,0,,,,,,,sunaaheqzstzxuadglu.jpg,,,,,,,,,,,,,,,
38,27,Memory,0,,,,,,,sunaaexpnawiehinlpy.jpg,,,,,,,,,,,,,,,
39,27,Memory,0,,,,,,,sunamlotskmmsjeogby.jpg,,,,,,,,,,,,,,,
40,27,Memory,0,,,,,,,00576941031fa.jpg,,,,,,,,,,,,,,,
41,27,Memory,0,,,,,,,00483940519fa.jpg,,,,,,,,,,,,,,,
42,27,Memory,0,,,,,,,00799941205fa.jpg,,,,,,,,,,,,,,,
43,27,Memory,0,,,,,,,00116931230fa.jpg,,,,,,,,,,,,,,,
44,27,Memory,0,,,,,,,00728941205fa.jpg,,,,,,,,,,,,,,,
45,27,Memory,0,,,,,,,00092931230fa.jpg,,,,,,,,,,,,,,,
46,27,Memory,0,,,,,,,00197940128fa.jpg,,,,,,,,,,,,,,,
47,27,Memory,0,,,,,,,00763941205fa.jpg,,,,,,,,,,,,,,,
48,27,Memory,0,,,,,,,sunagcthdfirrcawoic.jpg,,,,,,,,,,,,,,,
49,27,Memory,0,,,,,,,00766960620fa.jpg,,,,,,,,,,,,,,,
50,27,Presentation,1,00635941031fa_sunaddsaeicthrfbkhe.jpg,00834940307fa_sunaibnpvhkdpdnzcnz.jpg,00635941031fa.jpg,sunaddsaeicthrfbkhe.jpg,00834940307fa.jpg,sunaibnpvhkdpdnzcnz.jpg,,,>,Face,,,,,1,,,,,,,x
51,27,Presentation,1,00559940519fa_sunacjkmnpawfzbyvae.jpg,00866940307fa_sunajbwkywmsqkldfml.jpg,00559940519fa.jpg,sunacjkmnpawfzbyvae.jpg,00866940307fa.jpg,sunajbwkywmsqkldfml.jpg,,,<,Place,,,,,1,,,,,,,x
52,27,Presentation,1,00662941121fa_sunadkazmlajmohnwfl.jpg,00892960530fa_sunalntxqqadigcletd.jpg,00662941121fa.jpg,sunadkazmlajmohnwfl.jpg,00892960530fa.jpg,sunalntxqqadigcletd.jpg,,,<,Face,,,,,1,,,,,,,o
53,27,Presentation,1,00082931230fa_sunaafvitpexrpvumsa.jpg,00209940128fb_sunabaergayifsgacxt.jpg,00082931230fa.jpg,sunaafvitpexrpvumsa.jpg,00209940128fb.jpg,sunabaergayifsgacxt.jpg,,,<,Face,,,,,1,,,,,,,x
54,27,Presentation,1,00098931230fa_sunaajpqmulidejvjsr.jpg,00803941205fa_sunagvxkjokqimstxpe.jpg,00098931230fa.jpg,sunaajpqmulidejvjsr.jpg,00803941205fa.jpg,sunagvxkjokqimstxpe.jpg,,,>,Place,,,,,1,,,,,,,x
55,27,Presentation,1,00609940928fa_sunacycdoztxoluxjyk.jpg,00906960530fa_sunantryfbloeaomfta.jpg,00609940928fa.jpg,sunacycdoztxoluxjyk.jpg,00906960530fa.jpg,sunantryfbloeaomfta.jpg,,,<,Place,,,,,1,,,,,,,o
56,27,Presentation,1,00977960627fa_sunbbxkanhzjgbwyxqs.jpg,00070940307fa_sunaaeplwsfslcbtojr.jpg,00977960627fa.jpg,sunbbxkanhzjgbwyxqs.jpg,00070940307fa.jpg,sunaaeplwsfslcbtojr.jpg,,,>,Place,,,,,1,,,,,,,o
57,27,Presentation,1,00819940307fa_sunahqldjibofgsfdgb.jpg,00266940128fb_sunabkngeblodihjvbk.jpg,00819940307fa.jpg,sunahqldjibofgsfdgb.jpg,00266940128fb.jpg,sunabkngeblodihjvbk.jpg,,,>,Face,,,,,1,,,,,,,x
58,27,Presentation,1,00705941205fa_sunadtlxenqqxsyjvix.jpg,00789960620fa_sunagpancjmxqfazssf.jpg,00705941205fa.jpg,sunadtlxenqqxsyjvix.jpg,00789960620fa.jpg,sunagpancjmxqfazssf.jpg,,,>,Place,,,,,1,,,,,,,o
59,27,Presentation,1,00747941201fa_sunaeutbrtswvsozxyk.jpg,00898960530fa_sunamkmeblgteyggink.jpg,00747941201fa.jpg,sunaeutbrtswvsozxyk.jpg,00898960530fa.jpg,sunamkmeblgteyggink.jpg,,,<,Face,,,,,1,,,,,,,o
60,27,Memory,1,,,,,,,00986960627fa.jpg,,,,,,,,,,,,,,,
61,27,Memory,1,,,,,,,sunantryfbloeaomfta.jpg,,,,,,,,,,,,,,,
62,27,Memory,1,,,,,,,00874940307fa.jpg,,,,,,,,,,,,,,,
63,27,Memory,1,,,,,,,sunaakmxzhuceuiryah.jpg,,,,,,,,,,,,,,,
64,27,Memory,1,,,,,,,00705941205fa.jpg,,,,,,,,,,,,,,,
65,27,Memory,1,,,,,,,00866940307fa.jpg,,,,,,,,,,,,,,,
66,27,Memory,1,,,,,,,sunacsdhbbsybcyxnel.jpg,,,,,,,,,,,,,,,
67,27,Memory,1,,,,,,,00115931230fa.jpg,,,,,,,,,,,,,,,
68,27,Memory,1,,,,,,,00803941205fa.jpg,,,,,,,,,,,,,,,
69,27,Memory,1,,,,,,,00860940307fa.jpg,,,,,,,,,,,,,,,
70,27,Memory,1,,,,,,,sunaibnpvhkdpdnzcnz.jpg,,,,,,,,,,,,,,,
71,27,Memory,1,,,,,,,sunainqelldeebvxtcz.jpg,,,,,,,,,,,,,,,
72,27,Memory,1,,,,,,,00762941201fa.jpg,,,,,,,,,,,,,,,
73,27,Memory,1,,,,,,,sunalntxqqadigcletd.jpg,,,,,,,,,,,,,,,
74,27,Memory,1,,,,,,,sunaafvitpexrpvumsa.jpg,,,,,,,,,,,,,,,
75,27,Memory,1,,,,,,,sunbgzjryivyczuvkvm.jpg,,,,,,,,,,,,,,,
76,27,Memory,1,,,,,,,sunagvxkjokqimstxpe.jpg,,,,,,,,,,,,,,,
77,27,Memory,1,,,,,,,00568940928fa.jpg,,,,,,,,,,,,,,,
78,27,Memory,1,,,,,,,sunaddsaeicthrfbkhe.jpg,,,,,,,,,,,,,,,
79,27,Memory,1,,,,,,,sunajtrfunvzdfticna.jpg,,,,,,,,,,,,,,,
80,27,Memory,1,,,,,,,00793941205fa.jpg,,,,,,,,,,,,,,,
81,27,Memory,1,,,,,,,00892960530fa.jpg,,,,,,,,,,,,,,,
82,27,Memory,1,,,,,,,sunadtlxenqqxsyjvix.jpg,,,,,,,,,,,,,,,
83,27,Memory,1,,,,,,,00147931230fb.jpg,,,,,,,,,,,,,,,
84,27,Memory,1,,,,,,,00662941121fa.jpg,,,,,,,,,,,,,,,
85,27,Memory,1,,,,,,,00751960620fa.jpg,,,,,,,,,,,,,,,
86,27,Memory,1,,,,,,,00082931230fa.jpg,,,,,,,,,,,,,,,
87,27,Memory,1,,,,,,,00635941031fa.jpg,,,,,,,,,,,,,,,
88,27,Memory,1,,,,,,,sunagtjwilqjvxohypn.jpg,,,,,,,,,,,,,,,
89,27,Memory,1,,,,,,,00098931230fa.jpg,,,,,,,,,,,,,,,
90,27,Memory,1,,,,,,,sunaajpqmulidejvjsr.jpg,,,,,,,,,,,,,,,
91,27,Memory,1,,,,,,,00906960530fa.jpg,,,,,,,,,,,,,,,
92,27,Memory,1,,,,,,,00834940307fa.jpg,,,,,,,,,,,,,,,
93,27,Memory,1,,,,,,,sunajbwkywmsqkldfml.jpg,,,,,,,,,,,,,,,
94,27,Memory,1,,,,,,,sunaezuszgtxnmsxdbk.jpg,,,,,,,,,,,,,,,
95,27,Memory,1,,,,,,,sunaatpkocdkocwxpkb.jpg,,,,,,,,,,,,,,,
96,27,Memory,1,,,,,,,sunadkazmlajmohnwfl.jpg,,,,,,,,,,,,,,,
97,27,Memory,1,,,,,,,sunafgzgbisbopcyslr.jpg,,,,,,,,,,,,,,,
98,27,Memory,1,,,,,,,00836940307fa.jpg,,,,,,,,,,,,,,,
99,27,Memory,1,,,,,,,sunaizeyhvjzknwjudw.jpg,,,,,,,,,,,,,,,
100,27,Presentation,2,00562941031fa_sunacjnahdmqfnjfwqx.jpg,00901960530fa_sunammbnoambmhdxdwd.jpg,00562941031fa.jpg,sunacjnahdmqfnjfwqx.jpg,00901960530fa.jpg,sunammbnoambmhdxdwd.jpg,,,<,Place,,,,,1,,,,,,,x
101,27,Presentation,2,00149931230fa_sunaauglwmctnkxyird.jpg,00942960627fa_sunarfdklgdnjgeqfjg.jpg,00149931230fa.jpg,sunaauglwmctnkxyird.jpg,00942960627fa.jpg,sunarfdklgdnjgeqfjg.jpg,,,>,Place,,,,,1,,,,,,,x
102,27,Presentation,2,00574940928fa_sunacvbrcejzwmcgnoq.jpg,00996960627fa_sunbpvgllfdejxcpjqp.jpg,00574940928fa.jpg,sunacvbrcejzwmcgnoq.jpg,00996960627fa.jpg,sunbpvgllfdejxcpjqp.jpg,,,<,Face,,,,,1,,,,,,,x
103,27,Presentation,2,00598940928fa_sunacxeheuiigkcgquf.jpg,00529940519fa_sunacbeefkxpymwevpk.jpg,00598940928fa.jpg,sunacxeheuiigkcgquf.jpg,00529940519fa.jpg,sunacbeefkxpymwevpk.jpg,,,>,Face,,,,,1,,,,,,,o
104,27,Presentation,2,00878960530fa_sunakgbnzxmfohgehnu.jpg,00864940307fa_sunajawzbrlrwafowen.jpg,00878960530fa.jpg,sunakgbnzxmfohgehnu.jpg,00864940307fa.jpg,sunajawzbrlrwafowen.jpg,,,>,Face,,,,,1,,,,,,,x
105,27,Presentation,2,00812941205fa_sunahgtbwgsmtqeodwh.jpg,00990960627fa_sunbpflsdaxnddnwcqi.jpg,00812941205fa.jpg,sunahgtbwgsmtqeodwh.jpg,00990960627fa.jpg,sunbpflsdaxnddnwcqi.jpg,,,<,Face,,,,,1,,,,,,,o
106,27,Presentation,2,00967960627fa_sunbaejotfklekvpxcz.jpg,00276940422fa_sunabmytpyhsgigllxu.jpg,00967960627fa.jpg,sunbaejotfklekvpxcz.jpg,00276940422fa.jpg,sunabmytpyhsgigllxu.jpg,,,<,Place,,,,,1,,,,,,,x
107,27,Presentation,2,00862940307fa_sunaizgnnplsvajzhkc.jpg,00891960530fa_sunalkiibhqpxfamlll.jpg,00862940307fa.jpg,sunaizgnnplsvajzhkc.jpg,00891960530fa.jpg,sunalkiibhqpxfamlll.jpg,,,>,Place,,,,,1,,,,,,,x
108,27,Presentation,2,00260940128fa_sunabgfhvifeijihhjw.jpg,00910960530fa_sunaofikylqtxphvdem.jpg,00260940128fa.jpg,sunabgfhvifeijihhjw.jpg,00910960530fa.jpg,sunaofikylqtxphvdem.jpg,,,<,Face,,,,,1,,,,,,,o
109,27,Presentation,2,01010960627fa_suncnkvbhypnivcohyx.jpg,00670941121fa_sunadochqcucscehsgk.jpg,01010960627fa.jpg,suncnkvbhypnivcohyx.jpg,00670941121fa.jpg,sunadochqcucscehsgk.jpg,,,>,Place,,,,,1,,,,,,,o
110,27,Memory,2,,,,,,,sunaayehfdqcyxggsej.jpg,,,,,,,,,,,,,,,
111,27,Memory,2,,,,,,,00529940519fa.jpg,,,,,,,,,,,,,,,
112,27,Memory,2,,,,,,,00264940128fb.jpg,,,,,,,,,,,,,,,
113,27,Memory,2,,,,,,,00235940128fb.jpg,,,,,,,,,,,,,,,
114,27,Memory,2,,,,,,,sunagjzcrjvmxzqzljx.jpg,,,,,,,,,,,,,,,
115,27,Memory,2,,,,,,,00670941121fa.jpg,,,,,,,,,,,,,,,
116,27,Memory,2,,,,,,,sunabjzyxcjnmztdonj.jpg,,,,,,,,,,,,,,,
117,27,Memory,2,,,,,,,sunabgfhvifeijihhjw.jpg,,,,,,,,,,,,,,,
118,27,Memory,2,,,,,,,00966960627fa.jpg,,,,,,,,,,,,,,,
119,27,Memory,2,,,,,,,sunbpflsdaxnddnwcqi.jpg,,,,,,,,,,,,,,,
120,27,Memory,2,,,,,,,00260940128fa.jpg,,,,,,,,,,,,,,,
121,27,Memory,2,,,,,,,sunbpvgllfdejxcpjqp.jpg,,,,,,,,,,,,,,,
122,27,Memory,2,,,,,,,sunalkiibhqpxfamlll.jpg,,,,,,,,,,,,,,,
123,27,Memory,2,,,,,,,00562941031fa.jpg,,,,,,,,,,,,,,,
124,27,Memory,2,,,,,,,sunabclssnoeuigtawp.jpg,,,,,,,,,,,,,,,
125,27,Memory,2,,,,,,,sunaalltyvjhbzhkmvg.jpg,,,,,,,,,,,,,,,
126,27,Memory,2,,,,,,,00990960627fa.jpg,,,,,,,,,,,,,,,
127,27,Memory,2,,,,,,,sunadnjjzohjhbohlwq.jpg,,,,,,,,,,,,,,,
128,27,Memory,2,,,,,,,00947960627fa.jpg,,,,,,,,,,,,,,,
129,27,Memory,2,,,,,,,sunacjnahdmqfnjfwqx.jpg,,,,,,,,,,,,,,,
130,27,Memory,2,,,,,,,sunaauglwmctnkxyird.jpg,,,,,,,,,,,,,,,
131,27,Memory,2,,,,,,,00125931230fa.jpg,,,,,,,,,,,,,,,
132,27,Memory,2,,,,,,,00598940928fa.jpg,,,,,,,,,,,,,,,
133,27,Memory,2,,,,,,,00194940128fb.jpg,,,,,,,,,,,,,,,
134,27,Memory,2,,,,,,,00574940928fa.jpg,,,,,,,,,,,,,,,
135,27,Memory,2,,,,,,,00267940128fb.jpg,,,,,,,,,,,,,,,
136,27,Memory,2,,,,,,,sunadcphrizvfpljiqt.jpg,,,,,,,,,,,,,,,
137,27,Memory,2,,,,,,,00634940928fa.jpg,,,,,,,,,,,,,,,
138,27,Memory,2,,,,,,,00149931230fa.jpg,,,,,,,,,,,,,,,
139,27,Memory,2,,,,,,,00784941205fb.jpg,,,,,,,,,,,,,,,
140,27,Memory,2,,,,,,,sunablfqiwfqomjarht.jpg,,,,,,,,,,,,,,,
141,27,Memory,2,,,,,,,sunacxeheuiigkcgquf.jpg,,,,,,,,,,,,,,,
142,27,Memory,2,,,,,,,00996960627fa.jpg,,,,,,,,,,,,,,,
143,27,Memory,2,,,,,,,00891960530fa.jpg,,,,,,,,,,,,,,,
144,27,Memory,2,,,,,,,sunasmmcxdddtmtazwx.jpg,,,,,,,,,,,,,,,
145,27,Memory,2,,,,,,,sunadochqcucscehsgk.jpg,,,,,,,,,,,,,,,
146,27,Memory,2,,,,,,,sunaygrtwrwfezqjizr.jpg,,,,,,,,,,,,,,,
147,27,Memory,2,,,,,,,sunacbeefkxpymwevpk.jpg,,,,,,,,,,,,,,,
148,27,Memory,2,,,,,,,00663941121fa.jpg,,,,,,,,,,,,,,,
149,27,Memory,2,,,,,,,sunacvbrcejzwmcgnoq.jpg,,,,,,,,,,,,,,,
150,27,Presentation,3,00908960530fa_sunanwjjyqqwzqrqagd.jpg,00938960627fa_sunaqyylsngywqzwfmx.jpg,00908960530fa.jpg,sunanwjjyqqwzqrqagd.jpg,00938960627fa.jpg,sunaqyylsngywqzwfmx.jpg,,,>,Face,,,,,1,,,,,,,o
151,27,Presentation,3,00944960627fa_sunasbbntuiheekqyaq.jpg,00811960530fa_sunahedfrhtcwpneund.jpg,00944960627fa.jpg,sunasbbntuiheekqyaq.jpg,00811960530fa.jpg,sunahedfrhtcwpneund.jpg,,,<,Place,,,,,1,,,,,,,x
152,27,Presentation,3,00705960530fa_sunaduslxfzlbxlllnz.jpg,00242940128fa_sunabcuurugvxwparpk.jpg,00705960530fa.jpg,sunaduslxfzlbxlllnz.jpg,00242940128fa.jpg,sunabcuurugvxwparpk.jpg,,,<,Place,,,,,1,,,,,,,x
153,27,Presentation,3,00636941031fa_sunaddtdkycxbqlpfqa.jpg,00065931230fb_sunaaemixhfquhnxxlm.jpg,00636941031fa.jpg,sunaddtdkycxbqlpfqa.jpg,00065931230fb.jpg,sunaaemixhfquhnxxlm.jpg,,,>,Place,,,,,0,,,,,,,x
154,27,Presentation,3,00316940422fa_sunabxmguapjekttvwm.jpg,00131931230fb_sunaangbuylfvckqqoo.jpg,00316940422fa.jpg,sunabxmguapjekttvwm.jpg,00131931230fb.jpg,sunaangbuylfvckqqoo.jpg,,,>,Face,,,,,1,,,,,,,x
155,27,Presentation,3,00745941205fa_sunaeouogqolxvggaoq.jpg,00877960530fa_sunajxpkuhbizeveguy.jpg,00745941205fa.jpg,sunaeouogqolxvggaoq.jpg,00877960530fa.jpg,sunajxpkuhbizeveguy.jpg,,,>,Face,,,,,1,,,,,,,o
156,27,Presentation,3,00854940307fa_sunaiwduelojtwaqeyh.jpg,00288940422fa_sunabppokiyglaxpcha.jpg,00854940307fa.jpg,sunaiwduelojtwaqeyh.jpg,00288940422fa.jpg,sunabppokiyglaxpcha.jpg,,,<,Place,,,,,1,,,,,,,x
157,27,Presentation,3,00894960620fa_sunalqmfgeadpqsyzpd.jpg,00858940307fa_sunaixpqndlwhwjtjek.jpg,00894960620fa.jpg,sunalqmfgeadpqsyzpd.jpg,00858940307fa.jpg,sunaixpqndlwhwjtjek.jpg,,,<,Face,,,,,1,,,,,,,x
158,27,Presentation,3,00302940422fa_sunabtlfmiwtljmoues.jpg,00895960530fa_sunamczizlzavhzhpay.jpg,00302940422fa.jpg,sunabtlfmiwtljmoues.jpg,00895960530fa.jpg,sunamczizlzavhzhpay.jpg,,,>,Place,,,,,1,,,,,,,x
159,27,Presentation,3,00929960627fa_sunaprnrbmgkomdbchr.jpg,01207940128fa_sundbixjudsgeuuehrn.jpg,00929960627fa.jpg,sunaprnrbmgkomdbchr.jpg,01207940128fa.jpg,sundbixjudsgeuuehrn.jpg,,,<,Face,,,,,1,,,,,,,o
160,27,Memory,3,,,,,,,sunaivdylrawbmhryfp.jpg,,,,,,,,,,,,,,,
161,27,Memory,3,,,,,,,00630941031fa.jpg,,,,,,,,,,,,,,,
162,27,Memory,3,,,,,,,sunahwgbqkqcrwprgvh.jpg,,,,,,,,,,,,,,,
163,27,Memory,3,,,,,,,sunamczizlzavhzhpay.jpg,,,,,,,,,,,,,,,
164,27,Memory,3,,,,,,,sunabrlndkruqokhury.jpg,,,,,,,,,,,,,,,
165,27,Memory,3,,,,,,,00911960530fa.jpg,,,,,,,,,,,,,,,
166,27,Memory,3,,,,,,,00955960627fb.jpg,,,,,,,,,,,,,,,
167,27,Memory,3,,,,,,,00908960530fa.jpg,,,,,,,,,,,,,,,
168,27,Memory,3,,,,,,,00944960627fa.jpg,,,,,,,,,,,,,,,
169,27,Memory,3,,,,,,,sunafvwfsmqkjrutjta.jpg,,,,,,,,,,,,,,,
170,27,Memory,3,,,,,,,01000960627fa.jpg,,,,,,,,,,,,,,,
171,27,Memory,3,,,,,,,00316940422fa.jpg,,,,,,,,,,,,,,,
172,27,Memory,3,,,,,,,00854940307fa.jpg,,,,,,,,,,,,,,,
173,27,Memory,3,,,,,,,sunalqmfgeadpqsyzpd.jpg,,,,,,,,,,,,,,,
174,27,Memory,3,,,,,,,sunaiwduelojtwaqeyh.jpg,,,,,,,,,,,,,,,
175,27,Memory,3,,,,,,,sunanwjjyqqwzqrqagd.jpg,,,,,,,,,,,,,,,
176,27,Memory,3,,,,,,,00858940307fa.jpg,,,,,,,,,,,,,,,
177,27,Memory,3,,,,,,,sunaooaqzputrowwbsw.jpg,,,,,,,,,,,,,,,
178,27,Memory,3,,,,,,,00829940307fa.jpg,,,,,,,,,,,,,,,
179,27,Memory,3,,,,,,,sunabcuurugvxwparpk.jpg,,,,,,,,,,,,,,,
180,27,Memory,3,,,,,,,sunasbbntuiheekqyaq.jpg,,,,,,,,,,,,,,,
181,27,Memory,3,,,,,,,00288940422fa.jpg,,,,,,,,,,,,,,,
182,27,Memory,3,,,,,,,00848940307fa.jpg,,,,,,,,,,,,,,,
183,27,Memory,3,,,,,,,00700941121fa.jpg,,,,,,,,,,,,,,,
184,27,Memory,3,,,,,,,00775941205fa.jpg,,,,,,,,,,,,,,,
185,27,Memory,3,,,,,,,sunaixpqndlwhwjtjek.jpg,,,,,,,,,,,,,,,
186,27,Memory,3,,,,,,,sunauburywlkjszngcq.jpg,,,,,,,,,,,,,,,
187,27,Memory,3,,,,,,,00895960530fa.jpg,,,,,,,,,,,,,,,
188,27,Memory,3,,,,,,,sunaaemixhfquhnxxlm.jpg,,,,,,,,,,,,,,,
189,27,Memory,3,,,,,,,sunabppokiyglaxpcha.jpg,,,,,,,,,,,,,,,
190,27,Memory,3,,,,,,,00242940128fa.jpg,,,,,,,,,,,,,,,
191,27,Memory,3,,,,,,,00894960620fa.jpg,,,,,,,,,,,,,,,
192,27,Memory,3,,,,,,,00294940422fb.jpg,,,,,,,,,,,,,,,
193,27,Memory,3,,,,,,,sunabxmguapjekttvwm.jpg,,,,,,,,,,,,,,,
194,27,Memory,3,,,,,,,00065931230fb.jpg,,,,,,,,,,,,,,,
195,27,Memory,3,,,,,,,sunapqkpqdfvxlbqwyo.jpg,,,,,,,,,,,,,,,
196,27,Memory,3,,,,,,,sunadsgmtznewzyasnk.jpg,,,,,,,,,,,,,,,
197,27,Memory,3,,,,,,,sunadakkdovnuzlycvp.jpg,,,,,,,,,,,,,,,
198,27,Memory,3,,,,,,,00921960627fa.jpg,,,,,,,,,,,,,,,
199,27,Memory,3,,,,,,,sunbvzmgrdvaakxusbu.jpg,,,,,,,,,,,,,,,
200,27,Presentation,4,00482940519fa_sunabyfxcxhdebvdyfd.jpg,00949960627fb_sunasnqkkyhilqkxiqm.jpg,00482940519fa.jpg,sunabyfxcxhdebvdyfd.jpg,00949960627fb.jpg,sunasnqkkyhilqkxiqm.jpg,,,>,Face,,,,,1,,,,,,,o
201,27,Presentation,4,00163931230fb_sunaavodbcpygkggnfp.jpg,00792941205fa_sunagsiwrmuixqgdimb.jpg,00163931230fb.jpg,sunaavodbcpygkggnfp.jpg,00792941205fa.jpg,sunagsiwrmuixqgdimb.jpg,,,<,Place,,,,,1,,,,,,,x
202,27,Presentation,4,00810941205fa_sunahctntqrunhdxhtb.jpg,00548940519fa_sunacerqowiaeoqkmsq.jpg,00810941205fa.jpg,sunahctntqrunhdxhtb.jpg,00548940519fa.jpg,sunacerqowiaeoqkmsq.jpg,,,>,Place,,,,,1,,,,,,,x
203,27,Presentation,4,00744941201fa_sunaeomlfaabhpswasy.jpg,01002960627fb_sunbwaafjdebjzttuvq.jpg,00744941201fa.jpg,sunaeomlfaabhpswasy.jpg,01002960627fb.jpg,sunbwaafjdebjzttuvq.jpg,,,>,Face,,,,,1,,,,,,,o
204,27,Presentation,4,00101931230fb_sunaajqmsaavkmgbsth.jpg,00804960530fa_sunagwswhkvnsmuszlz.jpg,00101931230fb.jpg,sunaajqmsaavkmgbsth.jpg,00804960530fa.jpg,sunagwswhkvnsmuszlz.jpg,,,<,Place,,,,,1,,,,,,,x
205,27,Presentation,4,00543940519fa_sunacepzfrmtkiqonpy.jpg,00142931230fb_sunaapxkpvrhpjplsok.jpg,00543940519fa.jpg,sunacepzfrmtkiqonpy.jpg,00142931230fb.jpg,sunaapxkpvrhpjplsok.jpg,,,<,Face,,,,,1,,,,,,,x
206,27,Presentation,4,00589940928fa_sunacwggadqsfpovdjv.jpg,00507940519fa_sunacacflqoyxhsqzhe.jpg,00589940928fa.jpg,sunacwggadqsfpovdjv.jpg,00507940519fa.jpg,sunacacflqoyxhsqzhe.jpg,,,<,Place,,,,,0,,,,,,,x
207,27,Presentation,4,00126931230fb_sunaamdjwemxpmmtypi.jpg,00952960627fa_sunathzzbcwjykldrem.jpg,00126931230fb.jpg,sunaamdjwemxpmmtypi.jpg,00952960627fa.jpg,sunathzzbcwjykldrem.jpg,,,>,Face,,,,,1,,,,,,,o
208,27,Presentation,4,00851940307fa_sunaivflshbyfrfzhqb.jpg,00979960627fa_sunbdycacjfaujxitbw.jpg,00851940307fa.jpg,sunaivflshbyfrfzhqb.jpg,00979960627fa.jpg,sunbdycacjfaujxitbw.jpg,,,<,Face,,,,,1,,,,,,,o
209,27,Presentation,4,00198940128fb_sunaazezcsunmhttzxz.jpg,00062931230fb_sunaaelotvjgibjtjhs.jpg,00198940128fb.jpg,sunaazezcsunmhttzxz.jpg,00062931230fb.jpg,sunaaelotvjgibjtjhs.jpg,,,>,Place,,,,,1,,,,,,,o
210,27,Memory,4,,,,,,,00548940519fa.jpg,,,,,,,,,,,,,,,
211,27,Memory,4,,,,,,,00909960530.jpg,,,,,,,,,,,,,,,
212,27,Memory,4,,,,,,,00163931230fb.jpg,,,,,,,,,,,,,,,
213,27,Memory,4,,,,,,,sunaobtizabegtwfwul.jpg,,,,,,,,,,,,,,,
214,27,Memory,4,,,,,,,00810941205fa.jpg,,,,,,,,,,,,,,,
215,27,Memory,4,,,,,,,sunafxokyavhgptyfye.jpg,,,,,,,,,,,,,,,
216,27,Memory,4,,,,,,,sunapileznnbbmrwoei.jpg,,,,,,,,,,,,,,,
217,27,Memory,4,,,,,,,sunaamdjwemxpmmtypi.jpg,,,,,,,,,,,,,,,
218,27,Memory,4,,,,,,,00987960627fa.jpg,,,,,,,,,,,,,,,
219,27,Memory,4,,,,,,,00835940307fa.jpg,,,,,,,,,,,,,,,
220,27,Memory,4,,,,,,,sunadzuvtmtmgupotmf.jpg,,,,,,,,,,,,,,,
221,27,Memory,4,,,,,,,sunacwggadqsfpovdjv.jpg,,,,,,,,,,,,,,,
222,27,Memory,4,,,,,,,00482940519fa.jpg,,,,,,,,,,,,,,,
223,27,Memory,4,,,,,,,00062931230fb.jpg,,,,,,,,,,,,,,,
224,27,Memory,4,,,,,,,00952960627fa.jpg,,,,,,,,,,,,,,,
225,27,Memory,4,,,,,,,00915960620fa.jpg,,,,,,,,,,,,,,,
226,27,Memory,4,,,,,,,00081941031fa.jpg,,,,,,,,,,,,,,,
227,27,Memory,4,,,,,,,sunacerqowiaeoqkmsq.jpg,,,,,,,,,,,,,,,
228,27,Memory,4,,,,,,,00126931230fb.jpg,,,,,,,,,,,,,,,
229,27,Memory,4,,,,,,,00776941205fa.jpg,,,,,,,,,,,,,,,
230,27,Memory,4,,,,,,,sunaijsqpvodplbwxkf.jpg,,,,,,,,,,,,,,,
231,27,Memory,4,,,,,,,00142931230fb.jpg,,,,,,,,,,,,,,,
232,27,Memory,4,,,,,,,sunasnqkkyhilqkxiqm.jpg,,,,,,,,,,,,,,,
233,27,Memory,4,,,,,,,00239940128fa.jpg,,,,,,,,,,,,,,,
234,27,Memory,4,,,,,,,sunathzzbcwjykldrem.jpg,,,,,,,,,,,,,,,
235,27,Memory,4,,,,,,,00589940928fa.jpg,,,,,,,,,,,,,,,
236,27,Memory,4,,,,,,,sunahctntqrunhdxhtb.jpg,,,,,,,,,,,,,,,
237,27,Memory,4,,,,,,,sunabkmdplkdbvxriff.jpg,,,,,,,,,,,,,,,
238,27,Memory,4,,,,,,,00787941205fa.jpg,,,,,,,,,,,,,,,
239,27,Memory,4,,,,,,,sunagmwxxwymwojbvgi.jpg,,,,,,,,,,,,,,,
240,27,Memory,4,,,,,,,00265940128fb.jpg,,,,,,,,,,,,,,,
241,27,Memory,4,,,,,,,sunbloeoiozwjjsiamp.jpg,,,,,,,,,,,,,,,
242,27,Memory,4,,,,,,,00719960620fa.jpg,,,,,,,,,,,,,,,
243,27,Memory,4,,,,,,,sunaaftlyfudyzuhqzf.jpg,,,,,,,,,,,,,,,
244,27,Memory,4,,,,,,,sunabctlikybqabezjv.jpg,,,,,,,,,,,,,,,
245,27,Memory,4,,,,,,,sunaapxkpvrhpjplsok.jpg,,,,,,,,,,,,,,,
246,27,Memory,4,,,,,,,00949960627fb.jpg,,,,,,,,,,,,,,,
247,27,Memory,4,,,,,,,sunabyfxcxhdebvdyfd.jpg,,,,,,,,,,,,,,,
248,27,Memory,4,,,,,,,sunaaelotvjgibjtjhs.jpg,,,,,,,,,,,,,,,
249,27,Memory,4,,,,,,,sunaavodbcpygkggnfp.jpg,,,,,,,,,,,,,,,
250,27,Presentation,5,00870940307fa_sunajrgtewnualfcerj.jpg,00184940128fa_sunaavtbadenwnzeutj.jpg,00870940307fa.jpg,sunajrgtewnualfcerj.jpg,00184940128fa.jpg,sunaavtbadenwnzeutj.jpg,,,<,Face,,,,,1,,,,,,,o
251,27,Presentation,5,00926960627Fa_sunapqwoeotxshkukbh.jpg,00221940128fa_sunabcfpwlpolnutyju.jpg,00926960627Fa.jpg,sunapqwoeotxshkukbh.jpg,00221940128fa.jpg,sunabcfpwlpolnutyju.jpg,,,>,Place,,,,,1,,,,,,,x
252,27,Presentation,5,00746941201fa_sunaetydippjxikifsb.jpg,00296940422fa_sunabrwnslxalcohfre.jpg,00746941201fa.jpg,sunaetydippjxikifsb.jpg,00296940422fa.jpg,sunabrwnslxalcohfre.jpg,,,>,Face,,,,,1,,,,,,,o
253,27,Presentation,5,00782941205fa_sunagfvluwixdsozaql.jpg,00086931230fa_sunaafynehyrzpsoaml.jpg,00782941205fa.jpg,sunagfvluwixdsozaql.jpg,00086931230fa.jpg,sunaafynehyrzpsoaml.jpg,,,<,Face,,,,,1,,,,,,,o
254,27,Presentation,5,00794960620fa_sunagtqhhwxjeuxdebe.jpg,00993960627fa_sunbprywzqxjcezkbch.jpg,00794960620fa.jpg,sunagtqhhwxjeuxdebe.jpg,00993960627fa.jpg,sunbprywzqxjcezkbch.jpg,,,>,Face,,,,,1,,,,,,,o
255,27,Presentation,5,00720960620fa_sunaecpkgfewqqreqwe.jpg,00227940128fa_sunabckqabszusgcykj.jpg,00720960620fa.jpg,sunaecpkgfewqqreqwe.jpg,00227940128fa.jpg,sunabckqabszusgcykj.jpg,,,<,Place,,,,,1,,,,,,,o
256,27,Presentation,5,00968960627fa_sunbagfpovqwbuexqdn.jpg,00191940128fb_sunaawsdjisukbbginm.jpg,00968960627fa.jpg,sunbagfpovqwbuexqdn.jpg,00191940128fb.jpg,sunaawsdjisukbbginm.jpg,,,<,Place,,,,,1,,,,,,,x
257,27,Presentation,5,00805941205fa_sunagwzdbtlixdhgolm.jpg,00961960627fa_sunawotxrevnqvamsfp.jpg,00805941205fa.jpg,sunagwzdbtlixdhgolm.jpg,00961960627fa.jpg,sunawotxrevnqvamsfp.jpg,,,<,Place,,,,,1,,,,,,,x
258,27,Presentation,5,00771941205fa_sunafowswglhxcsufpo.jpg,00136931230fb_sunaanptmsknhirrzed.jpg,00771941205fa.jpg,sunafowswglhxcsufpo.jpg,00136931230fb.jpg,sunaanptmsknhirrzed.jpg,,,>,Place,,,,,0,,,,,,,o
259,27,Presentation,5,00129931230fb_sunaamsdyakblkfoydx.jpg,00564940928fa_sunacmpqqfbsvlzinzl.jpg,00129931230fb.jpg,sunaamsdyakblkfoydx.jpg,00564940928fa.jpg,sunacmpqqfbsvlzinzl.jpg,,,>,Face,,,,,0,,,,,,,o
260,27,Memory,5,,,,,,,00124931230fa.jpg,,,,,,,,,,,,,,,
261,27,Memory,5,,,,,,,00805941205fa.jpg,,,,,,,,,,,,,,,
262,27,Memory,5,,,,,,,sunabbwggenhfbftyvi.jpg,,,,,,,,,,,,,,,
263,27,Memory,5,,,,,,,00221940128fa.jpg,,,,,,,,,,,,,,,
264,27,Memory,5,,,,,,,sunaalhlvzmjmitybdn.jpg,,,,,,,,,,,,,,,
265,27,Memory,5,,,,,,,sunabckqabszusgcykj.jpg,,,,,,,,,,,,,,,
266,27,Memory,5,,,,,,,00184940128fa.jpg,,,,,,,,,,,,,,,
267,27,Memory,5,,,,,,,sunadoxcchtmsxewsau.jpg,,,,,,,,,,,,,,,
268,27,Memory,5,,,,,,,00760960620fa.jpg,,,,,,,,,,,,,,,
269,27,Memory,5,,,,,,,00743941201fa.jpg,,,,,,,,,,,,,,,
270,27,Memory,5,,,,,,,00985960627fa.jpg,,,,,,,,,,,,,,,
271,27,Memory,5,,,,,,,sunaanptmsknhirrzed.jpg,,,,,,,,,,,,,,,
272,27,Memory,5,,,,,,,sunbgklxeqjhdbyfhhy.jpg,,,,,,,,,,,,,,,
273,27,Memory,5,,,,,,,sunajrgtewnualfcerj.jpg,,,,,,,,,,,,,,,
274,27,Memory,5,,,,,,,sunagwzdbtlixdhgolm.jpg,,,,,,,,,,,,,,,
275,27,Memory,5,,,,,,,00720960620fa.jpg,,,,,,,,,,,,,,,
276,27,Memory,5,,,,,,,00191940128fb.jpg,,,,,,,,,,,,,,,
277,27,Memory,5,,,,,,,sunabcfpwlpolnutyju.jpg,,,,,,,,,,,,,,,
278,27,Memory,5,,,,,,,00926960627Fa.jpg,,,,,,,,,,,,,,,
279,27,Memory,5,,,,,,,sunaakgekhjklxmvulj.jpg,,,,,,,,,,,,,,,
280,27,Memory,5,,,,,,,00218940128fa.jpg,,,,,,,,,,,,,,,
281,27,Memory,5,,,,,,,00111931230fb.jpg,,,,,,,,,,,,,,,
282,27,Memory,5,,,,,,,00933960627fa.jpg,,,,,,,,,,,,,,,
283,27,Memory,5,,,,,,,00675941121fa.jpg,,,,,,,,,,,,,,,
284,27,Memory,5,,,,,,,00227940128fa.jpg,,,,,,,,,,,,,,,
285,27,Memory,5,,,,,,,00884960530fa.jpg,,,,,,,,,,,,,,,
286,27,Memory,5,,,,,,,sunacuatpqpqhyjhjqk.jpg,,,,,,,,,,,,,,,
287,27,Memory,5,,,,,,,sunaawsdjisukbbginm.jpg,,,,,,,,,,,,,,,
288,27,Memory,5,,,,,,,sunbagfpovqwbuexqdn.jpg,,,,,,,,,,,,,,,
289,27,Memory,5,,,,,,,sunaavtbadenwnzeutj.jpg,,,,,,,,,,,,,,,
290,27,Memory,5,,,,,,,00870940307fa.jpg,,,,,,,,,,,,,,,
291,27,Memory,5,,,,,,,sunaeoghzrjarigmwua.jpg,,,,,,,,,,,,,,,
292,27,Memory,5,,,,,,,sunapqwoeotxshkukbh.jpg,,,,,,,,,,,,,,,
293,27,Memory,5,,,,,,,sunaffstbkappprzxnv.jpg,,,,,,,,,,,,,,,
294,27,Memory,5,,,,,,,sunakodkcslgqhqlgwl.jpg,,,,,,,,,,,,,,,
295,27,Memory,5,,,,,,,00968960627fa.jpg,,,,,,,,,,,,,,,
296,27,Memory,5,,,,,,,00571940928fa.jpg,,,,,,,,,,,,,,,
297,27,Memory,5,,,,,,,sunaecpkgfewqqreqwe.jpg,,,,,,,,,,,,,,,
298,27,Memory,5,,,,,,,00136931230fb.jpg,,,,,,,,,,,,,,,
299,27,Memory,5,,,,,,,sunapwjkcxdaeqehfql.jpg,,,,,,,,,,,,,,,
300,27,Presentation,6,00557940519fa_sunachtuarilwyqnvjx.jpg,00857940307fa_sunaiwfobocrruqznsv.jpg,00557940519fa.jpg,sunachtuarilwyqnvjx.jpg,00857940307fa.jpg,sunaiwfobocrruqznsv.jpg,,,>,Face,,,,,1,,,,,,,o
301,27,Presentation,6,00790941205fa_sunagpjzsbltchlwvou.jpg,00097931230fa_sunaajayojuslbbnneg.jpg,00790941205fa.jpg,sunagpjzsbltchlwvou.jpg,00097931230fa.jpg,sunaajayojuslbbnneg.jpg,,,<,Face,,,,,1,,,,,,,o
302,27,Presentation,6,00880960530fa_sunakmnfgklupjijsgf.jpg,00822940307fa_sunahqrxievfeusiqlt.jpg,00880960530fa.jpg,sunakmnfgklupjijsgf.jpg,00822940307fa.jpg,sunahqrxievfeusiqlt.jpg,,,>,Face,,,,,1,,,,,,,o
303,27,Presentation,6,00719941201fa_sunadvithllcgmfxsrn.jpg,00185940422fb_sunaawqdbpihmlbwyyn.jpg,00719941201fa.jpg,sunadvithllcgmfxsrn.jpg,00185940422fb.jpg,sunaawqdbpihmlbwyyn.jpg,,,<,Place,,,,,1,,,,,,,x
304,27,Presentation,6,00089931230fa_sunaagcpoejbuzyvddd.jpg,00112931230fa_sunaakjaacuzulqckgl.jpg,00089931230fa.jpg,sunaagcpoejbuzyvddd.jpg,00112931230fa.jpg,sunaakjaacuzulqckgl.jpg,,,>,Place,,,,,0,,,,,,,x
305,27,Presentation,6,00263940128fb_sunabjuovqvyfuzvqwt.jpg,00971960627fa_sunbbegcweqnetpdlrh.jpg,00263940128fb.jpg,sunabjuovqvyfuzvqwt.jpg,00971960627fa.jpg,sunbbegcweqnetpdlrh.jpg,,,<,Face,,,,,1,,,,,,,o
306,27,Presentation,6,00741941201fa_sunaemcowdozyphwknd.jpg,00957960627fa_sunavhxgmgrqsaptynb.jpg,00741941201fa.jpg,sunaemcowdozyphwknd.jpg,00957960627fa.jpg,sunavhxgmgrqsaptynb.jpg,,,>,Place,,,,,0,,,,,,,x
307,27,Presentation,6,01011960627fa_sundahdxwmcdluscvot.jpg,00939960627fa_sunarceibpcyacbmfga.jpg,01011960627fa.jpg,sundahdxwmcdluscvot.jpg,00939960627fa.jpg,sunarceibpcyacbmfga.jpg,,,>,Face,,,,,1,,,,,,,o
308,27,Presentation,6,00936960627fa_sunaqgjuuwvdcyiccjt.jpg,00752960620fa_sunafbwnojpqeyzssoe.jpg,00936960627fa.jpg,sunaqgjuuwvdcyiccjt.jpg,00752960620fa.jpg,sunafbwnojpqeyzssoe.jpg,,,<,Place,,,,,1,,,,,,,o
309,27,Presentation,6,00787960620fa_sunagoufulkpsxrmklt.jpg,00780960530fa_sunagetqixeypsysbpn.jpg,00787960620fa.jpg,sunagoufulkpsxrmklt.jpg,00780960530fa.jpg,sunagetqixeypsysbpn.jpg,,,<,Place,,,,,1,,,,,,,x
310,27,Memory,6,,,,,,,00144931230fb.jpg,,,,,,,,,,,,,,,
311,27,Memory,6,,,,,,,sunbasypfgzjtomktmu.jpg,,,,,,,,,,,,,,,
312,27,Memory,6,,,,,,,00292940422fb.jpg,,,,,,,,,,,,,,,
313,27,Memory,6,,,,,,,00869940307fa.jpg,,,,,,,,,,,,,,,
314,27,Memory,6,,,,,,,00630940928fa.jpg,,,,,,,,,,,,,,,
315,27,Memory,6,,,,,,,00841940307fa.jpg,,,,,,,,,,,,,,,
316,27,Memory,6,,,,,,,sunaagcpoejbuzyvddd.jpg,,,,,,,,,,,,,,,
317,27,Memory,6,,,,,,,00631940928fa.jpg,,,,,,,,,,,,,,,
318,27,Memory,6,,,,,,,00790941205fa.jpg,,,,,,,,,,,,,,,
319,27,Memory,6,,,,,,,00970960627fa.jpg,,,,,,,,,,,,,,,
320,27,Memory,6,,,,,,,sunahqrxievfeusiqlt.jpg,,,,,,,,,,,,,,,
321,27,Memory,6,,,,,,,sunbbegcweqnetpdlrh.jpg,,,,,,,,,,,,,,,
322,27,Memory,6,,,,,,,sunaakjaacuzulqckgl.jpg,,,,,,,,,,,,,,,
323,27,Memory,6,,,,,,,00090931230fa.jpg,,,,,,,,,,,,,,,
324,27,Memory,6,,,,,,,00112931230fa.jpg,,,,,,,,,,,,,,,
325,27,Memory,6,,,,,,,sunagpjzsbltchlwvou.jpg,,,,,,,,,,,,,,,
326,27,Memory,6,,,,,,,01011960627fa.jpg,,,,,,,,,,,,,,,
327,27,Memory,6,,,,,,,00880960530fa.jpg,,,,,,,,,,,,,,,
328,27,Memory,6,,,,,,,sunaisiwfgppimtnmxl.jpg,,,,,,,,,,,,,,,
329,27,Memory,6,,,,,,,00936960627fa.jpg,,,,,,,,,,,,,,,
330,27,Memory,6,,,,,,,00822940307fa.jpg,,,,,,,,,,,,,,,
331,27,Memory,6,,,,,,,sunafbwnojpqeyzssoe.jpg,,,,,,,,,,,,,,,
332,27,Memory,6,,,,,,,sunadbdqzigzwipuipr.jpg,,,,,,,,,,,,,,,
333,27,Memory,6,,,,,,,00752960620fa.jpg,,,,,,,,,,,,,,,
334,27,Memory,6,,,,,,,sunabrjdpmoedcdjbpo.jpg,,,,,,,,,,,,,,,
335,27,Memory,6,,,,,,,sunakmnfgklupjijsgf.jpg,,,,,,,,,,,,,,,
336,27,Memory,6,,,,,,,00957960627fa.jpg,,,,,,,,,,,,,,,
337,27,Memory,6,,,,,,,00971960627fa.jpg,,,,,,,,,,,,,,,
338,27,Memory,6,,,,,,,sunaczwgyukesaajxnx.jpg,,,,,,,,,,,,,,,
339,27,Memory,6,,,,,,,sundahdxwmcdluscvot.jpg,,,,,,,,,,,,,,,
340,27,Memory,6,,,,,,,00773960620fa.jpg,,,,,,,,,,,,,,,
341,27,Memory,6,,,,,,,00089931230fa.jpg,,,,,,,,,,,,,,,
342,27,Memory,6,,,,,,,sunavhxgmgrqsaptynb.jpg,,,,,,,,,,,,,,,
343,27,Memory,6,,,,,,,sunajoveqhiprwqgoco.jpg,,,,,,,,,,,,,,,
344,27,Memory,6,,,,,,,00838940307fa.jpg,,,,,,,,,,,,,,,
345,27,Memory,6,,,,,,,sunaahedjlmtqekgyvj.jpg,,,,,,,,,,,,,,,
346,27,Memory,6,,,,,,,sunaqgjuuwvdcyiccjt.jpg,,,,,,,,,,,,,,,
347,27,Memory,6,,,,,,,sunaiozxhxgtfrmoagh.jpg,,,,,,,,,,,,,,,
348,27,Memory,6,,,,,,,sunafvsxtzaizojicxx.jpg,,,,,,,,,,,,,,,
349,27,Memory,6,,,,,,,sunaathajvxrgptwhoj.jpg,,,,,,,,,,,,,,,
350,27,Presentation,7,00958960627fa_sunavspxmxubqaeidjt.jpg,00839940307fa_sunaipyohrqlwngaqif.jpg,00958960627fa.jpg,sunavspxmxubqaeidjt.jpg,00839940307fa.jpg,sunaipyohrqlwngaqif.jpg,,,<,Place,,,,,1,,,,,,,x
351,27,Presentation,7,00120931230fa_sunaakxgygjfqrzpyoz.jpg,00972960627fa_sunbbfqwjpdxniyhies.jpg,00120931230fa.jpg,sunaakxgygjfqrzpyoz.jpg,00972960627fa.jpg,sunbbfqwjpdxniyhies.jpg,,,>,Face,,,,,0,,,,,,,o
352,27,Presentation,7,00887960530_sunalcrtwiycqobgelp.jpg,00481940519fa_sunabxsuqbleluwczoy.jpg,00887960530.jpg,sunalcrtwiycqobgelp.jpg,00481940519fa.jpg,sunabxsuqbleluwczoy.jpg,,,<,Face,,,,,1,,,,,,,o
353,27,Presentation,7,00801941205fa_sunagvprlbprarvgdvj.jpg,00138931230fa_sunaapfaivxqoynnwwp.jpg,00801941205fa.jpg,sunagvprlbprarvgdvj.jpg,00138931230fa.jpg,sunaapfaivxqoynnwwp.jpg,,,>,Face,,,,,1,,,,,,,x
354,27,Presentation,7,00984960627fa_sunbfzchmomnvzhbxdg.jpg,00925960627fa_sunapqwnqzxlsfvgsjm.jpg,00984960627fa.jpg,sunbfzchmomnvzhbxdg.jpg,00925960627fa.jpg,sunapqwnqzxlsfvgsjm.jpg,,,<,Face,,,,,1,,,,,,,o
355,27,Presentation,7,00753941201fa_sunafcofuuzebuadceo.jpg,00976960627fa_sunbbhqyyzmsxhsbjmp.jpg,00753941201fa.jpg,sunafcofuuzebuadceo.jpg,00976960627fa.jpg,sunbbhqyyzmsxhsbjmp.jpg,,,<,Place,,,,,1,,,,,,,x
356,27,Presentation,7,00913960530fa_sunaooffzffbhcpirmm.jpg,00988960627fa_sunbmaiocftdtvnzgap.jpg,00913960530fa.jpg,sunaooffzffbhcpirmm.jpg,00988960627fa.jpg,sunbmaiocftdtvnzgap.jpg,,,>,Place,,,,,1,,,,,,,x
357,27,Presentation,7,00633940928fa_sunadbhmrgrrpyzglxs.jpg,00750941201fa_sunaeuzwggvibufclwf.jpg,00633940928fa.jpg,sunadbhmrgrrpyzglxs.jpg,00750941201fa.jpg,sunaeuzwggvibufclwf.jpg,,,<,Place,,,,,1,,,,,,,o
358,27,Presentation,7,00210940128fb_sunabanoxjtqxamkucc.jpg,00498960627fa_sunabzjxlmkwnwzimua.jpg,00210940128fb.jpg,sunabanoxjtqxamkucc.jpg,00498960627fa.jpg,sunabzjxlmkwnwzimua.jpg,,,>,Face,,,,,1,,,,,,,o
359,27,Presentation,7,00140931230fb_sunaapllqyqlykszopd.jpg,01009960627fa_sunbxzweleltykebgan.jpg,00140931230fb.jpg,sunaapllqyqlykszopd.jpg,01009960627fa.jpg,sunbxzweleltykebgan.jpg,,,>,Place,,,,,1,,,,,,,o
360,27,Memory,7,,,,,,,00162931230fb.jpg,,,,,,,,,,,,,,,
361,27,Memory,7,,,,,,,sunabohxbskznglnrhv.jpg,,,,,,,,,,,,,,,
362,27,Memory,7,,,,,,,00140931230fb.jpg,,,,,,,,,,,,,,,
363,27,Memory,7,,,,,,,00498960627fa.jpg,,,,,,,,,,,,,,,
364,27,Memory,7,,,,,,,00211940128fa.jpg,,,,,,,,,,,,,,,
365,27,Memory,7,,,,,,,00754941201fa.jpg,,,,,,,,,,,,,,,
366,27,Memory,7,,,,,,,sunahiphsekjihkafsl.jpg,,,,,,,,,,,,,,,
367,27,Memory,7,,,,,,,00694941121fa.jpg,,,,,,,,,,,,,,,
368,27,Memory,7,,,,,,,sunaakxgygjfqrzpyoz.jpg,,,,,,,,,,,,,,,
369,27,Memory,7,,,,,,,00481940519fa.jpg,,,,,,,,,,,,,,,
370,27,Memory,7,,,,,,,sunbmaiocftdtvnzgap.jpg,,,,,,,,,,,,,,,
371,27,Memory,7,,,,,,,00925960627fa.jpg,,,,,,,,,,,,,,,
372,27,Memory,7,,,,,,,00795941205fa.jpg,,,,,,,,,,,,,,,
373,27,Memory,7,,,,,,,00120931230fa.jpg,,,,,,,,,,,,,,,
374,27,Memory,7,,,,,,,00210940128fb.jpg,,,,,,,,,,,,,,,
375,27,Memory,7,,,,,,,00076931230fa.jpg,,,,,,,,,,,,,,,
376,27,Memory,7,,,,,,,00815941205fa.jpg,,,,,,,,,,,,,,,
377,27,Memory,7,,,,,,,sunaffgsyyvoqdlkmnk.jpg,,,,,,,,,,,,,,,
378,27,Memory,7,,,,,,,sunbxzweleltykebgan.jpg,,,,,,,,,,,,,,,
379,27,Memory,7,,,,,,,sunafpfpiiujzoesnqg.jpg,,,,,,,,,,,,,,,
380,27,Memory,7,,,,,,,00245940128fa.jpg,,,,,,,,,,,,,,,
381,27,Memory,7,,,,,,,01009960627fa.jpg,,,,,,,,,,,,,,,
382,27,Memory,7,,,,,,,sunapqwnqzxlsfvgsjm.jpg,,,,,,,,,,,,,,,
383,27,Memory,7,,,,,,,sunagtumacdlmciqamz.jpg,,,,,,,,,,,,,,,
384,27,Memory,7,,,,,,,00280940422fb.jpg,,,,,,,,,,,,,,,
385,27,Memory,7,,,,,,,sunabanoxjtqxamkucc.jpg,,,,,,,,,,,,,,,
386,27,Memory,7,,,,,,,sunabzjxlmkwnwzimua.jpg,,,,,,,,,,,,,,,
387,27,Memory,7,,,,,,,sunaavjinpnkappuonm.jpg,,,,,,,,,,,,,,,
388,27,Memory,7,,,,,,,sunaafewhewbxmjiurz.jpg,,,,,,,,,,,,,,,
389,27,Memory,7,,,,,,,sunafcofuuzebuadceo.jpg,,,,,,,,,,,,,,,
390,27,Memory,7,,,,,,,00984960627fa.jpg,,,,,,,,,,,,,,,
391,27,Memory,7,,,,,,,00772941201fa.jpg,,,,,,,,,,,,,,,
392,27,Memory,7,,,,,,,sunbfzchmomnvzhbxdg.jpg,,,,,,,,,,,,,,,
393,27,Memory,7,,,,,,,sunaapllqyqlykszopd.jpg,,,,,,,,,,,,,,,
394,27,Memory,7,,,,,,,sunadrmfzmstgdjdcod.jpg,,,,,,,,,,,,,,,
395,27,Memory,7,,,,,,,sunabeyhmxodahoieyk.jpg,,,,,,,,,,,,,,,
396,27,Memory,7,,,,,,,sunabasphceswhwwqvv.jpg,,,,,,,,,,,,,,,
397,27,Memory,7,,,,,,,sunabxsuqbleluwczoy.jpg,,,,,,,,,,,,,,,
398,27,Memory,7,,,,,,,00753941201fa.jpg,,,,,,,,,,,,,,,
399,27,Memory,7,,,,,,,00988960627fa.jpg,,,,,,,,,,,,,,,
