,Subject,Trial Type,Run,Cued Composite,Uncued Composite,Cued Face,Cued Place,Uncued Face,Uncued Place,Memory Image,Category,Cued Side,Cued Category,Attention Reaction Time (s),Familiarity Reaction Time (s),Familiarity Rating,Attention Level,Cue Validity,Post Invalid Cue,Pre Invalid Cue,Attention Button,Rating History,Stimulus Onset,Stimulus End,Attention Probe
310,26,Memory,6,,,,,,,00070940307fa.jpg,,,,,0.902,2.0,,,,,,,1539792478.353582,1539792480.752934,
311,26,Memory,6,,,,,,,sunaaeplwsfslcbtojr.jpg,,,,,1.504,3.0,,,,,,,1539792482.18749,1539792484.605646,
312,26,Memory,6,,,,,,,sunaiwduelojtwaqeyh.jpg,,,,,0.804,3.0,,,,,,,1539792486.021499,1539792488.391566,
313,26,Memory,6,,,,,,,sunaduslxfzlbxlllnz.jpg,,,,,0.921,2.0,,,,,,,1539792489.823986,1539792492.357971,
314,26,Memory,6,,,,,,,sunaixpqndlwhwjtjek.jpg,,,,,0.855,2.0,,,,,,,1539792493.758363,1539792496.225949,
315,26,Memory,6,,,,,,,sunbbgtoeuzierkkajt.jpg,,,,,0.821,2.0,,,,,,,1539792497.676049,1539792500.077288,
316,26,Memory,6,,,,,,,00976960627fa.jpg,,,,,0.735,2.0,,,,,,,1539792501.510485,1539792503.828694,
317,26,Memory,6,,,,,,,00266940128fb.jpg,,,,,0.77,2.0,,,,,,,1539792505.245494,1539792507.611701,
318,26,Memory,6,,,,,,,00915960620fa.jpg,,,,,0.87,2.0,,,,,,,1539792509.02976,1539792511.44775,
319,26,Memory,6,,,,,,,sunalkiibhqpxfamlll.jpg,,,,,1.987,2.0,,,,,,,1539792512.880907,1539792515.248846,
320,26,Memory,6,,,,,,,sunahqldjibofgsfdgb.jpg,,,,,1.104,3.0,,,,,,,1539792516.648968,1539792519.033179,
321,26,Memory,6,,,,,,,00060931230fa.jpg,,,,,0.801,3.0,,,,,,,1539792520.434581,1539792522.8505,
322,26,Memory,6,,,,,,,sunaazezcsunmhttzxz.jpg,,,,,0.817,2.0,,,,,,,1539792524.200392,1539792526.552352,
323,26,Memory,6,,,,,,,sunacypmnujalygkunp.jpg,,,,,0.97,3.0,,,,,,,1539792527.901917,1539792530.253765,
324,26,Memory,6,,,,,,,sunavhxgmgrqsaptynb.jpg,,,,,0.819,2.0,,,,,,,1539792531.602804,1539792534.088297,
325,26,Memory,6,,,,,,,00507940519fa.jpg,,,,,1.103,2.0,,,,,,,1539792535.521234,1539792537.854973,
326,26,Memory,6,,,,,,,00854940307fa.jpg,,,,,0.955,3.0,,,,,,,1539792539.256404,1539792541.940393,
327,26,Memory,6,,,,,,,00562941031fa.jpg,,,,,0.836,2.0,,,,,,,1539792543.358481,1539792545.759027,
328,26,Memory,6,,,,,,,00858940307fa.jpg,,,,,1.02,2.0,,,,,,,1539792547.107854,1539792549.576886,
329,26,Memory,6,,,,,,,00086931230fa.jpg,,,,,1.669,2.0,,,,,,,1539792550.959577,1539792553.310981,
330,26,Memory,6,,,,,,,sunacacflqoyxhsqzhe.jpg,,,,,0.768,4.0,,,,,,,1539792554.711212,1539792557.045226,
331,26,Memory,6,,,,,,,sunabjuovqvyfuzvqwt.jpg,,,,,0.786,3.0,,,,,,,1539792558.413476,1539792560.779594,
332,26,Memory,6,,,,,,,00263940128fb.jpg,,,,,1.352,3.0,,,,,,,1539792562.197191,1539792564.714487,
333,26,Memory,6,,,,,,,sunaaehaikpckyjsety.jpg,,,,,1.0,2.0,,,,,,,1539792566.081286,1539792568.4827,
334,26,Memory,6,,,,,,,00891960530fa.jpg,,,,,0.92,3.0,,,,,,,1539792569.865986,1539792572.233329,
335,26,Memory,6,,,,,,,00819940307fa.jpg,,,,,0.638,2.0,,,,,,,1539792573.684226,1539792576.16877,
336,26,Memory,6,,,,,,,00745941205fa.jpg,,,,,0.754,3.0,,,,,,,1539792577.568304,1539792580.020172,
337,26,Memory,6,,,,,,,sunapileznnbbmrwoei.jpg,,,,,0.852,2.0,,,,,,,1539792581.402694,1539792583.820576,
338,26,Memory,6,,,,,,,sunaeouogqolxvggaoq.jpg,,,,,0.787,3.0,,,,,,,1539792585.220972,1539792587.67036,
339,26,Memory,6,,,,,,,sunaafynehyrzpsoaml.jpg,,,,,1.402,2.0,,,,,,,1539792589.088979,1539792591.538941,
340,26,Memory,6,,,,,,,sunacjnahdmqfnjfwqx.jpg,,,,,0.87,3.0,,,,,,,1539792592.972839,1539792595.357565,
341,26,Memory,6,,,,,,,00957960627fa.jpg,,,,,0.785,2.0,,,,,,,1539792596.75834,1539792599.075037,
342,26,Memory,6,,,,,,,00620940928fa.jpg,,,,,1.236,3.0,,,,,,,1539792600.459506,1539792602.959588,
343,26,Memory,6,,,,,,,sunabkngeblodihjvbk.jpg,,,,,0.652,2.0,,,,,,,1539792604.378435,1539792606.778064,
344,26,Memory,6,,,,,,,sunbbhqyyzmsxhsbjmp.jpg,,,,,0.788,3.0,,,,,,,1539792608.178998,1539792610.580008,
345,26,Memory,6,,,,,,,00705960530fa.jpg,,,,,0.786,2.0,,,,,,,1539792611.963167,1539792614.431375,
346,26,Memory,6,,,,,,,sunaakgekhjklxmvulj.jpg,,,,,0.936,3.0,,,,,,,1539792615.830966,1539792618.349343,
347,26,Memory,6,,,,,,,00973960627fa.jpg,,,,,0.737,2.0,,,,,,,1539792619.698905,1539792622.248822,
348,26,Memory,6,,,,,,,00111931230fb.jpg,,,,,1.102,3.0,,,,,,,1539792623.701026,1539792626.0997,
349,26,Memory,6,,,,,,,00198940128fb.jpg,,,,,1.255,3.0,,,,,,,1539792627.451205,1539792629.785337,
