,Subject,Trial Type,Run,Cued Composite,Uncued Composite,Cued Face,Cued Place,Uncued Face,Uncued Place,Memory Image,Category,Cued Side,Cued Category,Attention Reaction Time (s),Familiarity Reaction Time (s),Familiarity Rating,Attention Level,Cue Validity,Post Invalid Cue,Pre Invalid Cue,Attention Button,Rating History,Stimulus Onset,Stimulus End,Attention Probe
0,10,Presentation,0,00633940928fa_sunadbhmrgrrpyzglxs.jpg,00780960530fa_sunagetqixeypsysbpn.jpg,00633940928fa.jpg,sunadbhmrgrrpyzglxs.jpg,00780960530fa.jpg,sunagetqixeypsysbpn.jpg,,,<,Place,,,,,1,,,,,,,o
1,10,Presentation,0,00942960627fa_sunarfdklgdnjgeqfjg.jpg,00670941121fa_sunadochqcucscehsgk.jpg,00942960627fa.jpg,sunarfdklgdnjgeqfjg.jpg,00670941121fa.jpg,sunadochqcucscehsgk.jpg,,,>,Face,,,,,1,,,,,,,x
2,10,Presentation,0,00162931230fb_sunaavjinpnkappuonm.jpg,00581940928fa_sunacvzhvcksnwqcqbw.jpg,00162931230fb.jpg,sunaavjinpnkappuonm.jpg,00581940928fa.jpg,sunacvzhvcksnwqcqbw.jpg,,,<,Place,,,,,1,,,,,,,x
3,10,Presentation,0,00554940519fa_sunacfdkbsrughwqwtt.jpg,00910960530fa_sunaofikylqtxphvdem.jpg,00554940519fa.jpg,sunacfdkbsrughwqwtt.jpg,00910960530fa.jpg,sunaofikylqtxphvdem.jpg,,,<,Face,,,,,1,,,,,,,o
4,10,Presentation,0,00620940928fa_sunacypmnujalygkunp.jpg,00973960627fa_sunbbgtoeuzierkkajt.jpg,00620940928fa.jpg,sunacypmnujalygkunp.jpg,00973960627fa.jpg,sunbbgtoeuzierkkajt.jpg,,,<,Face,,,,,1,,,,,,,o
5,10,Presentation,0,00095931230fa_sunaahzooisqkwlxwoz.jpg,00894960620fa_sunalqmfgeadpqsyzpd.jpg,00095931230fa.jpg,sunaahzooisqkwlxwoz.jpg,00894960620fa.jpg,sunalqmfgeadpqsyzpd.jpg,,,>,Face,,,,,1,,,,,,,o
6,10,Presentation,0,00069931230fb_sunaaeowapdkwzqpgqr.jpg,00197940128fa_sunaaylzyqlqrsmfwif.jpg,00069931230fb.jpg,sunaaeowapdkwzqpgqr.jpg,00197940128fa.jpg,sunaaylzyqlqrsmfwif.jpg,,,<,Face,,,,,1,,,,,,,o
7,10,Presentation,0,00081941031fa_sunaaftlyfudyzuhqzf.jpg,00898960530fa_sunamkmeblgteyggink.jpg,00081941031fa.jpg,sunaaftlyfudyzuhqzf.jpg,00898960530fa.jpg,sunamkmeblgteyggink.jpg,,,>,Place,,,,,1,,,,,,,o
8,10,Presentation,0,00306940422fa_sunabueyoajufbkraki.jpg,00807941205fa_sunahawfngukizslzsd.jpg,00306940422fa.jpg,sunabueyoajufbkraki.jpg,00807941205fa.jpg,sunahawfngukizslzsd.jpg,,,>,Place,,,,,0,,,,,,,x
9,10,Presentation,0,00961960627fa_sunawotxrevnqvamsfp.jpg,00884960530fa_sunakodkcslgqhqlgwl.jpg,00961960627fa.jpg,sunawotxrevnqvamsfp.jpg,00884960530fa.jpg,sunakodkcslgqhqlgwl.jpg,,,>,Place,,,,,1,,,,,,,x
10,10,Memory,0,,,,,,,00635941031fa.jpg,,,,,,,,,,,,,,,
11,10,Memory,0,,,,,,,sunaeuzwggvibufclwf.jpg,,,,,,,,,,,,,,,
12,10,Memory,0,,,,,,,00071941031fa.jpg,,,,,,,,,,,,,,,
13,10,Memory,0,,,,,,,00081941031fa.jpg,,,,,,,,,,,,,,,
14,10,Memory,0,,,,,,,sunaaeowapdkwzqpgqr.jpg,,,,,,,,,,,,,,,
15,10,Memory,0,,,,,,,sunaaexqbtdswxrqjvz.jpg,,,,,,,,,,,,,,,
16,10,Memory,0,,,,,,,sunaauhozyxzeeqstxi.jpg,,,,,,,,,,,,,,,
17,10,Memory,0,,,,,,,00985960627fa.jpg,,,,,,,,,,,,,,,
18,10,Memory,0,,,,,,,00162931230fb.jpg,,,,,,,,,,,,,,,
19,10,Memory,0,,,,,,,sunaddsaeicthrfbkhe.jpg,,,,,,,,,,,,,,,
20,10,Memory,0,,,,,,,00750941201fa.jpg,,,,,,,,,,,,,,,
21,10,Memory,0,,,,,,,00973960627fa.jpg,,,,,,,,,,,,,,,
22,10,Memory,0,,,,,,,sunahawfngukizslzsd.jpg,,,,,,,,,,,,,,,
23,10,Memory,0,,,,,,,sunamkmeblgteyggink.jpg,,,,,,,,,,,,,,,
24,10,Memory,0,,,,,,,00961960627fa.jpg,,,,,,,,,,,,,,,
25,10,Memory,0,,,,,,,sunaaftlyfudyzuhqzf.jpg,,,,,,,,,,,,,,,
26,10,Memory,0,,,,,,,00532960627fa.jpg,,,,,,,,,,,,,,,
27,10,Memory,0,,,,,,,sunadrmfzmstgdjdcod.jpg,,,,,,,,,,,,,,,
28,10,Memory,0,,,,,,,00898960530fa.jpg,,,,,,,,,,,,,,,
29,10,Memory,0,,,,,,,sunadbhmrgrrpyzglxs.jpg,,,,,,,,,,,,,,,
30,10,Memory,0,,,,,,,00633940928fa.jpg,,,,,,,,,,,,,,,
31,10,Memory,0,,,,,,,00829940307fa.jpg,,,,,,,,,,,,,,,
32,10,Memory,0,,,,,,,sunaavjinpnkappuonm.jpg,,,,,,,,,,,,,,,
33,10,Memory,0,,,,,,,sunaccdtpgenvcbcbcf.jpg,,,,,,,,,,,,,,,
34,10,Memory,0,,,,,,,00997960627fa.jpg,,,,,,,,,,,,,,,
35,10,Memory,0,,,,,,,00894960620fa.jpg,,,,,,,,,,,,,,,
36,10,Memory,0,,,,,,,sunalqmfgeadpqsyzpd.jpg,,,,,,,,,,,,,,,
37,10,Memory,0,,,,,,,sunbgklxeqjhdbyfhhy.jpg,,,,,,,,,,,,,,,
38,10,Memory,0,,,,,,,00069931230fb.jpg,,,,,,,,,,,,,,,
39,10,Memory,0,,,,,,,00197940128fa.jpg,,,,,,,,,,,,,,,
40,10,Memory,0,,,,,,,sunbbgtoeuzierkkajt.jpg,,,,,,,,,,,,,,,
41,10,Memory,0,,,,,,,sunaflojskatpeqyzqp.jpg,,,,,,,,,,,,,,,
42,10,Memory,0,,,,,,,sunawotxrevnqvamsfp.jpg,,,,,,,,,,,,,,,
43,10,Memory,0,,,,,,,sunbtpilbhhbmhmeuzq.jpg,,,,,,,,,,,,,,,
44,10,Memory,0,,,,,,,sunaaylzyqlqrsmfwif.jpg,,,,,,,,,,,,,,,
45,10,Memory,0,,,,,,,00694941121fa.jpg,,,,,,,,,,,,,,,
46,10,Memory,0,,,,,,,sunahwgbqkqcrwprgvh.jpg,,,,,,,,,,,,,,,
47,10,Memory,0,,,,,,,00153931230fa.jpg,,,,,,,,,,,,,,,
48,10,Memory,0,,,,,,,00807941205fa.jpg,,,,,,,,,,,,,,,
49,10,Memory,0,,,,,,,00770941201fa.jpg,,,,,,,,,,,,,,,
50,10,Presentation,1,00129931230fb_sunaamsdyakblkfoydx.jpg,00116931230fa_sunaakqepfoeqomfgxf.jpg,00129931230fb.jpg,sunaamsdyakblkfoydx.jpg,00116931230fa.jpg,sunaakqepfoeqomfgxf.jpg,,,>,Place,,,,,1,,,,,,,x
51,10,Presentation,1,00968960627fa_sunbagfpovqwbuexqdn.jpg,00914960620fa_sunaozisvwfbmlkfhzv.jpg,00968960627fa.jpg,sunbagfpovqwbuexqdn.jpg,00914960620fa.jpg,sunaozisvwfbmlkfhzv.jpg,,,>,Face,,,,,1,,,,,,,o
52,10,Presentation,1,00774941201fa_sunafvtpfczkzopbgue.jpg,00728941205fa_sunaejnvnpltdmhbcsi.jpg,00774941201fa.jpg,sunafvtpfczkzopbgue.jpg,00728941205fa.jpg,sunaejnvnpltdmhbcsi.jpg,,,<,Place,,,,,0,,,,,,,o
53,10,Presentation,1,00102931230fa_sunaajspcoepticvplv.jpg,00825940307fa_sunahrltmuwbiehihpe.jpg,00102931230fa.jpg,sunaajspcoepticvplv.jpg,00825940307fa.jpg,sunahrltmuwbiehihpe.jpg,,,>,Place,,,,,1,,,,,,,o
54,10,Presentation,1,00990960627fa_sunbpflsdaxnddnwcqi.jpg,00562941031fa_sunacjnahdmqfnjfwqx.jpg,00990960627fa.jpg,sunbpflsdaxnddnwcqi.jpg,00562941031fa.jpg,sunacjnahdmqfnjfwqx.jpg,,,<,Face,,,,,1,,,,,,,o
55,10,Presentation,1,00936960627fa_sunaqgjuuwvdcyiccjt.jpg,00636941031fa_sunaddtdkycxbqlpfqa.jpg,00936960627fa.jpg,sunaqgjuuwvdcyiccjt.jpg,00636941031fa.jpg,sunaddtdkycxbqlpfqa.jpg,,,<,Place,,,,,1,,,,,,,o
56,10,Presentation,1,00922960627fa_sunapqkyghktgtosuuk.jpg,00915960620fa_sunapileznnbbmrwoei.jpg,00922960627fa.jpg,sunapqkyghktgtosuuk.jpg,00915960620fa.jpg,sunapileznnbbmrwoei.jpg,,,<,Face,,,,,1,,,,,,,x
57,10,Presentation,1,00543940519fa_sunacepzfrmtkiqonpy.jpg,00816941205fa_sunahmhrncocyhsjpxk.jpg,00543940519fa.jpg,sunacepzfrmtkiqonpy.jpg,00816941205fa.jpg,sunahmhrncocyhsjpxk.jpg,,,>,Face,,,,,1,,,,,,,o
58,10,Presentation,1,00972960627fa_sunbbfqwjpdxniyhies.jpg,00276940422fa_sunabmytpyhsgigllxu.jpg,00972960627fa.jpg,sunbbfqwjpdxniyhies.jpg,00276940422fa.jpg,sunabmytpyhsgigllxu.jpg,,,<,Place,,,,,1,,,,,,,x
59,10,Presentation,1,00108960530fa_sunaajtnvzzpsjdzres.jpg,00744941201fa_sunaeomlfaabhpswasy.jpg,00108960530fa.jpg,sunaajtnvzzpsjdzres.jpg,00744941201fa.jpg,sunaeomlfaabhpswasy.jpg,,,>,Face,,,,,1,,,,,,,x
60,10,Memory,1,,,,,,,00972960627fa.jpg,,,,,,,,,,,,,,,
61,10,Memory,1,,,,,,,sunbaejotfklekvpxcz.jpg,,,,,,,,,,,,,,,
62,10,Memory,1,,,,,,,sunaddtdkycxbqlpfqa.jpg,,,,,,,,,,,,,,,
63,10,Memory,1,,,,,,,sunacjnahdmqfnjfwqx.jpg,,,,,,,,,,,,,,,
64,10,Memory,1,,,,,,,sunacxtcahkymosigud.jpg,,,,,,,,,,,,,,,
65,10,Memory,1,,,,,,,sunbvbrvgbpanfrawft.jpg,,,,,,,,,,,,,,,
66,10,Memory,1,,,,,,,sunbagfpovqwbuexqdn.jpg,,,,,,,,,,,,,,,
67,10,Memory,1,,,,,,,00799941205fa.jpg,,,,,,,,,,,,,,,
68,10,Memory,1,,,,,,,00816941205fa.jpg,,,,,,,,,,,,,,,
69,10,Memory,1,,,,,,,00922960627fa.jpg,,,,,,,,,,,,,,,
70,10,Memory,1,,,,,,,00773960620fa.jpg,,,,,,,,,,,,,,,
71,10,Memory,1,,,,,,,sunbpflsdaxnddnwcqi.jpg,,,,,,,,,,,,,,,
72,10,Memory,1,,,,,,,00576941031fa.jpg,,,,,,,,,,,,,,,
73,10,Memory,1,,,,,,,00967960627fa.jpg,,,,,,,,,,,,,,,
74,10,Memory,1,,,,,,,00914960620fa.jpg,,,,,,,,,,,,,,,
75,10,Memory,1,,,,,,,00999960627fa.jpg,,,,,,,,,,,,,,,
76,10,Memory,1,,,,,,,00108960530fa.jpg,,,,,,,,,,,,,,,
77,10,Memory,1,,,,,,,sunaajtnvzzpsjdzres.jpg,,,,,,,,,,,,,,,
78,10,Memory,1,,,,,,,sunagutjvdvnhxejerz.jpg,,,,,,,,,,,,,,,
79,10,Memory,1,,,,,,,00947960627fa.jpg,,,,,,,,,,,,,,,
80,10,Memory,1,,,,,,,sunafvsxtzaizojicxx.jpg,,,,,,,,,,,,,,,
81,10,Memory,1,,,,,,,00968960627fa.jpg,,,,,,,,,,,,,,,
82,10,Memory,1,,,,,,,00082931230fa.jpg,,,,,,,,,,,,,,,
83,10,Memory,1,,,,,,,sunahmhrncocyhsjpxk.jpg,,,,,,,,,,,,,,,
84,10,Memory,1,,,,,,,00835940307fa.jpg,,,,,,,,,,,,,,,
85,10,Memory,1,,,,,,,sunaijsqpvodplbwxkf.jpg,,,,,,,,,,,,,,,
86,10,Memory,1,,,,,,,sunasmmcxdddtmtazwx.jpg,,,,,,,,,,,,,,,
87,10,Memory,1,,,,,,,00825940307fa.jpg,,,,,,,,,,,,,,,
88,10,Memory,1,,,,,,,sunanainkqdvktzoxyl.jpg,,,,,,,,,,,,,,,
89,10,Memory,1,,,,,,,sunacvjlsylseoghjup.jpg,,,,,,,,,,,,,,,
90,10,Memory,1,,,,,,,00903960620fa.jpg,,,,,,,,,,,,,,,
91,10,Memory,1,,,,,,,sunahrltmuwbiehihpe.jpg,,,,,,,,,,,,,,,
92,10,Memory,1,,,,,,,00990960627fa.jpg,,,,,,,,,,,,,,,
93,10,Memory,1,,,,,,,00598941031fa.jpg,,,,,,,,,,,,,,,
94,10,Memory,1,,,,,,,sunaozisvwfbmlkfhzv.jpg,,,,,,,,,,,,,,,
95,10,Memory,1,,,,,,,sunaafvitpexrpvumsa.jpg,,,,,,,,,,,,,,,
96,10,Memory,1,,,,,,,00636941031fa.jpg,,,,,,,,,,,,,,,
97,10,Memory,1,,,,,,,sunbbfqwjpdxniyhies.jpg,,,,,,,,,,,,,,,
98,10,Memory,1,,,,,,,00562941031fa.jpg,,,,,,,,,,,,,,,
99,10,Memory,1,,,,,,,sunapqkyghktgtosuuk.jpg,,,,,,,,,,,,,,,
100,10,Presentation,2,00571940928fa_sunacuatpqpqhyjhjqk.jpg,00761960627fa_sunafgdqbclkwfocdhg.jpg,00571940928fa.jpg,sunacuatpqpqhyjhjqk.jpg,00761960627fa.jpg,sunafgdqbclkwfocdhg.jpg,,,<,Place,,,,,0,,,,,,,x
101,10,Presentation,2,00828940307fa_sunahuynahneraqftyz.jpg,00720960620fa_sunaecpkgfewqqreqwe.jpg,00828940307fa.jpg,sunahuynahneraqftyz.jpg,00720960620fa.jpg,sunaecpkgfewqqreqwe.jpg,,,>,Face,,,,,1,,,,,,,o
102,10,Presentation,2,00793941205fa_sunagtjwilqjvxohypn.jpg,00878960530fa_sunakgbnzxmfohgehnu.jpg,00793941205fa.jpg,sunagtjwilqjvxohypn.jpg,00878960530fa.jpg,sunakgbnzxmfohgehnu.jpg,,,<,Place,,,,,1,,,,,,,o
103,10,Presentation,2,00634940928fa_sunadcphrizvfpljiqt.jpg,00123931230fb_sunaalcrrdbjgdztbiz.jpg,00634940928fa.jpg,sunadcphrizvfpljiqt.jpg,00123931230fb.jpg,sunaalcrrdbjgdztbiz.jpg,,,>,Place,,,,,1,,,,,,,x
104,10,Presentation,2,00775941205fa_sunafvwfsmqkjrutjta.jpg,00140931230fb_sunaapllqyqlykszopd.jpg,00775941205fa.jpg,sunafvwfsmqkjrutjta.jpg,00140931230fb.jpg,sunaapllqyqlykszopd.jpg,,,>,Place,,,,,1,,,,,,,x
105,10,Presentation,2,00913960530fa_sunaooffzffbhcpirmm.jpg,00589940928fa_sunacwggadqsfpovdjv.jpg,00913960530fa.jpg,sunaooffzffbhcpirmm.jpg,00589940928fa.jpg,sunacwggadqsfpovdjv.jpg,,,<,Face,,,,,1,,,,,,,x
106,10,Presentation,2,00966960627fa_sunaygrtwrwfezqjizr.jpg,00935960627fa_sunaqbmgkgqucajzrkp.jpg,00966960627fa.jpg,sunaygrtwrwfezqjizr.jpg,00935960627fa.jpg,sunaqbmgkgqucajzrkp.jpg,,,<,Face,,,,,1,,,,,,,o
107,10,Presentation,2,00725941201fa_sunaefgzwiramypjvtd.jpg,00790941205fa_sunagpjzsbltchlwvou.jpg,00725941201fa.jpg,sunaefgzwiramypjvtd.jpg,00790941205fa.jpg,sunagpjzsbltchlwvou.jpg,,,>,Place,,,,,1,,,,,,,x
108,10,Presentation,2,01004960627fa_sunbwtlihsuptkrckid.jpg,00101931230fb_sunaajqmsaavkmgbsth.jpg,01004960627fa.jpg,sunbwtlihsuptkrckid.jpg,00101931230fb.jpg,sunaajqmsaavkmgbsth.jpg,,,<,Face,,,,,1,,,,,,,o
109,10,Presentation,2,00794960620fa_sunagtqhhwxjeuxdebe.jpg,00071940128fa_sunaaexpnawiehinlpy.jpg,00794960620fa.jpg,sunagtqhhwxjeuxdebe.jpg,00071940128fa.jpg,sunaaexpnawiehinlpy.jpg,,,>,Face,,,,,1,,,,,,,o
110,10,Memory,2,,,,,,,01002960627fb.jpg,,,,,,,,,,,,,,,
111,10,Memory,2,,,,,,,00960960627fa.jpg,,,,,,,,,,,,,,,
112,10,Memory,2,,,,,,,sunaaexpnawiehinlpy.jpg,,,,,,,,,,,,,,,
113,10,Memory,2,,,,,,,sunadikxpvqeabxrvvc.jpg,,,,,,,,,,,,,,,
114,10,Memory,2,,,,,,,sunaajpqmulidejvjsr.jpg,,,,,,,,,,,,,,,
115,10,Memory,2,,,,,,,sunbwaafjdebjzttuvq.jpg,,,,,,,,,,,,,,,
116,10,Memory,2,,,,,,,00720960620fa.jpg,,,,,,,,,,,,,,,
117,10,Memory,2,,,,,,,sunawksfbacycuhbrsc.jpg,,,,,,,,,,,,,,,
118,10,Memory,2,,,,,,,00498960627fa.jpg,,,,,,,,,,,,,,,
119,10,Memory,2,,,,,,,00505960627fa.jpg,,,,,,,,,,,,,,,
120,10,Memory,2,,,,,,,sunaqbmgkgqucajzrkp.jpg,,,,,,,,,,,,,,,
121,10,Memory,2,,,,,,,sunafvwfsmqkjrutjta.jpg,,,,,,,,,,,,,,,
122,10,Memory,2,,,,,,,00208940128fa.jpg,,,,,,,,,,,,,,,
123,10,Memory,2,,,,,,,00828940307fa.jpg,,,,,,,,,,,,,,,
124,10,Memory,2,,,,,,,00101931230fb.jpg,,,,,,,,,,,,,,,
125,10,Memory,2,,,,,,,00957960627fa.jpg,,,,,,,,,,,,,,,
126,10,Memory,2,,,,,,,00878960530fa.jpg,,,,,,,,,,,,,,,
127,10,Memory,2,,,,,,,sunabzjxlmkwnwzimua.jpg,,,,,,,,,,,,,,,
128,10,Memory,2,,,,,,,00913960530fa.jpg,,,,,,,,,,,,,,,
129,10,Memory,2,,,,,,,sunaygrtwrwfezqjizr.jpg,,,,,,,,,,,,,,,
130,10,Memory,2,,,,,,,00775941205fa.jpg,,,,,,,,,,,,,,,
131,10,Memory,2,,,,,,,sunavhxgmgrqsaptynb.jpg,,,,,,,,,,,,,,,
132,10,Memory,2,,,,,,,00966960627fa.jpg,,,,,,,,,,,,,,,
133,10,Memory,2,,,,,,,00935960627fa.jpg,,,,,,,,,,,,,,,
134,10,Memory,2,,,,,,,00071940128fa.jpg,,,,,,,,,,,,,,,
135,10,Memory,2,,,,,,,sunahuynahneraqftyz.jpg,,,,,,,,,,,,,,,
136,10,Memory,2,,,,,,,sunapqkpqdfvxlbqwyo.jpg,,,,,,,,,,,,,,,
137,10,Memory,2,,,,,,,sunaooffzffbhcpirmm.jpg,,,,,,,,,,,,,,,
138,10,Memory,2,,,,,,,sunaazzyhbvqjpmazjq.jpg,,,,,,,,,,,,,,,
139,10,Memory,2,,,,,,,sunabzuqsrgcsonqlkz.jpg,,,,,,,,,,,,,,,
140,10,Memory,2,,,,,,,sunaecpkgfewqqreqwe.jpg,,,,,,,,,,,,,,,
141,10,Memory,2,,,,,,,00650941031fa.jpg,,,,,,,,,,,,,,,
142,10,Memory,2,,,,,,,00793941205fa.jpg,,,,,,,,,,,,,,,
143,10,Memory,2,,,,,,,00557940519fa.jpg,,,,,,,,,,,,,,,
144,10,Memory,2,,,,,,,sunaajqmsaavkmgbsth.jpg,,,,,,,,,,,,,,,
145,10,Memory,2,,,,,,,00098931230fa.jpg,,,,,,,,,,,,,,,
146,10,Memory,2,,,,,,,sunakgbnzxmfohgehnu.jpg,,,,,,,,,,,,,,,
147,10,Memory,2,,,,,,,00921960627fa.jpg,,,,,,,,,,,,,,,
148,10,Memory,2,,,,,,,sunachtuarilwyqnvjx.jpg,,,,,,,,,,,,,,,
149,10,Memory,2,,,,,,,sunagtjwilqjvxohypn.jpg,,,,,,,,,,,,,,,
150,10,Presentation,3,00955960627fb_sunauburywlkjszngcq.jpg,00911960530fa_sunaooaqzputrowwbsw.jpg,00955960627fb.jpg,sunauburywlkjszngcq.jpg,00911960530fa.jpg,sunaooaqzputrowwbsw.jpg,,,>,Face,,,,,1,,,,,,,o
151,10,Presentation,3,00263940128fb_sunabjuovqvyfuzvqwt.jpg,00822940307fa_sunahqrxievfeusiqlt.jpg,00263940128fb.jpg,sunabjuovqvyfuzvqwt.jpg,00822940307fa.jpg,sunahqrxievfeusiqlt.jpg,,,<,Place,,,,,1,,,,,,,o
152,10,Presentation,3,00245940128fa_sunabeyhmxodahoieyk.jpg,00675941121fa_sunadoxcchtmsxewsau.jpg,00245940128fa.jpg,sunabeyhmxodahoieyk.jpg,00675941121fa.jpg,sunadoxcchtmsxewsau.jpg,,,>,Face,,,,,1,,,,,,,x
153,10,Presentation,3,00065931230fb_sunaaemixhfquhnxxlm.jpg,00989960627fa_sunbondbduabvijnmch.jpg,00065931230fb.jpg,sunaaemixhfquhnxxlm.jpg,00989960627fa.jpg,sunbondbduabvijnmch.jpg,,,>,Place,,,,,1,,,,,,,o
154,10,Presentation,3,00877960530fa_sunajxpkuhbizeveguy.jpg,00871940307_sunajrujcsdxmfbssmc.jpg,00877960530fa.jpg,sunajxpkuhbizeveguy.jpg,00871940307.jpg,sunajrujcsdxmfbssmc.jpg,,,<,Face,,,,,1,,,,,,,o
155,10,Presentation,3,00264940128fb_sunabjzyxcjnmztdonj.jpg,00773941201fa_sunafvcflzhlqloapyo.jpg,00264940128fb.jpg,sunabjzyxcjnmztdonj.jpg,00773941201fa.jpg,sunafvcflzhlqloapyo.jpg,,,>,Place,,,,,0,,,,,,,x
156,10,Presentation,3,00124931230fa_sunaalhlvzmjmitybdn.jpg,00727941205fa_sunaeisnjeetzmkbuad.jpg,00124931230fa.jpg,sunaalhlvzmjmitybdn.jpg,00727941205fa.jpg,sunaeisnjeetzmkbuad.jpg,,,<,Face,,,,,1,,,,,,,x
157,10,Presentation,3,00984960627fa_sunbfzchmomnvzhbxdg.jpg,00647941031fa_sunadflbrkckmepztql.jpg,00984960627fa.jpg,sunbfzchmomnvzhbxdg.jpg,00647941031fa.jpg,sunadflbrkckmepztql.jpg,,,>,Place,,,,,1,,,,,,,x
158,10,Presentation,3,00193940928fa_sunaaxjpzcnxligjtjq.jpg,00260940128fa_sunabgfhvifeijihhjw.jpg,00193940928fa.jpg,sunaaxjpzcnxligjtjq.jpg,00260940128fa.jpg,sunabgfhvifeijihhjw.jpg,,,<,Face,,,,,1,,,,,,,x
159,10,Presentation,3,00070940307fa_sunaaeplwsfslcbtojr.jpg,00901960530fa_sunammbnoambmhdxdwd.jpg,00070940307fa.jpg,sunaaeplwsfslcbtojr.jpg,00901960530fa.jpg,sunammbnoambmhdxdwd.jpg,,,<,Place,,,,,1,,,,,,,x
160,10,Memory,3,,,,,,,00146960620fb.jpg,,,,,,,,,,,,,,,
161,10,Memory,3,,,,,,,sunaaxjpzcnxligjtjq.jpg,,,,,,,,,,,,,,,
162,10,Memory,3,,,,,,,sunabeyhmxodahoieyk.jpg,,,,,,,,,,,,,,,
163,10,Memory,3,,,,,,,sunagtumacdlmciqamz.jpg,,,,,,,,,,,,,,,
164,10,Memory,3,,,,,,,sunajxpkuhbizeveguy.jpg,,,,,,,,,,,,,,,
165,10,Memory,3,,,,,,,sunabqowuarvqqcnipn.jpg,,,,,,,,,,,,,,,
166,10,Memory,3,,,,,,,00065931230fb.jpg,,,,,,,,,,,,,,,
167,10,Memory,3,,,,,,,sunaangbuylfvckqqoo.jpg,,,,,,,,,,,,,,,
168,10,Memory,3,,,,,,,sunacbeefkxpymwevpk.jpg,,,,,,,,,,,,,,,
169,10,Memory,3,,,,,,,00147931230fb.jpg,,,,,,,,,,,,,,,
170,10,Memory,3,,,,,,,00124931230fa.jpg,,,,,,,,,,,,,,,
171,10,Memory,3,,,,,,,sunaaemixhfquhnxxlm.jpg,,,,,,,,,,,,,,,
172,10,Memory,3,,,,,,,sunafvcflzhlqloapyo.jpg,,,,,,,,,,,,,,,
173,10,Memory,3,,,,,,,00647941031fa.jpg,,,,,,,,,,,,,,,
174,10,Memory,3,,,,,,,00795941205fa.jpg,,,,,,,,,,,,,,,
175,10,Memory,3,,,,,,,sunadfndyrtqqiasoig.jpg,,,,,,,,,,,,,,,
176,10,Memory,3,,,,,,,00901960530fa.jpg,,,,,,,,,,,,,,,
177,10,Memory,3,,,,,,,sunadflbrkckmepztql.jpg,,,,,,,,,,,,,,,
178,10,Memory,3,,,,,,,00877960530fa.jpg,,,,,,,,,,,,,,,
179,10,Memory,3,,,,,,,00529940519fa.jpg,,,,,,,,,,,,,,,
180,10,Memory,3,,,,,,,00719960620fa.jpg,,,,,,,,,,,,,,,
181,10,Memory,3,,,,,,,sunaatpkocdkocwxpkb.jpg,,,,,,,,,,,,,,,
182,10,Memory,3,,,,,,,sunaeisnjeetzmkbuad.jpg,,,,,,,,,,,,,,,
183,10,Memory,3,,,,,,,00245940128fa.jpg,,,,,,,,,,,,,,,
184,10,Memory,3,,,,,,,00290940422fa.jpg,,,,,,,,,,,,,,,
185,10,Memory,3,,,,,,,sunaatpeezlljqaxlhj.jpg,,,,,,,,,,,,,,,
186,10,Memory,3,,,,,,,sunaazezcsunmhttzxz.jpg,,,,,,,,,,,,,,,
187,10,Memory,3,,,,,,,00131931230fb.jpg,,,,,,,,,,,,,,,
188,10,Memory,3,,,,,,,00727941205fa.jpg,,,,,,,,,,,,,,,
189,10,Memory,3,,,,,,,sunammbnoambmhdxdwd.jpg,,,,,,,,,,,,,,,
190,10,Memory,3,,,,,,,00648941031fa.jpg,,,,,,,,,,,,,,,
191,10,Memory,3,,,,,,,00598940928fa.jpg,,,,,,,,,,,,,,,
192,10,Memory,3,,,,,,,00773941201fa.jpg,,,,,,,,,,,,,,,
193,10,Memory,3,,,,,,,sunadzuvtmtmgupotmf.jpg,,,,,,,,,,,,,,,
194,10,Memory,3,,,,,,,00822940307fa.jpg,,,,,,,,,,,,,,,
195,10,Memory,3,,,,,,,sunahqrxievfeusiqlt.jpg,,,,,,,,,,,,,,,
196,10,Memory,3,,,,,,,sunaalhlvzmjmitybdn.jpg,,,,,,,,,,,,,,,
197,10,Memory,3,,,,,,,sunacxeheuiigkcgquf.jpg,,,,,,,,,,,,,,,
198,10,Memory,3,,,,,,,00198940128fb.jpg,,,,,,,,,,,,,,,
199,10,Memory,3,,,,,,,00193940928fa.jpg,,,,,,,,,,,,,,,
200,10,Presentation,4,00111931230fb_sunaakgekhjklxmvulj.jpg,00970960627fa_sunbasypfgzjtomktmu.jpg,00111931230fb.jpg,sunaakgekhjklxmvulj.jpg,00970960627fa.jpg,sunbasypfgzjtomktmu.jpg,,,<,Place,,,,,0,,,,,,,o
201,10,Presentation,4,00983960627fa_sunbfyvfqiimvdaxlqn.jpg,00149931230fa_sunaauglwmctnkxyird.jpg,00983960627fa.jpg,sunbfyvfqiimvdaxlqn.jpg,00149931230fa.jpg,sunaauglwmctnkxyird.jpg,,,<,Face,,,,,1,,,,,,,x
202,10,Presentation,4,00681941121fa_sunadqmjrhfjyuzyvdd.jpg,00302940422fa_sunabtlfmiwtljmoues.jpg,00681941121fa.jpg,sunadqmjrhfjyuzyvdd.jpg,00302940422fa.jpg,sunabtlfmiwtljmoues.jpg,,,>,Place,,,,,1,,,,,,,x
203,10,Presentation,4,00965960627fa_sunaydywdmvlfddbxbk.jpg,00805941205fa_sunagwzdbtlixdhgolm.jpg,00965960627fa.jpg,sunaydywdmvlfddbxbk.jpg,00805941205fa.jpg,sunagwzdbtlixdhgolm.jpg,,,>,Face,,,,,1,,,,,,,o
204,10,Presentation,4,00933960627fa_sunapwjkcxdaeqehfql.jpg,01007960627fa_sunbxarcshsnqsefemx.jpg,00933960627fa.jpg,sunapwjkcxdaeqehfql.jpg,01007960627fa.jpg,sunbxarcshsnqsefemx.jpg,,,>,Place,,,,,1,,,,,,,x
205,10,Presentation,4,00270940422fb_sunabllobxadqcyttej.jpg,00906960530fa_sunantryfbloeaomfta.jpg,00270940422fb.jpg,sunabllobxadqcyttej.jpg,00906960530fa.jpg,sunantryfbloeaomfta.jpg,,,<,Face,,,,,1,,,,,,,o
206,10,Presentation,4,00096931230fa_sunaaiqiqcggrskoqgy.jpg,00986960627fa_sunbgzjryivyczuvkvm.jpg,00096931230fa.jpg,sunaaiqiqcggrskoqgy.jpg,00986960627fa.jpg,sunbgzjryivyczuvkvm.jpg,,,>,Face,,,,,1,,,,,,,x
207,10,Presentation,4,00089931230fa_sunaagcpoejbuzyvddd.jpg,00882960530fa_sunaknlirqjqiwbbeeg.jpg,00089931230fa.jpg,sunaagcpoejbuzyvddd.jpg,00882960530fa.jpg,sunaknlirqjqiwbbeeg.jpg,,,<,Place,,,,,1,,,,,,,x
208,10,Presentation,4,00809960620fa_sunahbvlpavurqoxdeq.jpg,00138931230fa_sunaapfaivxqoynnwwp.jpg,00809960620fa.jpg,sunahbvlpavurqoxdeq.jpg,00138931230fa.jpg,sunaapfaivxqoynnwwp.jpg,,,>,Place,,,,,1,,,,,,,x
209,10,Presentation,4,00568940928fa_sunacsdhbbsybcyxnel.jpg,00766960620fa_sunafijbgncijwykrnl.jpg,00568940928fa.jpg,sunacsdhbbsybcyxnel.jpg,00766960620fa.jpg,sunafijbgncijwykrnl.jpg,,,<,Face,,,,,0,,,,,,,x
210,10,Memory,4,,,,,,,sunbbegcweqnetpdlrh.jpg,,,,,,,,,,,,,,,
211,10,Memory,4,,,,,,,00149931230fa.jpg,,,,,,,,,,,,,,,
212,10,Memory,4,,,,,,,sunabcuurugvxwparpk.jpg,,,,,,,,,,,,,,,
213,10,Memory,4,,,,,,,sunagufzbeteqdjxais.jpg,,,,,,,,,,,,,,,
214,10,Memory,4,,,,,,,sunaapfaivxqoynnwwp.jpg,,,,,,,,,,,,,,,
215,10,Memory,4,,,,,,,00983960627fa.jpg,,,,,,,,,,,,,,,
216,10,Memory,4,,,,,,,sunaauglwmctnkxyird.jpg,,,,,,,,,,,,,,,
217,10,Memory,4,,,,,,,sunbgzjryivyczuvkvm.jpg,,,,,,,,,,,,,,,
218,10,Memory,4,,,,,,,00870940307fa.jpg,,,,,,,,,,,,,,,
219,10,Memory,4,,,,,,,sunbfyvfqiimvdaxlqn.jpg,,,,,,,,,,,,,,,
220,10,Memory,4,,,,,,,sunablfqiwfqomjarht.jpg,,,,,,,,,,,,,,,
221,10,Memory,4,,,,,,,sunafijbgncijwykrnl.jpg,,,,,,,,,,,,,,,
222,10,Memory,4,,,,,,,sunbvzmgrdvaakxusbu.jpg,,,,,,,,,,,,,,,
223,10,Memory,4,,,,,,,00214940128fa.jpg,,,,,,,,,,,,,,,
224,10,Memory,4,,,,,,,sunaakgekhjklxmvulj.jpg,,,,,,,,,,,,,,,
225,10,Memory,4,,,,,,,00568940928fa.jpg,,,,,,,,,,,,,,,
226,10,Memory,4,,,,,,,sunbasypfgzjtomktmu.jpg,,,,,,,,,,,,,,,
227,10,Memory,4,,,,,,,00971960627fa.jpg,,,,,,,,,,,,,,,
228,10,Memory,4,,,,,,,00766960620fa.jpg,,,,,,,,,,,,,,,
229,10,Memory,4,,,,,,,00242940128fa.jpg,,,,,,,,,,,,,,,
230,10,Memory,4,,,,,,,00797960620fa.jpg,,,,,,,,,,,,,,,
231,10,Memory,4,,,,,,,sunajrgtewnualfcerj.jpg,,,,,,,,,,,,,,,
232,10,Memory,4,,,,,,,sunadsgmtznewzyasnk.jpg,,,,,,,,,,,,,,,
233,10,Memory,4,,,,,,,sunabllobxadqcyttej.jpg,,,,,,,,,,,,,,,
234,10,Memory,4,,,,,,,00138931230fa.jpg,,,,,,,,,,,,,,,
235,10,Memory,4,,,,,,,00809960620fa.jpg,,,,,,,,,,,,,,,
236,10,Memory,4,,,,,,,00267940128fb.jpg,,,,,,,,,,,,,,,
237,10,Memory,4,,,,,,,00986960627fa.jpg,,,,,,,,,,,,,,,
238,10,Memory,4,,,,,,,00111931230fb.jpg,,,,,,,,,,,,,,,
239,10,Memory,4,,,,,,,sunaemcowdozyphwknd.jpg,,,,,,,,,,,,,,,
240,10,Memory,4,,,,,,,00133931230fa.jpg,,,,,,,,,,,,,,,
241,10,Memory,4,,,,,,,00270940422fb.jpg,,,,,,,,,,,,,,,
242,10,Memory,4,,,,,,,sunabbafjowbzcvbucc.jpg,,,,,,,,,,,,,,,
243,10,Memory,4,,,,,,,01000960627fa.jpg,,,,,,,,,,,,,,,
244,10,Memory,4,,,,,,,sunacsdhbbsybcyxnel.jpg,,,,,,,,,,,,,,,
245,10,Memory,4,,,,,,,sunahbvlpavurqoxdeq.jpg,,,,,,,,,,,,,,,
246,10,Memory,4,,,,,,,00741941201fa.jpg,,,,,,,,,,,,,,,
247,10,Memory,4,,,,,,,sunaanlwnpqndclffxt.jpg,,,,,,,,,,,,,,,
248,10,Memory,4,,,,,,,00970960627fa.jpg,,,,,,,,,,,,,,,
249,10,Memory,4,,,,,,,00700941121fa.jpg,,,,,,,,,,,,,,,
250,10,Presentation,5,00077931230fb_sunaafgqutfaishsxyu.jpg,01003960627fb_sunbwdrdvsweerwsdrj.jpg,00077931230fb.jpg,sunaafgqutfaishsxyu.jpg,01003960627fb.jpg,sunbwdrdvsweerwsdrj.jpg,,,>,Face,,,,,1,,,,,,,o
251,10,Presentation,5,00800941205fb_sunagvjurcwdbixvnyi.jpg,00090931230fa_sunaahedjlmtqekgyvj.jpg,00800941205fb.jpg,sunagvjurcwdbixvnyi.jpg,00090931230fa.jpg,sunaahedjlmtqekgyvj.jpg,,,<,Place,,,,,1,,,,,,,o
252,10,Presentation,5,00859940307fa_sunaiycurtqsfkvcaso.jpg,00749941201fa_sunaeuvjbmdpknaqqaj.jpg,00859940307fa.jpg,sunaiycurtqsfkvcaso.jpg,00749941201fa.jpg,sunaeuvjbmdpknaqqaj.jpg,,,>,Place,,,,,1,,,,,,,o
253,10,Presentation,5,00086931230fa_sunaafynehyrzpsoaml.jpg,00819940307fa_sunahqldjibofgsfdgb.jpg,00086931230fa.jpg,sunaafynehyrzpsoaml.jpg,00819940307fa.jpg,sunahqldjibofgsfdgb.jpg,,,>,Face,,,,,1,,,,,,,x
254,10,Presentation,5,00952960627fa_sunathzzbcwjykldrem.jpg,00987960627fa_sunbloeoiozwjjsiamp.jpg,00952960627fa.jpg,sunathzzbcwjykldrem.jpg,00987960627fa.jpg,sunbloeoiozwjjsiamp.jpg,,,>,Place,,,,,1,,,,,,,o
255,10,Presentation,5,00857940307fa_sunaiwfobocrruqznsv.jpg,00154931230fa_sunaauueuhhvklldjik.jpg,00857940307fa.jpg,sunaiwfobocrruqznsv.jpg,00154931230fa.jpg,sunaauueuhhvklldjik.jpg,,,>,Face,,,,,1,,,,,,,o
256,10,Presentation,5,00988960627fa_sunbmaiocftdtvnzgap.jpg,00483940519fa_sunabyvpwkgsjtijdwj.jpg,00988960627fa.jpg,sunbmaiocftdtvnzgap.jpg,00483940519fa.jpg,sunabyvpwkgsjtijdwj.jpg,,,<,Place,,,,,1,,,,,,,x
257,10,Presentation,5,00061931230fb_sunaaekxzjzrfgtkwjf.jpg,00900960530fa_sunamlotskmmsjeogby.jpg,00061931230fb.jpg,sunaaekxzjzrfgtkwjf.jpg,00900960530fa.jpg,sunamlotskmmsjeogby.jpg,,,<,Face,,,,,1,,,,,,,x
258,10,Presentation,5,00783941205fa_sunagjeesomrwjsfqie.jpg,00768941205fa_sunafkmnlytenlsywia.jpg,00783941205fa.jpg,sunagjeesomrwjsfqie.jpg,00768941205fa.jpg,sunafkmnlytenlsywia.jpg,,,<,Place,,,,,1,,,,,,,x
259,10,Presentation,5,00754941201fa_sunaffgsyyvoqdlkmnk.jpg,00063931230fa_sunaaelyvurpntclgau.jpg,00754941201fa.jpg,sunaffgsyyvoqdlkmnk.jpg,00063931230fa.jpg,sunaaelyvurpntclgau.jpg,,,<,Face,,,,,0,,,,,,,o
260,10,Memory,5,,,,,,,sunagmwxxwymwojbvgi.jpg,,,,,,,,,,,,,,,
261,10,Memory,5,,,,,,,01003960627fb.jpg,,,,,,,,,,,,,,,
262,10,Memory,5,,,,,,,00747941201fa.jpg,,,,,,,,,,,,,,,
263,10,Memory,5,,,,,,,00109931230fa.jpg,,,,,,,,,,,,,,,
264,10,Memory,5,,,,,,,00857940307fa.jpg,,,,,,,,,,,,,,,
265,10,Memory,5,,,,,,,00288940422fa.jpg,,,,,,,,,,,,,,,
266,10,Memory,5,,,,,,,01207940128fa.jpg,,,,,,,,,,,,,,,
267,10,Memory,5,,,,,,,00800941205fb.jpg,,,,,,,,,,,,,,,
268,10,Memory,5,,,,,,,sunaiwfobocrruqznsv.jpg,,,,,,,,,,,,,,,
269,10,Memory,5,,,,,,,sunaeutbrtswvsozxyk.jpg,,,,,,,,,,,,,,,
270,10,Memory,5,,,,,,,sunaeuvjbmdpknaqqaj.jpg,,,,,,,,,,,,,,,
271,10,Memory,5,,,,,,,00783941205fa.jpg,,,,,,,,,,,,,,,
272,10,Memory,5,,,,,,,sunafkmnlytenlsywia.jpg,,,,,,,,,,,,,,,
273,10,Memory,5,,,,,,,sunbmaiocftdtvnzgap.jpg,,,,,,,,,,,,,,,
274,10,Memory,5,,,,,,,sunaahedjlmtqekgyvj.jpg,,,,,,,,,,,,,,,
275,10,Memory,5,,,,,,,00077931230fb.jpg,,,,,,,,,,,,,,,
276,10,Memory,5,,,,,,,sunagrmyoovzukhxmlo.jpg,,,,,,,,,,,,,,,
277,10,Memory,5,,,,,,,00749941201fa.jpg,,,,,,,,,,,,,,,
278,10,Memory,5,,,,,,,sunabppokiyglaxpcha.jpg,,,,,,,,,,,,,,,
279,10,Memory,5,,,,,,,00900960530fa.jpg,,,,,,,,,,,,,,,
280,10,Memory,5,,,,,,,sundbixjudsgeuuehrn.jpg,,,,,,,,,,,,,,,
281,10,Memory,5,,,,,,,sunagjeesomrwjsfqie.jpg,,,,,,,,,,,,,,,
282,10,Memory,5,,,,,,,sunagcthdfirrcawoic.jpg,,,,,,,,,,,,,,,
283,10,Memory,5,,,,,,,00090931230fa.jpg,,,,,,,,,,,,,,,
284,10,Memory,5,,,,,,,sunaampvucecsfbdafn.jpg,,,,,,,,,,,,,,,
285,10,Memory,5,,,,,,,sunagvjurcwdbixvnyi.jpg,,,,,,,,,,,,,,,
286,10,Memory,5,,,,,,,sunaajuzribjrizdshh.jpg,,,,,,,,,,,,,,,
287,10,Memory,5,,,,,,,00787941205fa.jpg,,,,,,,,,,,,,,,
288,10,Memory,5,,,,,,,00791941205fa.jpg,,,,,,,,,,,,,,,
289,10,Memory,5,,,,,,,sunaaheqzstzxuadglu.jpg,,,,,,,,,,,,,,,
290,10,Memory,5,,,,,,,00789960620fa.jpg,,,,,,,,,,,,,,,
291,10,Memory,5,,,,,,,00768941205fa.jpg,,,,,,,,,,,,,,,
292,10,Memory,5,,,,,,,sunaafgqutfaishsxyu.jpg,,,,,,,,,,,,,,,
293,10,Memory,5,,,,,,,00092931230fa.jpg,,,,,,,,,,,,,,,
294,10,Memory,5,,,,,,,sunamlotskmmsjeogby.jpg,,,,,,,,,,,,,,,
295,10,Memory,5,,,,,,,sunbwdrdvsweerwsdrj.jpg,,,,,,,,,,,,,,,
296,10,Memory,5,,,,,,,00778941205fa.jpg,,,,,,,,,,,,,,,
297,10,Memory,5,,,,,,,00988960627fa.jpg,,,,,,,,,,,,,,,
298,10,Memory,5,,,,,,,sunagpancjmxqfazssf.jpg,,,,,,,,,,,,,,,
299,10,Memory,5,,,,,,,00127931230fa.jpg,,,,,,,,,,,,,,,
300,10,Presentation,6,00163931230fb_sunaavodbcpygkggnfp.jpg,00574940928fa_sunacvbrcejzwmcgnoq.jpg,00163931230fb.jpg,sunaavodbcpygkggnfp.jpg,00574940928fa.jpg,sunacvbrcejzwmcgnoq.jpg,,,<,Face,,,,,1,,,,,,,o
301,10,Presentation,6,00316940422fa_sunabxmguapjekttvwm.jpg,00931960627fa_sunaptrqvaooxfvktvw.jpg,00316940422fa.jpg,sunabxmguapjekttvwm.jpg,00931960627fa.jpg,sunaptrqvaooxfvktvw.jpg,,,<,Face,,,,,1,,,,,,,o
302,10,Presentation,6,00130931230fa_sunaamvxnvouicstkjb.jpg,00609940928fa_sunacycdoztxoluxjyk.jpg,00130931230fa.jpg,sunaamvxnvouicstkjb.jpg,00609940928fa.jpg,sunacycdoztxoluxjyk.jpg,,,>,Place,,,,,1,,,,,,,x
303,10,Presentation,6,00227940128fa_sunabckqabszusgcykj.jpg,00838940307fa_sunaiozxhxgtfrmoagh.jpg,00227940128fa.jpg,sunabckqabszusgcykj.jpg,00838940307fa.jpg,sunaiozxhxgtfrmoagh.jpg,,,<,Place,,,,,1,,,,,,,o
304,10,Presentation,6,00125931230fa_sunaalltyvjhbzhkmvg.jpg,00093931230fa_sunaahwnmtqsrhocysw.jpg,00125931230fa.jpg,sunaalltyvjhbzhkmvg.jpg,00093931230fa.jpg,sunaahwnmtqsrhocysw.jpg,,,<,Place,,,,,1,,,,,,,o
305,10,Presentation,6,00885960530fa_sunakwlvxjpddialozd.jpg,00787960620fa_sunagoufulkpsxrmklt.jpg,00885960530fa.jpg,sunakwlvxjpddialozd.jpg,00787960620fa.jpg,sunagoufulkpsxrmklt.jpg,,,>,Face,,,,,1,,,,,,,x
306,10,Presentation,6,00868960307fa_sunajjxttslobudoqbv.jpg,00862940307fa_sunaizgnnplsvajzhkc.jpg,00868960307fa.jpg,sunajjxttslobudoqbv.jpg,00862940307fa.jpg,sunaizgnnplsvajzhkc.jpg,,,>,Face,,,,,1,,,,,,,x
307,10,Presentation,6,00630940928fa_sunaczwgyukesaajxnx.jpg,00209940128fb_sunabaergayifsgacxt.jpg,00630940928fa.jpg,sunaczwgyukesaajxnx.jpg,00209940128fb.jpg,sunabaergayifsgacxt.jpg,,,>,Place,,,,,1,,,,,,,x
308,10,Presentation,6,00631940928fa_sunadbdqzigzwipuipr.jpg,00979960627fa_sunbdycacjfaujxitbw.jpg,00631940928fa.jpg,sunadbdqzigzwipuipr.jpg,00979960627fa.jpg,sunbdycacjfaujxitbw.jpg,,,<,Face,,,,,1,,,,,,,x
309,10,Presentation,6,00743941201fa_sunaeoghzrjarigmwua.jpg,00953960627fa_sunatstrpjxhvtbaczf.jpg,00743941201fa.jpg,sunaeoghzrjarigmwua.jpg,00953960627fa.jpg,sunatstrpjxhvtbaczf.jpg,,,>,Place,,,,,1,,,,,,,o
310,10,Memory,6,,,,,,,sunajjxttslobudoqbv.jpg,,,,,,,,,,,,,,,
311,10,Memory,6,,,,,,,00062931230fb.jpg,,,,,,,,,,,,,,,
312,10,Memory,6,,,,,,,sunalcrtwiycqobgelp.jpg,,,,,,,,,,,,,,,
313,10,Memory,6,,,,,,,00743941201fa.jpg,,,,,,,,,,,,,,,
314,10,Memory,6,,,,,,,sunabcfpwlpolnutyju.jpg,,,,,,,,,,,,,,,
315,10,Memory,6,,,,,,,00631940928fa.jpg,,,,,,,,,,,,,,,
316,10,Memory,6,,,,,,,00209940128fb.jpg,,,,,,,,,,,,,,,
317,10,Memory,6,,,,,,,sunabyfxcxhdebvdyfd.jpg,,,,,,,,,,,,,,,
318,10,Memory,6,,,,,,,sunabaergayifsgacxt.jpg,,,,,,,,,,,,,,,
319,10,Memory,6,,,,,,,00811960530fa.jpg,,,,,,,,,,,,,,,
320,10,Memory,6,,,,,,,00482940519fa.jpg,,,,,,,,,,,,,,,
321,10,Memory,6,,,,,,,sunatstrpjxhvtbaczf.jpg,,,,,,,,,,,,,,,
322,10,Memory,6,,,,,,,00931960627fa.jpg,,,,,,,,,,,,,,,
323,10,Memory,6,,,,,,,sunaeoghzrjarigmwua.jpg,,,,,,,,,,,,,,,
324,10,Memory,6,,,,,,,00235940128fb.jpg,,,,,,,,,,,,,,,
325,10,Memory,6,,,,,,,sunaaelotvjgibjtjhs.jpg,,,,,,,,,,,,,,,
326,10,Memory,6,,,,,,,00723941201fa.jpg,,,,,,,,,,,,,,,
327,10,Memory,6,,,,,,,00132931230fb.jpg,,,,,,,,,,,,,,,
328,10,Memory,6,,,,,,,sunaczwgyukesaajxnx.jpg,,,,,,,,,,,,,,,
329,10,Memory,6,,,,,,,00221940128fa.jpg,,,,,,,,,,,,,,,
330,10,Memory,6,,,,,,,sunaedtgwjvvziytspa.jpg,,,,,,,,,,,,,,,
331,10,Memory,6,,,,,,,sunahedfrhtcwpneund.jpg,,,,,,,,,,,,,,,
332,10,Memory,6,,,,,,,00862940307fa.jpg,,,,,,,,,,,,,,,
333,10,Memory,6,,,,,,,00868960307fa.jpg,,,,,,,,,,,,,,,
334,10,Memory,6,,,,,,,sunarpsxqkduedrrzyi.jpg,,,,,,,,,,,,,,,
335,10,Memory,6,,,,,,,sunaizgnnplsvajzhkc.jpg,,,,,,,,,,,,,,,
336,10,Memory,6,,,,,,,sunakwlvxjpddialozd.jpg,,,,,,,,,,,,,,,
337,10,Memory,6,,,,,,,sunaanjcbzdvtvblsdy.jpg,,,,,,,,,,,,,,,
338,10,Memory,6,,,,,,,00630940928fa.jpg,,,,,,,,,,,,,,,
339,10,Memory,6,,,,,,,00943960627fa.jpg,,,,,,,,,,,,,,,
340,10,Memory,6,,,,,,,00887960530.jpg,,,,,,,,,,,,,,,
341,10,Memory,6,,,,,,,00953960627fa.jpg,,,,,,,,,,,,,,,
342,10,Memory,6,,,,,,,sunadbdqzigzwipuipr.jpg,,,,,,,,,,,,,,,
343,10,Memory,6,,,,,,,sunaafjszryxyavjzln.jpg,,,,,,,,,,,,,,,
344,10,Memory,6,,,,,,,sunbdycacjfaujxitbw.jpg,,,,,,,,,,,,,,,
345,10,Memory,6,,,,,,,00885960530fa.jpg,,,,,,,,,,,,,,,
346,10,Memory,6,,,,,,,sunaptrqvaooxfvktvw.jpg,,,,,,,,,,,,,,,
347,10,Memory,6,,,,,,,sunabclssnoeuigtawp.jpg,,,,,,,,,,,,,,,
348,10,Memory,6,,,,,,,00979960627fa.jpg,,,,,,,,,,,,,,,
349,10,Memory,6,,,,,,,00080931230fb.jpg,,,,,,,,,,,,,,,
350,10,Presentation,7,00119931230fb_sunaakvmbftkrgqhjun.jpg,01005960627fa_sunbwyuesflwdpqtgoy.jpg,00119931230fb.jpg,sunaakvmbftkrgqhjun.jpg,01005960627fa.jpg,sunbwyuesflwdpqtgoy.jpg,,,<,Place,,,,,1,,,,,,,x
351,10,Presentation,7,01011960627fa_sundahdxwmcdluscvot.jpg,00866940307fa_sunajbwkywmsqkldfml.jpg,01011960627fa.jpg,sundahdxwmcdluscvot.jpg,00866940307fa.jpg,sunajbwkywmsqkldfml.jpg,,,<,Place,,,,,1,,,,,,,x
352,10,Presentation,7,00145931230fb_sunaatjesvdupctftmn.jpg,00540940519fa_sunacdnquypmsshhsbk.jpg,00145931230fb.jpg,sunaatjesvdupctftmn.jpg,00540940519fa.jpg,sunacdnquypmsshhsbk.jpg,,,>,Place,,,,,1,,,,,,,o
353,10,Presentation,7,00638941031fa_sunadfktsqjthoglcsm.jpg,00982960627fa_sunbesrwkdsffeogeqq.jpg,00638941031fa.jpg,sunadfktsqjthoglcsm.jpg,00982960627fa.jpg,sunbesrwkdsffeogeqq.jpg,,,>,Face,,,,,1,,,,,,,o
354,10,Presentation,7,00776941205fa_sunafxokyavhgptyfye.jpg,01009960627fa_sunbxzweleltykebgan.jpg,00776941205fa.jpg,sunafxokyavhgptyfye.jpg,01009960627fa.jpg,sunbxzweleltykebgan.jpg,,,>,Face,,,,,1,,,,,,,o
355,10,Presentation,7,00950960627fa_sunasrjlmglmjzbmqxb.jpg,00977960627fa_sunbbxkanhzjgbwyxqs.jpg,00950960627fa.jpg,sunasrjlmglmjzbmqxb.jpg,00977960627fa.jpg,sunbbxkanhzjgbwyxqs.jpg,,,>,Face,,,,,1,,,,,,,x
356,10,Presentation,7,00848940307fa_sunaivdylrawbmhryfp.jpg,00786941205fa_sunagmhildamktmqjss.jpg,00848940307fa.jpg,sunaivdylrawbmhryfp.jpg,00786941205fa.jpg,sunagmhildamktmqjss.jpg,,,<,Face,,,,,1,,,,,,,x
357,10,Presentation,7,00073931230fa_sunaafbmtoniaasysgu.jpg,00874940307fa_sunajtrfunvzdfticna.jpg,00073931230fa.jpg,sunaafbmtoniaasysgu.jpg,00874940307fa.jpg,sunajtrfunvzdfticna.jpg,,,>,Place,,,,,1,,,,,,,x
358,10,Presentation,7,00876960620fa_sunajwqkfsykceonyig.jpg,00978960627fa_sunbddbivbptlrlauhy.jpg,00876960620fa.jpg,sunajwqkfsykceonyig.jpg,00978960627fa.jpg,sunbddbivbptlrlauhy.jpg,,,<,Face,,,,,0,,,,,,,o
359,10,Presentation,7,00959960627fa_sunavxokzybtomhbmvm.jpg,00676941121fa_sunadpnqovzckyikrjo.jpg,00959960627fa.jpg,sunavxokzybtomhbmvm.jpg,00676941121fa.jpg,sunadpnqovzckyikrjo.jpg,,,<,Place,,,,,1,,,,,,,o
360,10,Memory,7,,,,,,,sunanwjjyqqwzqrqagd.jpg,,,,,,,,,,,,,,,
361,10,Memory,7,,,,,,,00836940307fa.jpg,,,,,,,,,,,,,,,
362,10,Memory,7,,,,,,,00730960620fa.jpg,,,,,,,,,,,,,,,
363,10,Memory,7,,,,,,,00982960627fa.jpg,,,,,,,,,,,,,,,
364,10,Memory,7,,,,,,,00638941031fa.jpg,,,,,,,,,,,,,,,
365,10,Memory,7,,,,,,,sunaizeyhvjzknwjudw.jpg,,,,,,,,,,,,,,,
366,10,Memory,7,,,,,,,00792941205fa.jpg,,,,,,,,,,,,,,,
367,10,Memory,7,,,,,,,sunacjkmnpawfzbyvae.jpg,,,,,,,,,,,,,,,
368,10,Memory,7,,,,,,,00676941121fa.jpg,,,,,,,,,,,,,,,
369,10,Memory,7,,,,,,,sunbesrwkdsffeogeqq.jpg,,,,,,,,,,,,,,,
370,10,Memory,7,,,,,,,sunaixpqndlwhwjtjek.jpg,,,,,,,,,,,,,,,
371,10,Memory,7,,,,,,,01011960627fa.jpg,,,,,,,,,,,,,,,
372,10,Memory,7,,,,,,,00559940519fa.jpg,,,,,,,,,,,,,,,
373,10,Memory,7,,,,,,,sunaafbmtoniaasysgu.jpg,,,,,,,,,,,,,,,
374,10,Memory,7,,,,,,,00860940307fa.jpg,,,,,,,,,,,,,,,
375,10,Memory,7,,,,,,,sunaatjesvdupctftmn.jpg,,,,,,,,,,,,,,,
376,10,Memory,7,,,,,,,00184940128fa.jpg,,,,,,,,,,,,,,,
377,10,Memory,7,,,,,,,suncnkvbhypnivcohyx.jpg,,,,,,,,,,,,,,,
378,10,Memory,7,,,,,,,sunadfktsqjthoglcsm.jpg,,,,,,,,,,,,,,,
379,10,Memory,7,,,,,,,sunainqelldeebvxtcz.jpg,,,,,,,,,,,,,,,
380,10,Memory,7,,,,,,,00073931230fa.jpg,,,,,,,,,,,,,,,
381,10,Memory,7,,,,,,,sunafxokyavhgptyfye.jpg,,,,,,,,,,,,,,,
382,10,Memory,7,,,,,,,sunajbwkywmsqkldfml.jpg,,,,,,,,,,,,,,,
383,10,Memory,7,,,,,,,sundahdxwmcdluscvot.jpg,,,,,,,,,,,,,,,
384,10,Memory,7,,,,,,,01010960627fa.jpg,,,,,,,,,,,,,,,
385,10,Memory,7,,,,,,,sunacdnquypmsshhsbk.jpg,,,,,,,,,,,,,,,
386,10,Memory,7,,,,,,,00866940307fa.jpg,,,,,,,,,,,,,,,
387,10,Memory,7,,,,,,,00776941205fa.jpg,,,,,,,,,,,,,,,
388,10,Memory,7,,,,,,,00908960530fa.jpg,,,,,,,,,,,,,,,
389,10,Memory,7,,,,,,,sunagsiwrmuixqgdimb.jpg,,,,,,,,,,,,,,,
390,10,Memory,7,,,,,,,00540940519fa.jpg,,,,,,,,,,,,,,,
391,10,Memory,7,,,,,,,00858940307fa.jpg,,,,,,,,,,,,,,,
392,10,Memory,7,,,,,,,00978960627fa.jpg,,,,,,,,,,,,,,,
393,10,Memory,7,,,,,,,00145931230fb.jpg,,,,,,,,,,,,,,,
394,10,Memory,7,,,,,,,sunaekgzpfilgjxpeyq.jpg,,,,,,,,,,,,,,,
395,10,Memory,7,,,,,,,sunabrjdpmoedcdjbpo.jpg,,,,,,,,,,,,,,,
396,10,Memory,7,,,,,,,sunaavtbadenwnzeutj.jpg,,,,,,,,,,,,,,,
397,10,Memory,7,,,,,,,sunadpnqovzckyikrjo.jpg,,,,,,,,,,,,,,,
398,10,Memory,7,,,,,,,00292940422fb.jpg,,,,,,,,,,,,,,,
399,10,Memory,7,,,,,,,sunbddbivbptlrlauhy.jpg,,,,,,,,,,,,,,,
