,Subject,Trial Type,Run,Cued Composite,Uncued Composite,Cued Face,Cued Place,Uncued Face,Uncued Place,Memory Image,Category,Cued Side,Cued Category,Attention Reaction Time (s),Familiarity Reaction Time (s),Familiarity Rating,Attention Level,Cue Validity,Post Invalid Cue,Pre Invalid Cue,Attention Button,Rating History,Stimulus Onset,Stimulus End,Attention Probe
60,10,Memory,1,,,,,,,00972960627fa.jpg,,,,,0.0,,,,,,,,1553710558.891859,1553710561.153305,
61,10,Memory,1,,,,,,,sunbaejotfklekvpxcz.jpg,,,,,1.326,2.0,,,,,,,1553710562.424926,1553710564.65529,
62,10,Memory,1,,,,,,,sunaddtdkycxbqlpfqa.jpg,,,,,1.541,1.0,,,,,,,1553710565.959747,1553710568.389821,
63,10,Memory,1,,,,,,,sunacjnahdmqfnjfwqx.jpg,,,,,1.568,4.0,,,,,,,1553710569.661402,1553710571.97318,
64,10,Memory,1,,,,,,,sunacxtcahkymosigud.jpg,,,,,1.525,2.0,,,,,,,1553710573.263242,1553710575.630327,
65,10,Memory,1,,,,,,,sunbvbrvgbpanfrawft.jpg,,,,,1.009,3.0,,,,,,,1553710576.930451,1553710579.147557,
66,10,Memory,1,,,,,,,sunbagfpovqwbuexqdn.jpg,,,,,1.075,1.0,,,,,,,1553710580.447884,1553710582.652559,
67,10,Memory,1,,,,,,,00799941205fa.jpg,,,,,1.651,2.0,,,,,,,1553710583.950084,1553710586.183335,
68,10,Memory,1,,,,,,,00816941205fa.jpg,,,,,1.292,3.0,,,,,,,1553710587.449097,1553710589.63182,
69,10,Memory,1,,,,,,,00922960627fa.jpg,,,,,1.483,2.0,,,,,,,1553710590.901495,1553710593.051924,
70,10,Memory,1,,,,,,,00773960620fa.jpg,,,,,0.908,2.0,,,,,,,1553710594.336752,1553710596.651531,
71,10,Memory,1,,,,,,,sunbpflsdaxnddnwcqi.jpg,,,,,0.0,,,,,,,,1553710598.053933,1553710600.387004,
72,10,Memory,1,,,,,,,00576941031fa.jpg,,,,,1.705,3.0,,,,,,,1553710601.671856,1553710603.921112,
73,10,Memory,1,,,,,,,00967960627fa.jpg,,,,,1.909,2.0,,,,,,,1553710605.206075,1553710607.372022,
74,10,Memory,1,,,,,,,00914960620fa.jpg,,,,,1.783,2.0,,,,,,,1553710608.674416,1553710610.711535,
75,10,Memory,1,,,,,,,00999960627fa.jpg,,,,,1.611,4.0,,,,,,,1553710611.991544,1553710614.639617,
76,10,Memory,1,,,,,,,00108960530fa.jpg,,,,,1.592,2.0,,,,,,,1553710615.909768,1553710618.272415,
77,10,Memory,1,,,,,,,sunaajtnvzzpsjdzres.jpg,,,,,1.758,2.0,,,,,,,1553710619.544992,1553710621.864551,
78,10,Memory,1,,,,,,,sunagutjvdvnhxejerz.jpg,,,,,0.0,,,,,,,,1553710623.128811,1553710625.430336,
79,10,Memory,1,,,,,,,00947960627fa.jpg,,,,,1.009,2.0,,,,,,,1553710626.779199,1553710628.915424,
80,10,Memory,1,,,,,,,sunafvsxtzaizojicxx.jpg,,,,,1.054,1.0,,,,,,,1553710630.197495,1553710632.450721,
81,10,Memory,1,,,,,,,00968960627fa.jpg,,,,,1.76,3.0,,,,,,,1553710633.715718,1553710636.29522,
82,10,Memory,1,,,,,,,00082931230fa.jpg,,,,,1.174,2.0,,,,,,,1553710637.668018,1553710639.787096,
83,10,Memory,1,,,,,,,sunahmhrncocyhsjpxk.jpg,,,,,1.176,1.0,,,,,,,1553710641.067959,1553710643.335587,
84,10,Memory,1,,,,,,,00835940307fa.jpg,,,,,1.556,1.0,,,,,,,1553710644.618512,1553710646.9553,
85,10,Memory,1,,,,,,,sunaijsqpvodplbwxkf.jpg,,,,,1.225,1.0,,,,,,,1553710648.219938,1553710650.423971,
86,10,Memory,1,,,,,,,sunasmmcxdddtmtazwx.jpg,,,,,1.542,2.0,,,,,,,1553710651.704631,1553710654.001254,
87,10,Memory,1,,,,,,,00825940307fa.jpg,,,,,1.615,1.0,,,,,,,1553710655.288846,1553710657.820763,
88,10,Memory,1,,,,,,,sunanainkqdvktzoxyl.jpg,,,,,1.375,1.0,,,,,,,1553710659.090138,1553710661.369019,
89,10,Memory,1,,,,,,,sunacvjlsylseoghjup.jpg,,,,,2.075,2.0,,,,,,,1553710662.675456,1553710664.903886,
90,10,Memory,1,,,,,,,00903960620fa.jpg,,,,,1.357,2.0,,,,,,,1553710666.258618,1553710668.655689,
91,10,Memory,1,,,,,,,sunahrltmuwbiehihpe.jpg,,,,,0.908,1.0,,,,,,,1553710669.94387,1553710672.109361,
92,10,Memory,1,,,,,,,00990960627fa.jpg,,,,,1.341,3.0,,,,,,,1553710673.396051,1553710675.595407,
93,10,Memory,1,,,,,,,00598941031fa.jpg,,,,,1.476,1.0,,,,,,,1553710676.896252,1553710679.168117,
94,10,Memory,1,,,,,,,sunaozisvwfbmlkfhzv.jpg,,,,,1.025,1.0,,,,,,,1553710680.447744,1553710682.665773,
95,10,Memory,1,,,,,,,sunaafvitpexrpvumsa.jpg,,,,,1.856,3.0,,,,,,,1553710683.965472,1553710686.196312,
96,10,Memory,1,,,,,,,00636941031fa.jpg,,,,,0.861,1.0,,,,,,,1553710687.481793,1553710689.745464,
97,10,Memory,1,,,,,,,sunbbfqwjpdxniyhies.jpg,,,,,0.943,1.0,,,,,,,1553710691.034646,1553710693.113867,
98,10,Memory,1,,,,,,,00562941031fa.jpg,,,,,1.457,2.0,,,,,,,1553710694.38506,1553710696.597499,
99,10,Memory,1,,,,,,,sunapqkyghktgtosuuk.jpg,,,,,1.474,1.0,,,,,,,1553710697.970535,1553710700.350171,
