,Subject,Trial Type,Run,Cued Composite,Uncued Composite,Cued Face,Cued Place,Uncued Face,Uncued Place,Memory Image,Category,Cued Side,Cued Category,Attention Reaction Time (s),Familiarity Reaction Time (s),Familiarity Rating,Attention Level,Cue Validity,Post Invalid Cue,Pre Invalid Cue,Attention Button,Rating History,Stimulus Onset,Stimulus End,Attention Probe
60,30,Memory,1,,,,,,,sunagfvluwixdsozaql.jpg,,,,,2.321,1.0,,,,,,,1540143281.996729,1540143284.565219,
61,30,Memory,1,,,,,,,sunadbhmrgrrpyzglxs.jpg,,,,,1.287,1.0,,,,,,,1540143285.948419,1540143288.515388,
62,30,Memory,1,,,,,,,00633940928fa.jpg,,,,,1.404,2.0,,,,,,,1540143289.983034,1540143292.349689,
63,30,Memory,1,,,,,,,sunanainkqdvktzoxyl.jpg,,,,,1.719,4.0,,,,,,,1540143293.751547,1540143296.168606,
64,30,Memory,1,,,,,,,sunadzuvtmtmgupotmf.jpg,,,,,1.17,1.0,,,,,,,1540143297.568135,1540143299.91962,
65,30,Memory,1,,,,,,,00071941031fa.jpg,,,,,1.038,3.0,,,,,,,1540143301.436327,1540143303.820677,
66,30,Memory,1,,,,,,,00925960627fa.jpg,,,,,0.0,,,,,,,,1540143305.220744,1540143307.755139,
67,30,Memory,1,,,,,,,sunaakxjfbrrequcjmx.jpg,,,,,1.403,2.0,,,,,,,1540143309.139776,1540143311.540357,
68,30,Memory,1,,,,,,,sunabzjxlmkwnwzimua.jpg,,,,,1.138,2.0,,,,,,,1540143312.9406,1540143315.308785,
69,30,Memory,1,,,,,,,00782941205fa.jpg,,,,,1.719,3.0,,,,,,,1540143316.657826,1540143319.025864,
70,30,Memory,1,,,,,,,sunabcuurugvxwparpk.jpg,,,,,0.951,2.0,,,,,,,1540143320.443241,1540143322.96068,
71,30,Memory,1,,,,,,,sunaaexqbtdswxrqjvz.jpg,,,,,1.354,1.0,,,,,,,1540143324.426886,1540143326.812299,
72,30,Memory,1,,,,,,,00630941031fa.jpg,,,,,1.469,3.0,,,,,,,1540143328.228066,1540143330.696936,
73,30,Memory,1,,,,,,,00648941031fa.jpg,,,,,1.419,3.0,,,,,,,1540143332.06307,1540143334.630756,
74,30,Memory,1,,,,,,,00725941201fa.jpg,,,,,1.1,2.0,,,,,,,1540143336.0484,1540143338.565618,
75,30,Memory,1,,,,,,,00125931230fa.jpg,,,,,1.255,3.0,,,,,,,1540143340.000619,1540143342.533802,
76,30,Memory,1,,,,,,,sunapqwnqzxlsfvgsjm.jpg,,,,,0.835,2.0,,,,,,,1540143343.918337,1540143346.301025,
77,30,Memory,1,,,,,,,00242940128fa.jpg,,,,,1.002,3.0,,,,,,,1540143347.733976,1540143350.085974,
78,30,Memory,1,,,,,,,00089931230fa.jpg,,,,,1.319,3.0,,,,,,,1540143351.486038,1540143353.854382,
79,30,Memory,1,,,,,,,00719960620fa.jpg,,,,,1.519,2.0,,,,,,,1540143355.287488,1540143357.705136,
80,30,Memory,1,,,,,,,sunadakkdovnuzlycvp.jpg,,,,,2.056,2.0,,,,,,,1540143359.106369,1540143361.439334,
81,30,Memory,1,,,,,,,sunaefgzwiramypjvtd.jpg,,,,,1.052,4.0,,,,,,,1540143362.890386,1540143365.407973,
82,30,Memory,1,,,,,,,sunalkiibhqpxfamlll.jpg,,,,,1.672,1.0,,,,,,,1540143366.840954,1540143369.508948,
83,30,Memory,1,,,,,,,00498960627fa.jpg,,,,,1.168,4.0,,,,,,,1540143370.892852,1540143373.394259,
84,30,Memory,1,,,,,,,00891960530fa.jpg,,,,,1.103,2.0,,,,,,,1540143374.760146,1540143377.144649,
85,30,Memory,1,,,,,,,sunabizydfotqddlnjp.jpg,,,,,1.487,2.0,,,,,,,1540143378.560884,1540143381.028624,
86,30,Memory,1,,,,,,,00262940128fa.jpg,,,,,1.152,2.0,,,,,,,1540143382.56208,1540143384.929998,
87,30,Memory,1,,,,,,,00978960627fa.jpg,,,,,2.252,3.0,,,,,,,1540143386.297902,1540143388.763946,
88,30,Memory,1,,,,,,,sunbddbivbptlrlauhy.jpg,,,,,0.0,,,,,,,,1540143390.249145,1540143392.665938,
89,30,Memory,1,,,,,,,sunadfndyrtqqiasoig.jpg,,,,,1.452,1.0,,,,,,,1540143394.117507,1540143396.61753,
90,30,Memory,1,,,,,,,00122931230fa.jpg,,,,,1.702,3.0,,,,,,,1540143398.00087,1540143400.518879,
91,30,Memory,1,,,,,,,sunaalltyvjhbzhkmvg.jpg,,,,,1.47,2.0,,,,,,,1540143401.936561,1540143404.370942,
92,30,Memory,1,,,,,,,00993960627fa.jpg,,,,,1.336,3.0,,,,,,,1540143405.821678,1540143408.23826,
93,30,Memory,1,,,,,,,00903960620fa.jpg,,,,,1.003,2.0,,,,,,,1540143409.656252,1540143412.089407,
94,30,Memory,1,,,,,,,sunaagcpoejbuzyvddd.jpg,,,,,1.736,1.0,,,,,,,1540143413.440479,1540143415.940847,
95,30,Memory,1,,,,,,,00913960530fa.jpg,,,,,0.969,1.0,,,,,,,1540143417.40747,1540143419.876075,
96,30,Memory,1,,,,,,,00772941201fa.jpg,,,,,0.92,2.0,,,,,,,1540143421.32604,1540143423.810972,
97,30,Memory,1,,,,,,,sunafpfpiiujzoesnqg.jpg,,,,,1.403,2.0,,,,,,,1540143425.277227,1540143427.693816,
98,30,Memory,1,,,,,,,sunbprywzqxjcezkbch.jpg,,,,,1.754,2.0,,,,,,,1540143429.079134,1540143431.545358,
99,30,Memory,1,,,,,,,sunaooffzffbhcpirmm.jpg,,,,,0.0,,,,,,,,1540143433.079304,1540143435.4475,
