,Subject,Trial Type,Run,Cued Composite,Uncued Composite,Cued Face,Cued Place,Uncued Face,Uncued Place,Memory Image,Category,Cued Side,Cued Category,Attention Reaction Time (s),Familiarity Reaction Time (s),Familiarity Rating,Attention Level,Cue Validity,Post Invalid Cue,Pre Invalid Cue,Attention Button,Rating History,Stimulus Onset,Stimulus End,Attention Probe
160,2,Memory,3,,,,,,,00819940307fa.jpg,,,,,1.424,2.0,,,,,,,1537987042.993102,1537987045.142222,
161,2,Memory,3,,,,,,,sunaampvucecsfbdafn.jpg,,,,,1.375,3.0,,,,,,,1537987046.443683,1537987048.557582,
162,2,Memory,3,,,,,,,sunabyfxcxhdebvdyfd.jpg,,,,,1.274,2.0,,,,,,,1537987049.828699,1537987052.048913,
163,2,Memory,3,,,,,,,sunahqldjibofgsfdgb.jpg,,,,,0.752,4.0,,,,,,,1537987053.347779,1537987055.342673,
164,2,Memory,3,,,,,,,00977960627fa.jpg,,,,,1.17,1.0,,,,,,,1537987056.631113,1537987058.744148,
165,2,Memory,3,,,,,,,sunadbdqzigzwipuipr.jpg,,,,,1.841,3.0,,,,,,,1537987060.032167,1537987062.162769,
166,2,Memory,3,,,,,,,00123931230fb.jpg,,,,,0.783,1.0,,,,,,,1537987063.450263,1537987065.512788,
167,2,Memory,3,,,,,,,00816941205fa.jpg,,,,,0.892,1.0,,,,,,,1537987066.799805,1537987068.86488,
168,2,Memory,3,,,,,,,sunbwtlihsuptkrckid.jpg,,,,,1.086,3.0,,,,,,,1537987070.168946,1537987072.220879,
169,2,Memory,3,,,,,,,00719941201fa.jpg,,,,,0.817,1.0,,,,,,,1537987073.486687,1537987075.474173,
170,2,Memory,3,,,,,,,00529940519fa.jpg,,,,,0.748,1.0,,,,,,,1537987076.737344,1537987078.750779,
171,2,Memory,3,,,,,,,sunabrwnslxalcohfre.jpg,,,,,1.391,2.0,,,,,,,1537987080.056497,1537987082.15274,
172,2,Memory,3,,,,,,,00952960627fa.jpg,,,,,0.984,1.0,,,,,,,1537987083.606894,1537987085.602347,
173,2,Memory,3,,,,,,,00822940307fa.jpg,,,,,1.324,1.0,,,,,,,1537987086.89083,1537987088.95441,
174,2,Memory,3,,,,,,,00096931230fa.jpg,,,,,1.209,1.0,,,,,,,1537987090.242516,1537987092.304896,
175,2,Memory,3,,,,,,,00296940422fa.jpg,,,,,1.086,1.0,,,,,,,1537987093.57734,1537987095.594003,
176,2,Memory,3,,,,,,,sunadvithllcgmfxsrn.jpg,,,,,2.003,3.0,,,,,,,1537987096.860175,1537987098.946619,
177,2,Memory,3,,,,,,,00773960620fa.jpg,,,,,0.807,1.0,,,,,,,1537987100.245654,1537987102.278737,
178,2,Memory,3,,,,,,,sunahmhrncocyhsjpxk.jpg,,,,,0.917,4.0,,,,,,,1537987103.563849,1537987105.597368,
179,2,Memory,3,,,,,,,00973960627fa.jpg,,,,,1.074,2.0,,,,,,,1537987106.862498,1537987108.993651,
180,2,Memory,3,,,,,,,01004960627fa.jpg,,,,,0.931,1.0,,,,,,,1537987110.265242,1537987112.347005,
181,2,Memory,3,,,,,,,sunafvsxtzaizojicxx.jpg,,,,,1.719,2.0,,,,,,,1537987113.767238,1537987115.895301,
182,2,Memory,3,,,,,,,sunacxeheuiigkcgquf.jpg,,,,,0.815,4.0,,,,,,,1537987117.183632,1537987119.287226,
183,2,Memory,3,,,,,,,00860940307fa.jpg,,,,,1.124,1.0,,,,,,,1537987120.568119,1537987122.580303,
184,2,Memory,3,,,,,,,sunacbeefkxpymwevpk.jpg,,,,,1.157,4.0,,,,,,,1537987123.871065,1537987125.931793,
185,2,Memory,3,,,,,,,00889960530fa.jpg,,,,,1.088,2.0,,,,,,,1537987127.182158,1537987129.233972,
186,2,Memory,3,,,,,,,00631940928fa.jpg,,,,,1.668,2.0,,,,,,,1537987130.521684,1537987132.601531,
187,2,Memory,3,,,,,,,sunahqrxievfeusiqlt.jpg,,,,,1.635,3.0,,,,,,,1537987133.873584,1537987136.040547,
188,2,Memory,3,,,,,,,sunaaiqiqcggrskoqgy.jpg,,,,,1.205,4.0,,,,,,,1537987137.340153,1537987139.33893,
189,2,Memory,3,,,,,,,00482940519fa.jpg,,,,,0.948,2.0,,,,,,,1537987140.675873,1537987142.724245,
190,2,Memory,3,,,,,,,00127931230fa.jpg,,,,,1.202,2.0,,,,,,,1537987144.021565,1537987146.02252,
191,2,Memory,3,,,,,,,sunbbgtoeuzierkkajt.jpg,,,,,1.102,4.0,,,,,,,1537987147.31031,1537987149.325251,
192,2,Memory,3,,,,,,,sunaizeyhvjzknwjudw.jpg,,,,,0.789,4.0,,,,,,,1537987150.594771,1537987152.644518,
193,2,Memory,3,,,,,,,00725941201fa.jpg,,,,,1.021,1.0,,,,,,,1537987153.91254,1537987155.892712,
194,2,Memory,3,,,,,,,00598940928fa.jpg,,,,,1.14,1.0,,,,,,,1537987157.180067,1537987159.282953,
195,2,Memory,3,,,,,,,sunaalcrrdbjgdztbiz.jpg,,,,,0.988,4.0,,,,,,,1537987160.582218,1537987162.610672,
196,2,Memory,3,,,,,,,sunbbxkanhzjgbwyxqs.jpg,,,,,0.884,4.0,,,,,,,1537987163.883387,1537987165.951169,
197,2,Memory,3,,,,,,,sunaefgzwiramypjvtd.jpg,,,,,0.867,4.0,,,,,,,1537987167.216993,1537987169.247167,
198,2,Memory,3,,,,,,,sunathzzbcwjykldrem.jpg,,,,,1.041,4.0,,,,,,,1537987170.534791,1537987172.571364,
199,2,Memory,3,,,,,,,sunaletopenvvozhpxc.jpg,,,,,1.482,3.0,,,,,,,1537987173.853923,1537987175.935984,
