,Subject,Trial Type,Run,Cued Composite,Uncued Composite,Cued Face,Cued Place,Uncued Face,Uncued Place,Memory Image,Category,Cued Side,Cued Category,Attention Reaction Time (s),Familiarity Reaction Time (s),Familiarity Rating,Attention Level,Cue Validity,Post Invalid Cue,Pre Invalid Cue,Attention Button,Rating History,Stimulus Onset,Stimulus End,Attention Probe
360,2,Memory,7,,,,,,,sunaakvmbftkrgqhjun.jpg,,,,,1.327,4.0,,,,,,,1537988343.938043,1537988346.102105,
361,2,Memory,7,,,,,,,00938960627fa.jpg,,,,,1.74,3.0,,,,,,,1537988347.404194,1537988349.400909,
362,2,Memory,7,,,,,,,00070940307fa.jpg,,,,,1.248,1.0,,,,,,,1537988350.705478,1537988352.684825,
363,2,Memory,7,,,,,,,00791941205fa.jpg,,,,,1.355,1.0,,,,,,,1537988353.973879,1537988355.99044,
364,2,Memory,7,,,,,,,sunadfktsqjthoglcsm.jpg,,,,,1.291,1.0,,,,,,,1537988357.257764,1537988359.305188,
365,2,Memory,7,,,,,,,00214940128fa.jpg,,,,,1.541,2.0,,,,,,,1537988360.575272,1537988362.687882,
366,2,Memory,7,,,,,,,sunaajpqmulidejvjsr.jpg,,,,,0.0,,,,,,,,1537988363.961277,1537988366.173154,
367,2,Memory,7,,,,,,,00098931230fa.jpg,,,,,1.248,4.0,,,,,,,1537988367.494522,1537988369.53252,
368,2,Memory,7,,,,,,,00910960530fa.jpg,,,,,1.353,2.0,,,,,,,1537988370.778757,1537988372.824883,
369,2,Memory,7,,,,,,,sunaaeplwsfslcbtojr.jpg,,,,,1.641,2.0,,,,,,,1537988374.129878,1537988376.159079,
370,2,Memory,7,,,,,,,00288940422fa.jpg,,,,,1.483,2.0,,,,,,,1537988377.46425,1537988379.545216,
371,2,Memory,7,,,,,,,sunagrmyoovzukhxmlo.jpg,,,,,1.124,1.0,,,,,,,1537988380.8322,1537988382.851605,
372,2,Memory,7,,,,,,,sunaduslxfzlbxlllnz.jpg,,,,,1.558,3.0,,,,,,,1537988384.133272,1537988386.148903,
373,2,Memory,7,,,,,,,sunabbafjowbzcvbucc.jpg,,,,,0.932,3.0,,,,,,,1537988387.416058,1537988389.446858,
374,2,Memory,7,,,,,,,00265940128fb.jpg,,,,,1.499,1.0,,,,,,,1537988390.734906,1537988392.839558,
375,2,Memory,7,,,,,,,sunaccdtpgenvcbcbcf.jpg,,,,,1.35,3.0,,,,,,,1537988394.104081,1537988396.124011,
376,2,Memory,7,,,,,,,sunbbfqwjpdxniyhies.jpg,,,,,1.041,4.0,,,,,,,1537988397.415688,1537988399.450257,
377,2,Memory,7,,,,,,,sunacepzfrmtkiqonpy.jpg,,,,,1.44,1.0,,,,,,,1537988400.721511,1537988402.717958,
378,2,Memory,7,,,,,,,sunaofikylqtxphvdem.jpg,,,,,1.891,1.0,,,,,,,1537988404.007095,1537988406.051958,
379,2,Memory,7,,,,,,,00119931230fb.jpg,,,,,1.726,3.0,,,,,,,1537988407.339887,1537988409.405743,
380,2,Memory,7,,,,,,,sunacvbrcejzwmcgnoq.jpg,,,,,1.286,4.0,,,,,,,1537988410.691949,1537988412.671006,
381,2,Memory,7,,,,,,,sunabppokiyglaxpcha.jpg,,,,,1.865,1.0,,,,,,,1537988413.921752,1537988415.945794,
382,2,Memory,7,,,,,,,sunabkmdplkdbvxriff.jpg,,,,,1.688,1.0,,,,,,,1537988417.227431,1537988419.347336,
383,2,Memory,7,,,,,,,00532960627fa.jpg,,,,,1.341,1.0,,,,,,,1537988420.628553,1537988422.707539,
384,2,Memory,7,,,,,,,sunbbhqyyzmsxhsbjmp.jpg,,,,,1.332,4.0,,,,,,,1537988423.979902,1537988425.978765,
385,2,Memory,7,,,,,,,00543940519fa.jpg,,,,,1.742,1.0,,,,,,,1537988427.241893,1537988429.398247,
386,2,Memory,7,,,,,,,00919960620fa.jpg,,,,,1.254,2.0,,,,,,,1537988430.681192,1537988432.727976,
387,2,Memory,7,,,,,,,00750941201fa.jpg,,,,,1.209,2.0,,,,,,,1537988433.999583,1537988436.099467,
388,2,Memory,7,,,,,,,00976960627fa.jpg,,,,,1.34,3.0,,,,,,,1537988437.366608,1537988439.414387,
389,2,Memory,7,,,,,,,sunagjzcrjvmxzqzljx.jpg,,,,,0.801,4.0,,,,,,,1537988440.701997,1537988442.704507,
390,2,Memory,7,,,,,,,00638941031fa.jpg,,,,,1.12,1.0,,,,,,,1537988443.987666,1537988446.040055,
391,2,Memory,7,,,,,,,00705960530fa.jpg,,,,,1.282,4.0,,,,,,,1537988447.320027,1537988449.308163,
392,2,Memory,7,,,,,,,00784941205fb.jpg,,,,,1.102,1.0,,,,,,,1537988450.60531,1537988452.639444,
393,2,Memory,7,,,,,,,00574940928fa.jpg,,,,,1.067,1.0,,,,,,,1537988453.923586,1537988455.939394,
394,2,Memory,7,,,,,,,sunaedtgwjvvziytspa.jpg,,,,,1.979,2.0,,,,,,,1537988457.218401,1537988459.253185,
395,2,Memory,7,,,,,,,00972960627fa.jpg,,,,,1.03,1.0,,,,,,,1537988460.524971,1537988462.537873,
396,2,Memory,7,,,,,,,sunaqyylsngywqzwfmx.jpg,,,,,1.226,1.0,,,,,,,1537988463.786944,1537988465.889497,
397,2,Memory,7,,,,,,,sunapmfmzadmosuogaz.jpg,,,,,1.575,1.0,,,,,,,1537988467.161369,1537988469.357328,
398,2,Memory,7,,,,,,,00723941201fa.jpg,,,,,1.465,1.0,,,,,,,1537988470.611294,1537988472.623932,
399,2,Memory,7,,,,,,,sunaeuzwggvibufclwf.jpg,,,,,1.302,2.0,,,,,,,1537988473.87957,1537988475.859269,
