,Subject,Trial Type,Run,Cued Composite,Uncued Composite,Cued Face,Cued Place,Uncued Face,Uncued Place,Memory Image,Category,Cued Side,Cued Category,Attention Response Time (s),Familiarity Reaction Time (s),Familiarity Rating,Attention Level,Cue Validity,Post Invalid Cue,Pre Invalid Cue,Attention Button,Rating History,Stimulus Onset,Stimulus End,Attention Probe
0,29,Presentation,0,00071941031fa_sunaaexqbtdswxrqjvz.jpg,00910960530fa_sunaofikylqtxphvdem.jpg,,,,,,,<,Place,,,,,0,,,,,,,o
1,29,Presentation,0,00149931230fa_sunaauglwmctnkxyird.jpg,00140931230fb_sunaapllqyqlykszopd.jpg,,,,,,,>,Place,,,,,1,,,,,,,x
2,29,Presentation,0,00752960620fa_sunafbwnojpqeyzssoe.jpg,00887960530_sunalcrtwiycqobgelp.jpg,,,,,,,<,Place,,,,,1,,,,,,,o
3,29,Presentation,0,00901960530fa_sunammbnoambmhdxdwd.jpg,00982960627fa_sunbesrwkdsffeogeqq.jpg,,,,,,,<,Face,,,,,1,,,,,,,x
4,29,Presentation,0,00889960530fa_sunaletopenvvozhpxc.jpg,00783941205fa_sunagjeesomrwjsfqie.jpg,,,,,,,<,Place,,,,,1,,,,,,,o
5,29,Presentation,0,00144931230fb_sunaathajvxrgptwhoj.jpg,00576941031fa_sunacvjlsylseoghjup.jpg,,,,,,,>,Face,,,,,1,,,,,,,o
6,29,Presentation,0,00905960530fa_sunanmoqeyprjjjfxjt.jpg,00265940128fb_sunabkmdplkdbvxriff.jpg,,,,,,,>,Place,,,,,0,,,,,,,x
7,29,Presentation,0,00270940422fb_sunabllobxadqcyttej.jpg,00746941201fa_sunaetydippjxikifsb.jpg,,,,,,,>,Face,,,,,1,,,,,,,o
8,29,Presentation,0,00953960627fa_sunatstrpjxhvtbaczf.jpg,00938960627fa_sunaqyylsngywqzwfmx.jpg,,,,,,,<,Face,,,,,1,,,,,,,x
9,29,Presentation,0,00115931230fa_sunaakmxzhuceuiryah.jpg,00959960627fa_sunavxokzybtomhbmvm.jpg,,,,,,,>,Face,,,,,1,,,,,,,x
10,29,Memory,0,,,,,,,sunabppokiyglaxpcha.jpg,,,,,,,,,,,,,,,
11,29,Memory,0,,,,,,,00746941201fa.jpg,,,,,,,,,,,,,,,
12,29,Memory,0,,,,,,,sunantryfbloeaomfta.jpg,,,,,,,,,,,,,,,
13,29,Memory,0,,,,,,,00288940422fa.jpg,,,,,,,,,,,,,,,
14,29,Memory,0,,,,,,,sunavxokzybtomhbmvm.jpg,,,,,,,,,,,,,,,
15,29,Memory,0,,,,,,,00115931230fa.jpg,,,,,,,,,,,,,,,
16,29,Memory,0,,,,,,,00576941031fa.jpg,,,,,,,,,,,,,,,
17,29,Memory,0,,,,,,,00294940422fb.jpg,,,,,,,,,,,,,,,
18,29,Memory,0,,,,,,,sunaetydippjxikifsb.jpg,,,,,,,,,,,,,,,
19,29,Memory,0,,,,,,,00149931230fa.jpg,,,,,,,,,,,,,,,
20,29,Memory,0,,,,,,,00140931230fb.jpg,,,,,,,,,,,,,,,
21,29,Memory,0,,,,,,,sunbxzweleltykebgan.jpg,,,,,,,,,,,,,,,
22,29,Memory,0,,,,,,,sunanmoqeyprjjjfxjt.jpg,,,,,,,,,,,,,,,
23,29,Memory,0,,,,,,,00906960530fa.jpg,,,,,,,,,,,,,,,
24,29,Memory,0,,,,,,,00971960627fa.jpg,,,,,,,,,,,,,,,
25,29,Memory,0,,,,,,,sunacvjlsylseoghjup.jpg,,,,,,,,,,,,,,,
26,29,Memory,0,,,,,,,00990960627fa.jpg,,,,,,,,,,,,,,,
27,29,Memory,0,,,,,,,00889960530fa.jpg,,,,,,,,,,,,,,,
28,29,Memory,0,,,,,,,00071941031fa.jpg,,,,,,,,,,,,,,,
29,29,Memory,0,,,,,,,sunaapllqyqlykszopd.jpg,,,,,,,,,,,,,,,
30,29,Memory,0,,,,,,,00963960627fa.jpg,,,,,,,,,,,,,,,
31,29,Memory,0,,,,,,,sunaaexqbtdswxrqjvz.jpg,,,,,,,,,,,,,,,
32,29,Memory,0,,,,,,,sunayaepykrqvenaqqy.jpg,,,,,,,,,,,,,,,
33,29,Memory,0,,,,,,,sunafcofuuzebuadceo.jpg,,,,,,,,,,,,,,,
34,29,Memory,0,,,,,,,sunaakmxzhuceuiryah.jpg,,,,,,,,,,,,,,,
35,29,Memory,0,,,,,,,00730960620fa.jpg,,,,,,,,,,,,,,,
36,29,Memory,0,,,,,,,sunabrlndkruqokhury.jpg,,,,,,,,,,,,,,,
37,29,Memory,0,,,,,,,00783941205fa.jpg,,,,,,,,,,,,,,,
38,29,Memory,0,,,,,,,00959960627fa.jpg,,,,,,,,,,,,,,,
39,29,Memory,0,,,,,,,sunagjeesomrwjsfqie.jpg,,,,,,,,,,,,,,,
40,29,Memory,0,,,,,,,sunbpflsdaxnddnwcqi.jpg,,,,,,,,,,,,,,,
41,29,Memory,0,,,,,,,00753941201fa.jpg,,,,,,,,,,,,,,,
42,29,Memory,0,,,,,,,01009960627fa.jpg,,,,,,,,,,,,,,,
43,29,Memory,0,,,,,,,sunaawqdbpihmlbwyyn.jpg,,,,,,,,,,,,,,,
44,29,Memory,0,,,,,,,sunaletopenvvozhpxc.jpg,,,,,,,,,,,,,,,
45,29,Memory,0,,,,,,,sunaekgzpfilgjxpeyq.jpg,,,,,,,,,,,,,,,
46,29,Memory,0,,,,,,,sunbbegcweqnetpdlrh.jpg,,,,,,,,,,,,,,,
47,29,Memory,0,,,,,,,sunaauglwmctnkxyird.jpg,,,,,,,,,,,,,,,
48,29,Memory,0,,,,,,,00185940422fb.jpg,,,,,,,,,,,,,,,
49,29,Memory,0,,,,,,,00905960530fa.jpg,,,,,,,,,,,,,,,
50,29,Presentation,1,00851940307fa_sunaivflshbyfrfzhqb.jpg,00262940128fa_sunabizydfotqddlnjp.jpg,,,,,,,<,Place,,,,,1,,,,,,,x
51,29,Presentation,1,00796941205fa_sunaguchqqnrtodtezq.jpg,00675941121fa_sunadoxcchtmsxewsau.jpg,,,,,,,>,Face,,,,,1,,,,,,,x
52,29,Presentation,1,00936960627fa_sunaqgjuuwvdcyiccjt.jpg,00705960530fa_sunaduslxfzlbxlllnz.jpg,,,,,,,>,Place,,,,,1,,,,,,,x
53,29,Presentation,1,00805941205fa_sunagwzdbtlixdhgolm.jpg,00839940307fa_sunaipyohrqlwngaqif.jpg,,,,,,,<,Face,,,,,1,,,,,,,x
54,29,Presentation,1,00498960627fa_sunabzjxlmkwnwzimua.jpg,00574940928fa_sunacvbrcejzwmcgnoq.jpg,,,,,,,>,Face,,,,,1,,,,,,,o
55,29,Presentation,1,00822940307fa_sunahqrxievfeusiqlt.jpg,00931960627fa_sunaptrqvaooxfvktvw.jpg,,,,,,,<,Face,,,,,1,,,,,,,o
56,29,Presentation,1,01002960627fb_sunbwaafjdebjzttuvq.jpg,00096931230fa_sunaaiqiqcggrskoqgy.jpg,,,,,,,<,Place,,,,,1,,,,,,,o
57,29,Presentation,1,00811960530fa_sunahedfrhtcwpneund.jpg,00543940519fa_sunacepzfrmtkiqonpy.jpg,,,,,,,>,Place,,,,,1,,,,,,,o
58,29,Presentation,1,00961960627fa_sunawotxrevnqvamsfp.jpg,00131931230fb_sunaangbuylfvckqqoo.jpg,,,,,,,<,Face,,,,,1,,,,,,,o
59,29,Presentation,1,00745941205fa_sunaeouogqolxvggaoq.jpg,00862940307fa_sunaizgnnplsvajzhkc.jpg,,,,,,,>,Place,,,,,0,,,,,,,x
60,29,Memory,1,,,,,,,sunbtpilbhhbmhmeuzq.jpg,,,,,,,,,,,,,,,
61,29,Memory,1,,,,,,,00162931230fb.jpg,,,,,,,,,,,,,,,
62,29,Memory,1,,,,,,,00705960530fa.jpg,,,,,,,,,,,,,,,
63,29,Memory,1,,,,,,,00839940307fa.jpg,,,,,,,,,,,,,,,
64,29,Memory,1,,,,,,,00811960530fa.jpg,,,,,,,,,,,,,,,
65,29,Memory,1,,,,,,,sunaipyohrqlwngaqif.jpg,,,,,,,,,,,,,,,
66,29,Memory,1,,,,,,,sunafxokyavhgptyfye.jpg,,,,,,,,,,,,,,,
67,29,Memory,1,,,,,,,sunadoxcchtmsxewsau.jpg,,,,,,,,,,,,,,,
68,29,Memory,1,,,,,,,00208940128fa.jpg,,,,,,,,,,,,,,,
69,29,Memory,1,,,,,,,sunabzjxlmkwnwzimua.jpg,,,,,,,,,,,,,,,
70,29,Memory,1,,,,,,,00851940307fa.jpg,,,,,,,,,,,,,,,
71,29,Memory,1,,,,,,,00915960620fa.jpg,,,,,,,,,,,,,,,
72,29,Memory,1,,,,,,,sunadochqcucscehsgk.jpg,,,,,,,,,,,,,,,
73,29,Memory,1,,,,,,,sunagwzdbtlixdhgolm.jpg,,,,,,,,,,,,,,,
74,29,Memory,1,,,,,,,sunaazzyhbvqjpmazjq.jpg,,,,,,,,,,,,,,,
75,29,Memory,1,,,,,,,sunaivflshbyfrfzhqb.jpg,,,,,,,,,,,,,,,
76,29,Memory,1,,,,,,,sunaizgnnplsvajzhkc.jpg,,,,,,,,,,,,,,,
77,29,Memory,1,,,,,,,00675941121fa.jpg,,,,,,,,,,,,,,,
78,29,Memory,1,,,,,,,01007960627fa.jpg,,,,,,,,,,,,,,,
79,29,Memory,1,,,,,,,00498960627fa.jpg,,,,,,,,,,,,,,,
80,29,Memory,1,,,,,,,00961960627fa.jpg,,,,,,,,,,,,,,,
81,29,Memory,1,,,,,,,sunawotxrevnqvamsfp.jpg,,,,,,,,,,,,,,,
82,29,Memory,1,,,,,,,sunaavjinpnkappuonm.jpg,,,,,,,,,,,,,,,
83,29,Memory,1,,,,,,,00997960627fa.jpg,,,,,,,,,,,,,,,
84,29,Memory,1,,,,,,,00862940307fa.jpg,,,,,,,,,,,,,,,
85,29,Memory,1,,,,,,,sunaduslxfzlbxlllnz.jpg,,,,,,,,,,,,,,,
86,29,Memory,1,,,,,,,00670941121fa.jpg,,,,,,,,,,,,,,,
87,29,Memory,1,,,,,,,sunabxmguapjekttvwm.jpg,,,,,,,,,,,,,,,
88,29,Memory,1,,,,,,,00969960627fa.jpg,,,,,,,,,,,,,,,
89,29,Memory,1,,,,,,,00931960627fa.jpg,,,,,,,,,,,,,,,
90,29,Memory,1,,,,,,,00805941205fa.jpg,,,,,,,,,,,,,,,
91,29,Memory,1,,,,,,,sunapileznnbbmrwoei.jpg,,,,,,,,,,,,,,,
92,29,Memory,1,,,,,,,sunapqkyghktgtosuuk.jpg,,,,,,,,,,,,,,,
93,29,Memory,1,,,,,,,00922960627fa.jpg,,,,,,,,,,,,,,,
94,29,Memory,1,,,,,,,00316940422fa.jpg,,,,,,,,,,,,,,,
95,29,Memory,1,,,,,,,sunahedfrhtcwpneund.jpg,,,,,,,,,,,,,,,
96,29,Memory,1,,,,,,,sunbxarcshsnqsefemx.jpg,,,,,,,,,,,,,,,
97,29,Memory,1,,,,,,,00776941205fa.jpg,,,,,,,,,,,,,,,
98,29,Memory,1,,,,,,,sunaptrqvaooxfvktvw.jpg,,,,,,,,,,,,,,,
99,29,Memory,1,,,,,,,sunbaoizrfijvhpnnjn.jpg,,,,,,,,,,,,,,,
100,29,Presentation,2,00911960530fa_sunaooaqzputrowwbsw.jpg,00634940928fa_sunadcphrizvfpljiqt.jpg,,,,,,,<,Place,,,,,1,,,,,,,x
101,29,Presentation,2,00479940519fa_sunabxsbfwjccqxxzxq.jpg,01003960627fb_sunbwdrdvsweerwsdrj.jpg,,,,,,,>,Face,,,,,1,,,,,,,x
102,29,Presentation,2,00719941201fa_sunadvithllcgmfxsrn.jpg,00884960530fa_sunakodkcslgqhqlgwl.jpg,,,,,,,>,Place,,,,,0,,,,,,,x
103,29,Presentation,2,00815941205fa_sunahiphsekjihkafsl.jpg,00841940307fa_sunaisiwfgppimtnmxl.jpg,,,,,,,<,Place,,,,,1,,,,,,,o
104,29,Presentation,2,00742941201fa_sunaenwuebvlpdmntju.jpg,00116931230fa_sunaakqepfoeqomfgxf.jpg,,,,,,,<,Face,,,,,1,,,,,,,x
105,29,Presentation,2,00727941205fa_sunaeisnjeetzmkbuad.jpg,00581940928fa_sunacvzhvcksnwqcqbw.jpg,,,,,,,>,Place,,,,,1,,,,,,,x
106,29,Presentation,2,01005960627fa_sunbwyuesflwdpqtgoy.jpg,00129931230fb_sunaamsdyakblkfoydx.jpg,,,,,,,<,Face,,,,,1,,,,,,,x
107,29,Presentation,2,00290940422fa_sunabqowuarvqqcnipn.jpg,00676941121fa_sunadpnqovzckyikrjo.jpg,,,,,,,>,Place,,,,,1,,,,,,,o
108,29,Presentation,2,00788941205fa_sunagountlxpzkytsmp.jpg,00958960627fa_sunavspxmxubqaeidjt.jpg,,,,,,,>,Face,,,,,1,,,,,,,o
109,29,Presentation,2,00314940422fa_sunabwmcbaxwioksdgw.jpg,00908960530fa_sunanwjjyqqwzqrqagd.jpg,,,,,,,<,Face,,,,,1,,,,,,,o
110,29,Memory,2,,,,,,,sunaemcowdozyphwknd.jpg,,,,,,,,,,,,,,,
111,29,Memory,2,,,,,,,sunabqowuarvqqcnipn.jpg,,,,,,,,,,,,,,,
112,29,Memory,2,,,,,,,sunaglqunwuycxydmyu.jpg,,,,,,,,,,,,,,,
113,29,Memory,2,,,,,,,sunaooaqzputrowwbsw.jpg,,,,,,,,,,,,,,,
114,29,Memory,2,,,,,,,00993960627fa.jpg,,,,,,,,,,,,,,,
115,29,Memory,2,,,,,,,00742941201fa.jpg,,,,,,,,,,,,,,,
116,29,Memory,2,,,,,,,00810941205fa.jpg,,,,,,,,,,,,,,,
117,29,Memory,2,,,,,,,sunadcphrizvfpljiqt.jpg,,,,,,,,,,,,,,,
118,29,Memory,2,,,,,,,00741941201fa.jpg,,,,,,,,,,,,,,,
119,29,Memory,2,,,,,,,sunaecpkgfewqqreqwe.jpg,,,,,,,,,,,,,,,
120,29,Memory,2,,,,,,,sunagtqhhwxjeuxdebe.jpg,,,,,,,,,,,,,,,
121,29,Memory,2,,,,,,,00884960530fa.jpg,,,,,,,,,,,,,,,
122,29,Memory,2,,,,,,,sunaeisnjeetzmkbuad.jpg,,,,,,,,,,,,,,,
123,29,Memory,2,,,,,,,00815941205fa.jpg,,,,,,,,,,,,,,,
124,29,Memory,2,,,,,,,00081941031fa.jpg,,,,,,,,,,,,,,,
125,29,Memory,2,,,,,,,00794960620fa.jpg,,,,,,,,,,,,,,,
126,29,Memory,2,,,,,,,00787960620fa.jpg,,,,,,,,,,,,,,,
127,29,Memory,2,,,,,,,00841940307fa.jpg,,,,,,,,,,,,,,,
128,29,Memory,2,,,,,,,sunahiphsekjihkafsl.jpg,,,,,,,,,,,,,,,
129,29,Memory,2,,,,,,,sunbprywzqxjcezkbch.jpg,,,,,,,,,,,,,,,
130,29,Memory,2,,,,,,,00785941205fa.jpg,,,,,,,,,,,,,,,
131,29,Memory,2,,,,,,,sunagufzbeteqdjxais.jpg,,,,,,,,,,,,,,,
132,29,Memory,2,,,,,,,00762941201fa.jpg,,,,,,,,,,,,,,,
133,29,Memory,2,,,,,,,sunagoufulkpsxrmklt.jpg,,,,,,,,,,,,,,,
134,29,Memory,2,,,,,,,00581940928fa.jpg,,,,,,,,,,,,,,,
135,29,Memory,2,,,,,,,sunafgzgbisbopcyslr.jpg,,,,,,,,,,,,,,,
136,29,Memory,2,,,,,,,00676941121fa.jpg,,,,,,,,,,,,,,,
137,29,Memory,2,,,,,,,sunacvzhvcksnwqcqbw.jpg,,,,,,,,,,,,,,,
138,29,Memory,2,,,,,,,sunaisiwfgppimtnmxl.jpg,,,,,,,,,,,,,,,
139,29,Memory,2,,,,,,,00290940422fa.jpg,,,,,,,,,,,,,,,
140,29,Memory,2,,,,,,,00720960620fa.jpg,,,,,,,,,,,,,,,
141,29,Memory,2,,,,,,,sunaaftlyfudyzuhqzf.jpg,,,,,,,,,,,,,,,
142,29,Memory,2,,,,,,,00911960530fa.jpg,,,,,,,,,,,,,,,
143,29,Memory,2,,,,,,,00797960620fa.jpg,,,,,,,,,,,,,,,
144,29,Memory,2,,,,,,,00727941205fa.jpg,,,,,,,,,,,,,,,
145,29,Memory,2,,,,,,,sunadpnqovzckyikrjo.jpg,,,,,,,,,,,,,,,
146,29,Memory,2,,,,,,,sunaenwuebvlpdmntju.jpg,,,,,,,,,,,,,,,
147,29,Memory,2,,,,,,,00634940928fa.jpg,,,,,,,,,,,,,,,
148,29,Memory,2,,,,,,,sunahctntqrunhdxhtb.jpg,,,,,,,,,,,,,,,
149,29,Memory,2,,,,,,,sunakodkcslgqhqlgwl.jpg,,,,,,,,,,,,,,,
150,29,Presentation,3,00158931230fb_sunaavchcbptaerhcfy.jpg,00779941205fa_sunagdzlvkqtpnfxfcg.jpg,,,,,,,>,Face,,,,,1,,,,,,,x
151,29,Presentation,3,00146960620fb_sunaatpeezlljqaxlhj.jpg,00818940307fa_sunahpblecxtmuzkmxb.jpg,,,,,,,>,Place,,,,,1,,,,,,,x
152,29,Presentation,3,00988960627fa_sunbmaiocftdtvnzgap.jpg,00069931230fb_sunaaeowapdkwzqpgqr.jpg,,,,,,,<,Place,,,,,1,,,,,,,o
153,29,Presentation,3,00193940928fa_sunaaxjpzcnxligjtjq.jpg,00198940128fb_sunaazezcsunmhttzxz.jpg,,,,,,,>,Face,,,,,1,,,,,,,o
154,29,Presentation,3,00799941205fa_sunagutjvdvnhxejerz.jpg,00984960627fa_sunbfzchmomnvzhbxdg.jpg,,,,,,,>,Place,,,,,1,,,,,,,o
155,29,Presentation,3,01207940128fa_sundbixjudsgeuuehrn.jpg,00194940128fb_sunaayehfdqcyxggsej.jpg,,,,,,,<,Face,,,,,1,,,,,,,x
156,29,Presentation,3,00780960530fa_sunagetqixeypsysbpn.jpg,00967960627fa_sunbaejotfklekvpxcz.jpg,,,,,,,<,Place,,,,,1,,,,,,,o
157,29,Presentation,3,00630941031fa_sunadakkdovnuzlycvp.jpg,00123931230fb_sunaalcrrdbjgdztbiz.jpg,,,,,,,>,Face,,,,,1,,,,,,,x
158,29,Presentation,3,00647941031fa_sunadflbrkckmepztql.jpg,00775941205fa_sunafvwfsmqkjrutjta.jpg,,,,,,,<,Face,,,,,1,,,,,,,o
159,29,Presentation,3,00763941205fa_sunafhmnhsdurlvddpw.jpg,00260940128fa_sunabgfhvifeijihhjw.jpg,,,,,,,<,Place,,,,,1,,,,,,,x
160,29,Memory,3,,,,,,,sunadflbrkckmepztql.jpg,,,,,,,,,,,,,,,
161,29,Memory,3,,,,,,,00825940307fa.jpg,,,,,,,,,,,,,,,
162,29,Memory,3,,,,,,,sunaatpeezlljqaxlhj.jpg,,,,,,,,,,,,,,,
163,29,Memory,3,,,,,,,sunbmaiocftdtvnzgap.jpg,,,,,,,,,,,,,,,
164,29,Memory,3,,,,,,,sunaafbmtoniaasysgu.jpg,,,,,,,,,,,,,,,
165,29,Memory,3,,,,,,,00123931230fb.jpg,,,,,,,,,,,,,,,
166,29,Memory,3,,,,,,,00638941031fa.jpg,,,,,,,,,,,,,,,
167,29,Memory,3,,,,,,,sunadfktsqjthoglcsm.jpg,,,,,,,,,,,,,,,
168,29,Memory,3,,,,,,,sunaiozxhxgtfrmoagh.jpg,,,,,,,,,,,,,,,
169,29,Memory,3,,,,,,,sunadtlxenqqxsyjvix.jpg,,,,,,,,,,,,,,,
170,29,Memory,3,,,,,,,sundbixjudsgeuuehrn.jpg,,,,,,,,,,,,,,,
171,29,Memory,3,,,,,,,00838940307fa.jpg,,,,,,,,,,,,,,,
172,29,Memory,3,,,,,,,sunbaejotfklekvpxcz.jpg,,,,,,,,,,,,,,,
173,29,Memory,3,,,,,,,01207940128fa.jpg,,,,,,,,,,,,,,,
174,29,Memory,3,,,,,,,00967960627fa.jpg,,,,,,,,,,,,,,,
175,29,Memory,3,,,,,,,00554940519fa.jpg,,,,,,,,,,,,,,,
176,29,Memory,3,,,,,,,00988960627fa.jpg,,,,,,,,,,,,,,,
177,29,Memory,3,,,,,,,sunaalcrrdbjgdztbiz.jpg,,,,,,,,,,,,,,,
178,29,Memory,3,,,,,,,00854940307fa.jpg,,,,,,,,,,,,,,,
179,29,Memory,3,,,,,,,sunabgfhvifeijihhjw.jpg,,,,,,,,,,,,,,,
180,29,Memory,3,,,,,,,sunahpblecxtmuzkmxb.jpg,,,,,,,,,,,,,,,
181,29,Memory,3,,,,,,,00647941031fa.jpg,,,,,,,,,,,,,,,
182,29,Memory,3,,,,,,,00260940128fa.jpg,,,,,,,,,,,,,,,
183,29,Memory,3,,,,,,,sunbbfqwjpdxniyhies.jpg,,,,,,,,,,,,,,,
184,29,Memory,3,,,,,,,sunaiwduelojtwaqeyh.jpg,,,,,,,,,,,,,,,
185,29,Memory,3,,,,,,,00818940307fa.jpg,,,,,,,,,,,,,,,
186,29,Memory,3,,,,,,,sunagetqixeypsysbpn.jpg,,,,,,,,,,,,,,,
187,29,Memory,3,,,,,,,00972960627fa.jpg,,,,,,,,,,,,,,,
188,29,Memory,3,,,,,,,00780960530fa.jpg,,,,,,,,,,,,,,,
189,29,Memory,3,,,,,,,sunahrltmuwbiehihpe.jpg,,,,,,,,,,,,,,,
190,29,Memory,3,,,,,,,00146960620fb.jpg,,,,,,,,,,,,,,,
191,29,Memory,3,,,,,,,sunafowswglhxcsufpo.jpg,,,,,,,,,,,,,,,
192,29,Memory,3,,,,,,,00073931230fa.jpg,,,,,,,,,,,,,,,
193,29,Memory,3,,,,,,,00705941205fa.jpg,,,,,,,,,,,,,,,
194,29,Memory,3,,,,,,,sunacfdkbsrughwqwtt.jpg,,,,,,,,,,,,,,,
195,29,Memory,3,,,,,,,00267940128fb.jpg,,,,,,,,,,,,,,,
196,29,Memory,3,,,,,,,00984960627fa.jpg,,,,,,,,,,,,,,,
197,29,Memory,3,,,,,,,sunbfzchmomnvzhbxdg.jpg,,,,,,,,,,,,,,,
198,29,Memory,3,,,,,,,sunablfqiwfqomjarht.jpg,,,,,,,,,,,,,,,
199,29,Memory,3,,,,,,,00771941205fa.jpg,,,,,,,,,,,,,,,
200,29,Presentation,4,00772941201fa_sunafpfpiiujzoesnqg.jpg,00080931230fb_sunaafjszryxyavjzln.jpg,,,,,,,>,Place,,,,,0,,,,,,,o
201,29,Presentation,4,00955960627fb_sunauburywlkjszngcq.jpg,00221940128fa_sunabcfpwlpolnutyju.jpg,,,,,,,<,Place,,,,,1,,,,,,,x
202,29,Presentation,4,00909960530_sunaobtizabegtwfwul.jpg,00620940928fa_sunacypmnujalygkunp.jpg,,,,,,,>,Face,,,,,1,,,,,,,o
203,29,Presentation,4,00239940128fa_sunabctlikybqabezjv.jpg,00090931230fa_sunaahedjlmtqekgyvj.jpg,,,,,,,<,Place,,,,,1,,,,,,,o
204,29,Presentation,4,00878960530fa_sunakgbnzxmfohgehnu.jpg,00630940928fa_sunaczwgyukesaajxnx.jpg,,,,,,,<,Face,,,,,1,,,,,,,o
205,29,Presentation,4,00895960530fa_sunamczizlzavhzhpay.jpg,00893960530Fa_sunaloffvbvysigxent.jpg,,,,,,,>,Place,,,,,1,,,,,,,x
206,29,Presentation,4,00271940422fa_sunabmbnddafmywtjjj.jpg,00507940519fa_sunacacflqoyxhsqzhe.jpg,,,,,,,<,Face,,,,,1,,,,,,,x
207,29,Presentation,4,00768941205fa_sunafkmnlytenlsywia.jpg,01000960627fa_sunbvzmgrdvaakxusbu.jpg,,,,,,,>,Face,,,,,1,,,,,,,o
208,29,Presentation,4,00089931230fa_sunaagcpoejbuzyvddd.jpg,00264940128fb_sunabjzyxcjnmztdonj.jpg,,,,,,,<,Face,,,,,1,,,,,,,o
209,29,Presentation,4,00859940307fa_sunaiycurtqsfkvcaso.jpg,00749941201fa_sunaeuvjbmdpknaqqaj.jpg,,,,,,,>,Place,,,,,1,,,,,,,o
210,29,Memory,4,,,,,,,00507940519fa.jpg,,,,,,,,,,,,,,,
211,29,Memory,4,,,,,,,00296940422fa.jpg,,,,,,,,,,,,,,,
212,29,Memory,4,,,,,,,00239940128fa.jpg,,,,,,,,,,,,,,,
213,29,Memory,4,,,,,,,sunaygrtwrwfezqjizr.jpg,,,,,,,,,,,,,,,
214,29,Memory,4,,,,,,,sunaczwgyukesaajxnx.jpg,,,,,,,,,,,,,,,
215,29,Memory,4,,,,,,,00787941205fa.jpg,,,,,,,,,,,,,,,
216,29,Memory,4,,,,,,,00878960530fa.jpg,,,,,,,,,,,,,,,
217,29,Memory,4,,,,,,,00877960530fa.jpg,,,,,,,,,,,,,,,
218,29,Memory,4,,,,,,,sunabrwnslxalcohfre.jpg,,,,,,,,,,,,,,,
219,29,Memory,4,,,,,,,sunabctlikybqabezjv.jpg,,,,,,,,,,,,,,,
220,29,Memory,4,,,,,,,sunajawzbrlrwafowen.jpg,,,,,,,,,,,,,,,
221,29,Memory,4,,,,,,,00630940928fa.jpg,,,,,,,,,,,,,,,
222,29,Memory,4,,,,,,,sunabmbnddafmywtjjj.jpg,,,,,,,,,,,,,,,
223,29,Memory,4,,,,,,,sunacypmnujalygkunp.jpg,,,,,,,,,,,,,,,
224,29,Memory,4,,,,,,,sunabueyoajufbkraki.jpg,,,,,,,,,,,,,,,
225,29,Memory,4,,,,,,,00620940928fa.jpg,,,,,,,,,,,,,,,
226,29,Memory,4,,,,,,,00271940422fa.jpg,,,,,,,,,,,,,,,
227,29,Memory,4,,,,,,,00306940422fa.jpg,,,,,,,,,,,,,,,
228,29,Memory,4,,,,,,,sunbwtlihsuptkrckid.jpg,,,,,,,,,,,,,,,
229,29,Memory,4,,,,,,,00772941201fa.jpg,,,,,,,,,,,,,,,
230,29,Memory,4,,,,,,,01011960627fa.jpg,,,,,,,,,,,,,,,
231,29,Memory,4,,,,,,,sunadsgmtznewzyasnk.jpg,,,,,,,,,,,,,,,
232,29,Memory,4,,,,,,,sunauburywlkjszngcq.jpg,,,,,,,,,,,,,,,
233,29,Memory,4,,,,,,,00966960627fa.jpg,,,,,,,,,,,,,,,
234,29,Memory,4,,,,,,,sundahdxwmcdluscvot.jpg,,,,,,,,,,,,,,,
235,29,Memory,4,,,,,,,00090931230fa.jpg,,,,,,,,,,,,,,,
236,29,Memory,4,,,,,,,sunagmwxxwymwojbvgi.jpg,,,,,,,,,,,,,,,
237,29,Memory,4,,,,,,,sunaahedjlmtqekgyvj.jpg,,,,,,,,,,,,,,,
238,29,Memory,4,,,,,,,sunajxpkuhbizeveguy.jpg,,,,,,,,,,,,,,,
239,29,Memory,4,,,,,,,sunaloffvbvysigxent.jpg,,,,,,,,,,,,,,,
240,29,Memory,4,,,,,,,00864940307fa.jpg,,,,,,,,,,,,,,,
241,29,Memory,4,,,,,,,00893960530Fa.jpg,,,,,,,,,,,,,,,
242,29,Memory,4,,,,,,,sunakgbnzxmfohgehnu.jpg,,,,,,,,,,,,,,,
243,29,Memory,4,,,,,,,00955960627fb.jpg,,,,,,,,,,,,,,,
244,29,Memory,4,,,,,,,sunafpfpiiujzoesnqg.jpg,,,,,,,,,,,,,,,
245,29,Memory,4,,,,,,,00978960627fa.jpg,,,,,,,,,,,,,,,
246,29,Memory,4,,,,,,,sunacacflqoyxhsqzhe.jpg,,,,,,,,,,,,,,,
247,29,Memory,4,,,,,,,sunbddbivbptlrlauhy.jpg,,,,,,,,,,,,,,,
248,29,Memory,4,,,,,,,01004960627fa.jpg,,,,,,,,,,,,,,,
249,29,Memory,4,,,,,,,00700941121fa.jpg,,,,,,,,,,,,,,,
250,29,Presentation,5,00108960530fa_sunaajtnvzzpsjdzres.jpg,00209940128fb_sunabaergayifsgacxt.jpg,,,,,,,<,Place,,,,,1,,,,,,,o
251,29,Presentation,5,00235940128fb_sunabclssnoeuigtawp.jpg,00650941031fa_sunadikxpvqeabxrvvc.jpg,,,,,,,>,Face,,,,,1,,,,,,,x
252,29,Presentation,5,00163931230fb_sunaavodbcpygkggnfp.jpg,00999960627fa_sunbvbrvgbpanfrawft.jpg,,,,,,,<,Face,,,,,1,,,,,,,o
253,29,Presentation,5,00766960620fa_sunafijbgncijwykrnl.jpg,00280940422fb_sunabohxbskznglnrhv.jpg,,,,,,,>,Face,,,,,1,,,,,,,o
254,29,Presentation,5,00902960530fa_sunanaacmmosxrfwmvl.jpg,00943960627fa_sunarpsxqkduedrrzyi.jpg,,,,,,,<,Face,,,,,0,,,,,,,x
255,29,Presentation,5,00564941031fa_sunacsaovnjezqwbykf.jpg,00894960620fa_sunalqmfgeadpqsyzpd.jpg,,,,,,,<,Place,,,,,1,,,,,,,x
256,29,Presentation,5,00609940928fa_sunacycdoztxoluxjyk.jpg,00800941205fb_sunagvjurcwdbixvnyi.jpg,,,,,,,>,Face,,,,,0,,,,,,,o
257,29,Presentation,5,00792941205fa_sunagsiwrmuixqgdimb.jpg,00976960627fa_sunbbhqyyzmsxhsbjmp.jpg,,,,,,,>,Place,,,,,1,,,,,,,x
258,29,Presentation,5,00947960627fa_sunasmmcxdddtmtazwx.jpg,00816941205fa_sunahmhrncocyhsjpxk.jpg,,,,,,,<,Place,,,,,1,,,,,,,x
259,29,Presentation,5,00097931230fa_sunaajayojuslbbnneg.jpg,00944960627fa_sunasbbntuiheekqyaq.jpg,,,,,,,>,Place,,,,,1,,,,,,,x
260,29,Memory,5,,,,,,,00280940422fb.jpg,,,,,,,,,,,,,,,
261,29,Memory,5,,,,,,,sunafijbgncijwykrnl.jpg,,,,,,,,,,,,,,,
262,29,Memory,5,,,,,,,00097931230fa.jpg,,,,,,,,,,,,,,,
263,29,Memory,5,,,,,,,00800941205fb.jpg,,,,,,,,,,,,,,,
264,29,Memory,5,,,,,,,00750941201fa.jpg,,,,,,,,,,,,,,,
265,29,Memory,5,,,,,,,00773960620fa.jpg,,,,,,,,,,,,,,,
266,29,Memory,5,,,,,,,sunbloeoiozwjjsiamp.jpg,,,,,,,,,,,,,,,
267,29,Memory,5,,,,,,,sunaajspcoepticvplv.jpg,,,,,,,,,,,,,,,
268,29,Memory,5,,,,,,,sunaefgzwiramypjvtd.jpg,,,,,,,,,,,,,,,
269,29,Memory,5,,,,,,,00792941205fa.jpg,,,,,,,,,,,,,,,
270,29,Memory,5,,,,,,,00944960627fa.jpg,,,,,,,,,,,,,,,
271,29,Memory,5,,,,,,,00163931230fb.jpg,,,,,,,,,,,,,,,
272,29,Memory,5,,,,,,,00725941201fa.jpg,,,,,,,,,,,,,,,
273,29,Memory,5,,,,,,,sunaeoghzrjarigmwua.jpg,,,,,,,,,,,,,,,
274,29,Memory,5,,,,,,,00102931230fa.jpg,,,,,,,,,,,,,,,
275,29,Memory,5,,,,,,,sunaakxjfbrrequcjmx.jpg,,,,,,,,,,,,,,,
276,29,Memory,5,,,,,,,sunbvbrvgbpanfrawft.jpg,,,,,,,,,,,,,,,
277,29,Memory,5,,,,,,,sunafvsxtzaizojicxx.jpg,,,,,,,,,,,,,,,
278,29,Memory,5,,,,,,,00999960627fa.jpg,,,,,,,,,,,,,,,
279,29,Memory,5,,,,,,,sunabohxbskznglnrhv.jpg,,,,,,,,,,,,,,,
280,29,Memory,5,,,,,,,00092931230fa.jpg,,,,,,,,,,,,,,,
281,29,Memory,5,,,,,,,sunacycdoztxoluxjyk.jpg,,,,,,,,,,,,,,,
282,29,Memory,5,,,,,,,sunaaheqzstzxuadglu.jpg,,,,,,,,,,,,,,,
283,29,Memory,5,,,,,,,00743941201fa.jpg,,,,,,,,,,,,,,,
284,29,Memory,5,,,,,,,sunavhxgmgrqsaptynb.jpg,,,,,,,,,,,,,,,
285,29,Memory,5,,,,,,,sunasbbntuiheekqyaq.jpg,,,,,,,,,,,,,,,
286,29,Memory,5,,,,,,,sunaeuzwggvibufclwf.jpg,,,,,,,,,,,,,,,
287,29,Memory,5,,,,,,,00650941031fa.jpg,,,,,,,,,,,,,,,
288,29,Memory,5,,,,,,,00987960627fa.jpg,,,,,,,,,,,,,,,
289,29,Memory,5,,,,,,,00957960627fa.jpg,,,,,,,,,,,,,,,
290,29,Memory,5,,,,,,,sunaajayojuslbbnneg.jpg,,,,,,,,,,,,,,,
291,29,Memory,5,,,,,,,sunagfvluwixdsozaql.jpg,,,,,,,,,,,,,,,
292,29,Memory,5,,,,,,,00122931230fa.jpg,,,,,,,,,,,,,,,
293,29,Memory,5,,,,,,,sunaavodbcpygkggnfp.jpg,,,,,,,,,,,,,,,
294,29,Memory,5,,,,,,,00782941205fa.jpg,,,,,,,,,,,,,,,
295,29,Memory,5,,,,,,,sunadikxpvqeabxrvvc.jpg,,,,,,,,,,,,,,,
296,29,Memory,5,,,,,,,00609940928fa.jpg,,,,,,,,,,,,,,,
297,29,Memory,5,,,,,,,sunagsiwrmuixqgdimb.jpg,,,,,,,,,,,,,,,
298,29,Memory,5,,,,,,,sunagvjurcwdbixvnyi.jpg,,,,,,,,,,,,,,,
299,29,Memory,5,,,,,,,00766960620fa.jpg,,,,,,,,,,,,,,,
300,29,Presentation,6,00093931230fa_sunaahwnmtqsrhocysw.jpg,00996960627fa_sunbpvgllfdejxcpjqp.jpg,,,,,,,<,Place,,,,,1,,,,,,,o
301,29,Presentation,6,00869940307fa_sunajoveqhiprwqgoco.jpg,00112931230fa_sunaakjaacuzulqckgl.jpg,,,,,,,>,Place,,,,,1,,,,,,,x
302,29,Presentation,6,00834940307fa_sunaibnpvhkdpdnzcnz.jpg,00631940928fa_sunadbdqzigzwipuipr.jpg,,,,,,,>,Face,,,,,1,,,,,,,o
303,29,Presentation,6,00071940128fa_sunaaexpnawiehinlpy.jpg,00857940307fa_sunaiwfobocrruqznsv.jpg,,,,,,,<,Place,,,,,1,,,,,,,x
304,29,Presentation,6,00926960627Fa_sunapqwoeotxshkukbh.jpg,00989960627fa_sunbondbduabvijnmch.jpg,,,,,,,>,Face,,,,,0,,,,,,,x
305,29,Presentation,6,00648941031fa_sunadfndyrtqqiasoig.jpg,00950960627fa_sunasrjlmglmjzbmqxb.jpg,,,,,,,<,Face,,,,,1,,,,,,,x
306,29,Presentation,6,00598941031fa_sunacxtcahkymosigud.jpg,00939960627fa_sunarceibpcyacbmfga.jpg,,,,,,,>,Face,,,,,1,,,,,,,o
307,29,Presentation,6,00540940519fa_sunacdnquypmsshhsbk.jpg,00218940128fa_sunabbwggenhfbftyvi.jpg,,,,,,,<,Place,,,,,1,,,,,,,x
308,29,Presentation,6,00880960530fa_sunakmnfgklupjijsgf.jpg,00154931230fa_sunaauueuhhvklldjik.jpg,,,,,,,>,Place,,,,,1,,,,,,,x
309,29,Presentation,6,00874940307fa_sunajtrfunvzdfticna.jpg,00305940422fa_sunabtrnbvpppgczjim.jpg,,,,,,,<,Face,,,,,1,,,,,,,o
310,29,Memory,6,,,,,,,00218940128fa.jpg,,,,,,,,,,,,,,,
311,29,Memory,6,,,,,,,sunapqwoeotxshkukbh.jpg,,,,,,,,,,,,,,,
312,29,Memory,6,,,,,,,sunajoveqhiprwqgoco.jpg,,,,,,,,,,,,,,,
313,29,Memory,6,,,,,,,00145931230fb.jpg,,,,,,,,,,,,,,,
314,29,Memory,6,,,,,,,00868960307fa.jpg,,,,,,,,,,,,,,,
315,29,Memory,6,,,,,,,sunaauueuhhvklldjik.jpg,,,,,,,,,,,,,,,
316,29,Memory,6,,,,,,,00648941031fa.jpg,,,,,,,,,,,,,,,
317,29,Memory,6,,,,,,,sunabmytpyhsgigllxu.jpg,,,,,,,,,,,,,,,
318,29,Memory,6,,,,,,,sunbfyvfqiimvdaxlqn.jpg,,,,,,,,,,,,,,,
319,29,Memory,6,,,,,,,00773941201fa.jpg,,,,,,,,,,,,,,,
320,29,Memory,6,,,,,,,sunadfndyrtqqiasoig.jpg,,,,,,,,,,,,,,,
321,29,Memory,6,,,,,,,sunagmhildamktmqjss.jpg,,,,,,,,,,,,,,,
322,29,Memory,6,,,,,,,sunaibnpvhkdpdnzcnz.jpg,,,,,,,,,,,,,,,
323,29,Memory,6,,,,,,,00154931230fa.jpg,,,,,,,,,,,,,,,
324,29,Memory,6,,,,,,,sunaaeplwsfslcbtojr.jpg,,,,,,,,,,,,,,,
325,29,Memory,6,,,,,,,sunabbwggenhfbftyvi.jpg,,,,,,,,,,,,,,,
326,29,Memory,6,,,,,,,00793941205fa.jpg,,,,,,,,,,,,,,,
327,29,Memory,6,,,,,,,sunasrjlmglmjzbmqxb.jpg,,,,,,,,,,,,,,,
328,29,Memory,6,,,,,,,sunaknlirqjqiwbbeeg.jpg,,,,,,,,,,,,,,,
329,29,Memory,6,,,,,,,sunaatjesvdupctftmn.jpg,,,,,,,,,,,,,,,
330,29,Memory,6,,,,,,,00598941031fa.jpg,,,,,,,,,,,,,,,
331,29,Memory,6,,,,,,,00070940307fa.jpg,,,,,,,,,,,,,,,
332,29,Memory,6,,,,,,,00882960530fa.jpg,,,,,,,,,,,,,,,
333,29,Memory,6,,,,,,,sunajjxttslobudoqbv.jpg,,,,,,,,,,,,,,,
334,29,Memory,6,,,,,,,sunafvcflzhlqloapyo.jpg,,,,,,,,,,,,,,,
335,29,Memory,6,,,,,,,00184940128fa.jpg,,,,,,,,,,,,,,,
336,29,Memory,6,,,,,,,00834940307fa.jpg,,,,,,,,,,,,,,,
337,29,Memory,6,,,,,,,sunbpvgllfdejxcpjqp.jpg,,,,,,,,,,,,,,,
338,29,Memory,6,,,,,,,00786941205fa.jpg,,,,,,,,,,,,,,,
339,29,Memory,6,,,,,,,00926960627Fa.jpg,,,,,,,,,,,,,,,
340,29,Memory,6,,,,,,,sunacxtcahkymosigud.jpg,,,,,,,,,,,,,,,
341,29,Memory,6,,,,,,,sunagtjwilqjvxohypn.jpg,,,,,,,,,,,,,,,
342,29,Memory,6,,,,,,,00276940422fa.jpg,,,,,,,,,,,,,,,
343,29,Memory,6,,,,,,,00305940422fa.jpg,,,,,,,,,,,,,,,
344,29,Memory,6,,,,,,,00996960627fa.jpg,,,,,,,,,,,,,,,
345,29,Memory,6,,,,,,,00950960627fa.jpg,,,,,,,,,,,,,,,
346,29,Memory,6,,,,,,,sunaavtbadenwnzeutj.jpg,,,,,,,,,,,,,,,
347,29,Memory,6,,,,,,,00869940307fa.jpg,,,,,,,,,,,,,,,
348,29,Memory,6,,,,,,,00983960627fa.jpg,,,,,,,,,,,,,,,
349,29,Memory,6,,,,,,,sunabtrnbvpppgczjim.jpg,,,,,,,,,,,,,,,
350,29,Presentation,7,00784941205fb_sunagjzcrjvmxzqzljx.jpg,00313940422fa_sunabwjvmoaddlyxfjr.jpg,,,,,,,>,Place,,,,,1,,,,,,,x
351,29,Presentation,7,00719960620fa_sunadzuvtmtmgupotmf.jpg,00662941121fa_sunadkazmlajmohnwfl.jpg,,,,,,,<,Place,,,,,1,,,,,,,x
352,29,Presentation,7,00876960620fa_sunajwqkfsykceonyig.jpg,00548940519fa_sunacerqowiaeoqkmsq.jpg,,,,,,,>,Place,,,,,1,,,,,,,o
353,29,Presentation,7,00214940128fa_sunabbafjowbzcvbucc.jpg,00827940307fa_sunahtfxgsrmkiulnwk.jpg,,,,,,,<,Place,,,,,1,,,,,,,o
354,29,Presentation,7,00952960627fa_sunathzzbcwjykldrem.jpg,00858940307fa_sunaixpqndlwhwjtjek.jpg,,,,,,,>,Face,,,,,1,,,,,,,o
355,29,Presentation,7,00965960627fa_sunaydywdmvlfddbxbk.jpg,00191940128fb_sunaawsdjisukbbginm.jpg,,,,,,,<,Face,,,,,1,,,,,,,x
356,29,Presentation,7,00242940128fa_sunabcuurugvxwparpk.jpg,00153931230fa_sunaauhozyxzeeqstxi.jpg,,,,,,,>,Face,,,,,1,,,,,,,x
357,29,Presentation,7,00949960627fb_sunasnqkkyhilqkxiqm.jpg,00111931230fb_sunaakgekhjklxmvulj.jpg,,,,,,,<,Face,,,,,1,,,,,,,o
358,29,Presentation,7,00903960620fa_sunanainkqdvktzoxyl.jpg,00804960530fa_sunagwswhkvnsmuszlz.jpg,,,,,,,>,Place,,,,,1,,,,,,,o
359,29,Presentation,7,00061931230fb_sunaaekxzjzrfgtkwjf.jpg,00891960530fa_sunalkiibhqpxfamlll.jpg,,,,,,,<,Face,,,,,1,,,,,,,o
360,29,Memory,7,,,,,,,00313940422fa.jpg,,,,,,,,,,,,,,,
361,29,Memory,7,,,,,,,00828940307fa.jpg,,,,,,,,,,,,,,,
362,29,Memory,7,,,,,,,00949960627fb.jpg,,,,,,,,,,,,,,,
363,29,Memory,7,,,,,,,sunaqsolmfydodnakub.jpg,,,,,,,,,,,,,,,
364,29,Memory,7,,,,,,,sunadqmjrhfjyuzyvdd.jpg,,,,,,,,,,,,,,,
365,29,Memory,7,,,,,,,00827940307fa.jpg,,,,,,,,,,,,,,,
366,29,Memory,7,,,,,,,00242940128fa.jpg,,,,,,,,,,,,,,,
367,29,Memory,7,,,,,,,sunahtfxgsrmkiulnwk.jpg,,,,,,,,,,,,,,,
368,29,Memory,7,,,,,,,00952960627fa.jpg,,,,,,,,,,,,,,,
369,29,Memory,7,,,,,,,00876960620fa.jpg,,,,,,,,,,,,,,,
370,29,Memory,7,,,,,,,sunaapxkpvrhpjplsok.jpg,,,,,,,,,,,,,,,
371,29,Memory,7,,,,,,,sunacerqowiaeoqkmsq.jpg,,,,,,,,,,,,,,,
372,29,Memory,7,,,,,,,sunajwqkfsykceonyig.jpg,,,,,,,,,,,,,,,
373,29,Memory,7,,,,,,,sunagvxkjokqimstxpe.jpg,,,,,,,,,,,,,,,
374,29,Memory,7,,,,,,,sunaffstbkappprzxnv.jpg,,,,,,,,,,,,,,,
375,29,Memory,7,,,,,,,sunabcuurugvxwparpk.jpg,,,,,,,,,,,,,,,
376,29,Memory,7,,,,,,,00777941205fa.jpg,,,,,,,,,,,,,,,
377,29,Memory,7,,,,,,,sunalkiibhqpxfamlll.jpg,,,,,,,,,,,,,,,
378,29,Memory,7,,,,,,,00153931230fa.jpg,,,,,,,,,,,,,,,
379,29,Memory,7,,,,,,,sunagcinxkccdtrjmlv.jpg,,,,,,,,,,,,,,,
380,29,Memory,7,,,,,,,00891960530fa.jpg,,,,,,,,,,,,,,,
381,29,Memory,7,,,,,,,00937960627fa.jpg,,,,,,,,,,,,,,,
382,29,Memory,7,,,,,,,sunabwjvmoaddlyxfjr.jpg,,,,,,,,,,,,,,,
383,29,Memory,7,,,,,,,00903960620fa.jpg,,,,,,,,,,,,,,,
384,29,Memory,7,,,,,,,00885960530fa.jpg,,,,,,,,,,,,,,,
385,29,Memory,7,,,,,,,00760960620fa.jpg,,,,,,,,,,,,,,,
386,29,Memory,7,,,,,,,sunaizeyhvjzknwjudw.jpg,,,,,,,,,,,,,,,
387,29,Memory,7,,,,,,,sunaauhozyxzeeqstxi.jpg,,,,,,,,,,,,,,,
388,29,Memory,7,,,,,,,sunainqelldeebvxtcz.jpg,,,,,,,,,,,,,,,
389,29,Memory,7,,,,,,,00548940519fa.jpg,,,,,,,,,,,,,,,
390,29,Memory,7,,,,,,,00860940307fa.jpg,,,,,,,,,,,,,,,
391,29,Memory,7,,,,,,,sunakwlvxjpddialozd.jpg,,,,,,,,,,,,,,,
392,29,Memory,7,,,,,,,00836940307fa.jpg,,,,,,,,,,,,,,,
393,29,Memory,7,,,,,,,00142931230fb.jpg,,,,,,,,,,,,,,,
394,29,Memory,7,,,,,,,sunanainkqdvktzoxyl.jpg,,,,,,,,,,,,,,,
395,29,Memory,7,,,,,,,00681941121fa.jpg,,,,,,,,,,,,,,,
396,29,Memory,7,,,,,,,sunahuynahneraqftyz.jpg,,,,,,,,,,,,,,,
397,29,Memory,7,,,,,,,00803941205fa.jpg,,,,,,,,,,,,,,,
398,29,Memory,7,,,,,,,sunasnqkkyhilqkxiqm.jpg,,,,,,,,,,,,,,,
399,29,Memory,7,,,,,,,sunathzzbcwjykldrem.jpg,,,,,,,,,,,,,,,
