,Subject,Trial Type,Run,Cued Composite,Uncued Composite,Cued Face,Cued Place,Uncued Face,Uncued Place,Memory Image,Category,Cued Side,Cued Category,Attention Reaction Time (s),Familiarity Reaction Time (s),Familiarity Rating,Attention Level,Cue Validity,Post Invalid Cue,Pre Invalid Cue,Attention Button,Rating History,Stimulus Onset,Stimulus End,Attention Probe
60,36,Memory,1,,,,,,,sunaijsqpvodplbwxkf.jpg,,,,,1.792,3.0,,,,,,,1540406216.531396,1540406219.244963,
61,36,Memory,1,,,,,,,00796941205fa.jpg,,,,,1.711,2.0,,,,,,,1540406220.516308,1540406222.946814,
62,36,Memory,1,,,,,,,00847940307fa.jpg,,,,,0.79,2.0,,,,,,,1540406224.217689,1540406226.379955,
63,36,Memory,1,,,,,,,sunaahedjlmtqekgyvj.jpg,,,,,1.275,2.0,,,,,,,1540406227.668653,1540406229.972196,
64,36,Memory,1,,,,,,,sunaivdjruhkrfywfed.jpg,,,,,1.362,2.0,,,,,,,1540406231.23555,1540406233.569878,
65,36,Memory,1,,,,,,,sunadfktsqjthoglcsm.jpg,,,,,1.141,2.0,,,,,,,1540406234.854215,1540406237.269519,
66,36,Memory,1,,,,,,,sunabaergayifsgacxt.jpg,,,,,1.293,2.0,,,,,,,1540406238.538997,1540406241.151428,
67,36,Memory,1,,,,,,,00931960627fa.jpg,,,,,1.506,2.0,,,,,,,1540406242.44076,1540406245.039031,
68,36,Memory,1,,,,,,,sunaauhozyxzeeqstxi.jpg,,,,,1.753,2.0,,,,,,,1540406246.307045,1540406248.828032,
69,36,Memory,1,,,,,,,sunabyfxcxhdebvdyfd.jpg,,,,,0.707,3.0,,,,,,,1540406250.109181,1540406252.422328,
70,36,Memory,1,,,,,,,sunagvjurcwdbixvnyi.jpg,,,,,1.025,2.0,,,,,,,1540406253.694546,1540406256.265459,
71,36,Memory,1,,,,,,,sunacjnahdmqfnjfwqx.jpg,,,,,1.042,2.0,,,,,,,1540406257.511473,1540406259.9458,
72,36,Memory,1,,,,,,,00794960620fa.jpg,,,,,0.975,3.0,,,,,,,1540406261.279796,1540406263.648769,
73,36,Memory,1,,,,,,,00090931230fa.jpg,,,,,0.866,2.0,,,,,,,1540406264.948463,1540406267.148348,
74,36,Memory,1,,,,,,,00638941031fa.jpg,,,,,1.002,2.0,,,,,,,1540406268.399871,1540406270.378673,
75,36,Memory,1,,,,,,,sunasbbntuiheekqyaq.jpg,,,,,0.837,3.0,,,,,,,1540406271.628601,1540406273.613906,
76,36,Memory,1,,,,,,,sunadzuvtmtmgupotmf.jpg,,,,,1.232,2.0,,,,,,,1540406274.86822,1540406276.847802,
77,36,Memory,1,,,,,,,sunammbnoambmhdxdwd.jpg,,,,,1.349,3.0,,,,,,,1540406278.102288,1540406280.082344,
78,36,Memory,1,,,,,,,00828940307fa.jpg,,,,,0.986,2.0,,,,,,,1540406281.331309,1540406283.319395,
79,36,Memory,1,,,,,,,00071940128fa.jpg,,,,,1.416,2.0,,,,,,,1540406284.587763,1540406286.568625,
80,36,Memory,1,,,,,,,00719960620fa.jpg,,,,,1.002,2.0,,,,,,,1540406287.821931,1540406289.802788,
81,36,Memory,1,,,,,,,00901960530fa.jpg,,,,,1.505,3.0,,,,,,,1540406291.051369,1540406293.040475,
82,36,Memory,1,,,,,,,00562941031fa.jpg,,,,,0.865,2.0,,,,,,,1540406294.285799,1540406296.274088,
83,36,Memory,1,,,,,,,00835940307fa.jpg,,,,,0.816,2.0,,,,,,,1540406297.520674,1540406299.509443,
84,36,Memory,1,,,,,,,sunbpflsdaxnddnwcqi.jpg,,,,,1.036,4.0,,,,,,,1540406300.759344,1540406302.742075,
85,36,Memory,1,,,,,,,sunagtqhhwxjeuxdebe.jpg,,,,,0.9,2.0,,,,,,,1540406303.989604,1540406305.976238,
86,36,Memory,1,,,,,,,00944960627fa.jpg,,,,,0.749,2.0,,,,,,,1540406307.246095,1540406309.22485,
87,36,Memory,1,,,,,,,00787960620fa.jpg,,,,,0.665,2.0,,,,,,,1540406310.495449,1540406312.475783,
88,36,Memory,1,,,,,,,sunagoufulkpsxrmklt.jpg,,,,,1.316,2.0,,,,,,,1540406313.731398,1540406315.710551,
89,36,Memory,1,,,,,,,00098931230fa.jpg,,,,,1.315,2.0,,,,,,,1540406316.980551,1540406318.961763,
90,36,Memory,1,,,,,,,sunahuynahneraqftyz.jpg,,,,,1.382,2.0,,,,,,,1540406320.215233,1540406322.197731,
91,36,Memory,1,,,,,,,sunaaexpnawiehinlpy.jpg,,,,,1.181,4.0,,,,,,,1540406323.462325,1540406325.450511,
92,36,Memory,1,,,,,,,00800941205fb.jpg,,,,,1.184,3.0,,,,,,,1540406326.702085,1540406328.682246,
93,36,Memory,1,,,,,,,00990960627fa.jpg,,,,,1.852,2.0,,,,,,,1540406329.935976,1540406331.916131,
94,36,Memory,1,,,,,,,00209940128fb.jpg,,,,,0.732,2.0,,,,,,,1540406333.166479,1540406335.150363,
95,36,Memory,1,,,,,,,sunaajpqmulidejvjsr.jpg,,,,,1.367,2.0,,,,,,,1540406336.398824,1540406338.383578,
96,36,Memory,1,,,,,,,00482940519fa.jpg,,,,,0.714,2.0,,,,,,,1540406339.634072,1540406341.622681,
97,36,Memory,1,,,,,,,00153931230fa.jpg,,,,,0.67,2.0,,,,,,,1540406342.873223,1540406344.852439,
98,36,Memory,1,,,,,,,sunaguchqqnrtodtezq.jpg,,,,,1.233,4.0,,,,,,,1540406346.10301,1540406348.087553,
99,36,Memory,1,,,,,,,sunaptrqvaooxfvktvw.jpg,,,,,1.45,3.0,,,,,,,1540406349.341785,1540406351.325377,
