,Subject,Trial Type,Run,Cued Composite,Uncued Composite,Cued Face,Cued Place,Uncued Face,Uncued Place,Memory Image,Category,Cued Side,Cued Category,Attention Response Time (s),Familiarity Reaction Time (s),Familiarity Rating,Attention Level,Cue Validity,Post Invalid Cue,Pre Invalid Cue,Attention Button,Rating History,Stimulus Onset,Stimulus End,Attention Probe
0,38,Presentation,0,00913960530fa_sunaooffzffbhcpirmm.jpg,00772941201fa_sunafpfpiiujzoesnqg.jpg,00913960530fa.jpg,sunaooffzffbhcpirmm.jpg,00772941201fa.jpg,sunafpfpiiujzoesnqg.jpg,,,<,Place,,,,,1,,,,,,,o
1,38,Presentation,0,00071940128fa_sunaaexpnawiehinlpy.jpg,00866940307fa_sunajbwkywmsqkldfml.jpg,00071940128fa.jpg,sunaaexpnawiehinlpy.jpg,00866940307fa.jpg,sunajbwkywmsqkldfml.jpg,,,<,Place,,,,,1,,,,,,,o
2,38,Presentation,0,00911960530fa_sunaooaqzputrowwbsw.jpg,00939960627fa_sunarceibpcyacbmfga.jpg,00911960530fa.jpg,sunaooaqzputrowwbsw.jpg,00939960627fa.jpg,sunarceibpcyacbmfga.jpg,,,<,Place,,,,,1,,,,,,,o
3,38,Presentation,0,00127931230fa_sunaampvucecsfbdafn.jpg,00638941031fa_sunadfktsqjthoglcsm.jpg,00127931230fa.jpg,sunaampvucecsfbdafn.jpg,00638941031fa.jpg,sunadfktsqjthoglcsm.jpg,,,<,Place,,,,,1,,,,,,,x
4,38,Presentation,0,00809960620fa_sunahbvlpavurqoxdeq.jpg,00792941205fa_sunagsiwrmuixqgdimb.jpg,00809960620fa.jpg,sunahbvlpavurqoxdeq.jpg,00792941205fa.jpg,sunagsiwrmuixqgdimb.jpg,,,<,Place,,,,,1,,,,,,,x
5,38,Presentation,0,00126931230fb_sunaamdjwemxpmmtypi.jpg,00786941205fa_sunagmhildamktmqjss.jpg,00126931230fb.jpg,sunaamdjwemxpmmtypi.jpg,00786941205fa.jpg,sunagmhildamktmqjss.jpg,,,<,Place,,,,,1,,,,,,,x
6,38,Presentation,0,00633940928fa_sunadbhmrgrrpyzglxs.jpg,00634940928fa_sunadcphrizvfpljiqt.jpg,00633940928fa.jpg,sunadbhmrgrrpyzglxs.jpg,00634940928fa.jpg,sunadcphrizvfpljiqt.jpg,,,<,Place,,,,,1,,,,,,,o
7,38,Presentation,0,00138931230fa_sunaapfaivxqoynnwwp.jpg,00065931230fb_sunaaemixhfquhnxxlm.jpg,00138931230fa.jpg,sunaapfaivxqoynnwwp.jpg,00065931230fb.jpg,sunaaemixhfquhnxxlm.jpg,,,<,Place,,,,,1,,,,,,,o
8,38,Presentation,0,00294940422fb_sunabrlndkruqokhury.jpg,00210940128fb_sunabanoxjtqxamkucc.jpg,00294940422fb.jpg,sunabrlndkruqokhury.jpg,00210940128fb.jpg,sunabanoxjtqxamkucc.jpg,,,<,Place,,,,,1,,,,,,,o
9,38,Presentation,0,00791941205fa_sunagrmyoovzukhxmlo.jpg,00882960530fa_sunaknlirqjqiwbbeeg.jpg,00791941205fa.jpg,sunagrmyoovzukhxmlo.jpg,00882960530fa.jpg,sunaknlirqjqiwbbeeg.jpg,,,<,Place,,,,,1,,,,,,,o
10,38,Memory,0,,,,,,,00866940307fa.jpg,,,,,,,,,,,,,,,
11,38,Memory,0,,,,,,,00127931230fa.jpg,,,,,,,,,,,,,,,
12,38,Memory,0,,,,,,,sunadfktsqjthoglcsm.jpg,,,,,,,,,,,,,,,
13,38,Memory,0,,,,,,,00138931230fa.jpg,,,,,,,,,,,,,,,
14,38,Memory,0,,,,,,,00266940128fb.jpg,,,,,,,,,,,,,,,
15,38,Memory,0,,,,,,,sunacycdoztxoluxjyk.jpg,,,,,,,,,,,,,,,
16,38,Memory,0,,,,,,,sunaakvmbftkrgqhjun.jpg,,,,,,,,,,,,,,,
17,38,Memory,0,,,,,,,00638941031fa.jpg,,,,,,,,,,,,,,,
18,38,Memory,0,,,,,,,00609940928fa.jpg,,,,,,,,,,,,,,,
19,38,Memory,0,,,,,,,00786941205fa.jpg,,,,,,,,,,,,,,,
20,38,Memory,0,,,,,,,sunaaexpnawiehinlpy.jpg,,,,,,,,,,,,,,,
21,38,Memory,0,,,,,,,sunaayehfdqcyxggsej.jpg,,,,,,,,,,,,,,,
22,38,Memory,0,,,,,,,00119931230fb.jpg,,,,,,,,,,,,,,,
23,38,Memory,0,,,,,,,00108960530fa.jpg,,,,,,,,,,,,,,,
24,38,Memory,0,,,,,,,sunajbwkywmsqkldfml.jpg,,,,,,,,,,,,,,,
25,38,Memory,0,,,,,,,sunabrlndkruqokhury.jpg,,,,,,,,,,,,,,,
26,38,Memory,0,,,,,,,00913960530fa.jpg,,,,,,,,,,,,,,,
27,38,Memory,0,,,,,,,sunafpfpiiujzoesnqg.jpg,,,,,,,,,,,,,,,
28,38,Memory,0,,,,,,,00071940128fa.jpg,,,,,,,,,,,,,,,
29,38,Memory,0,,,,,,,00772941201fa.jpg,,,,,,,,,,,,,,,
30,38,Memory,0,,,,,,,00848940307fa.jpg,,,,,,,,,,,,,,,
31,38,Memory,0,,,,,,,sunapqkyghktgtosuuk.jpg,,,,,,,,,,,,,,,
32,38,Memory,0,,,,,,,sunaivdylrawbmhryfp.jpg,,,,,,,,,,,,,,,
33,38,Memory,0,,,,,,,00792941205fa.jpg,,,,,,,,,,,,,,,
34,38,Memory,0,,,,,,,00194940128fb.jpg,,,,,,,,,,,,,,,
35,38,Memory,0,,,,,,,00294940422fb.jpg,,,,,,,,,,,,,,,
36,38,Memory,0,,,,,,,00308940422fb.jpg,,,,,,,,,,,,,,,
37,38,Memory,0,,,,,,,sunabkngeblodihjvbk.jpg,,,,,,,,,,,,,,,
38,38,Memory,0,,,,,,,sunabwfvcqqidycwypa.jpg,,,,,,,,,,,,,,,
39,38,Memory,0,,,,,,,00635941031fa.jpg,,,,,,,,,,,,,,,
40,38,Memory,0,,,,,,,sunaapfaivxqoynnwwp.jpg,,,,,,,,,,,,,,,
41,38,Memory,0,,,,,,,sunaajtnvzzpsjdzres.jpg,,,,,,,,,,,,,,,
42,38,Memory,0,,,,,,,sunamkmeblgteyggink.jpg,,,,,,,,,,,,,,,
43,38,Memory,0,,,,,,,sunaddsaeicthrfbkhe.jpg,,,,,,,,,,,,,,,
44,38,Memory,0,,,,,,,sunagmhildamktmqjss.jpg,,,,,,,,,,,,,,,
45,38,Memory,0,,,,,,,sunagsiwrmuixqgdimb.jpg,,,,,,,,,,,,,,,
46,38,Memory,0,,,,,,,sunaooffzffbhcpirmm.jpg,,,,,,,,,,,,,,,
47,38,Memory,0,,,,,,,00922960627fa.jpg,,,,,,,,,,,,,,,
48,38,Memory,0,,,,,,,sunaampvucecsfbdafn.jpg,,,,,,,,,,,,,,,
49,38,Memory,0,,,,,,,00898960530fa.jpg,,,,,,,,,,,,,,,
50,38,Presentation,1,00859940307fa_sunaiycurtqsfkvcaso.jpg,00576941031fa_sunacvjlsylseoghjup.jpg,00859940307fa.jpg,sunaiycurtqsfkvcaso.jpg,00576941031fa.jpg,sunacvjlsylseoghjup.jpg,,,>,Face,,,,,1,,,,,,,x
51,38,Presentation,1,00777941205fa_sunagcinxkccdtrjmlv.jpg,00144931230fb_sunaathajvxrgptwhoj.jpg,00777941205fa.jpg,sunagcinxkccdtrjmlv.jpg,00144931230fb.jpg,sunaathajvxrgptwhoj.jpg,,,>,Face,,,,,1,,,,,,,x
52,38,Presentation,1,00571940928fa_sunacuatpqpqhyjhjqk.jpg,00795941205fa_sunagtumacdlmciqamz.jpg,00571940928fa.jpg,sunacuatpqpqhyjhjqk.jpg,00795941205fa.jpg,sunagtumacdlmciqamz.jpg,,,>,Face,,,,,0,,,,,,,o
53,38,Presentation,1,00794960620fa_sunagtqhhwxjeuxdebe.jpg,00779941205fa_sunagdzlvkqtpnfxfcg.jpg,00794960620fa.jpg,sunagtqhhwxjeuxdebe.jpg,00779941205fa.jpg,sunagdzlvkqtpnfxfcg.jpg,,,>,Face,,,,,1,,,,,,,o
54,38,Presentation,1,00140931230fb_sunaapllqyqlykszopd.jpg,00793941205fa_sunagtjwilqjvxohypn.jpg,00140931230fb.jpg,sunaapllqyqlykszopd.jpg,00793941205fa.jpg,sunagtjwilqjvxohypn.jpg,,,>,Face,,,,,0,,,,,,,x
55,38,Presentation,1,00807941205fa_sunahawfngukizslzsd.jpg,00839940307fa_sunaipyohrqlwngaqif.jpg,00807941205fa.jpg,sunahawfngukizslzsd.jpg,00839940307fa.jpg,sunaipyohrqlwngaqif.jpg,,,>,Face,,,,,1,,,,,,,o
56,38,Presentation,1,00093931230fa_sunaahwnmtqsrhocysw.jpg,00967960627fa_sunbaejotfklekvpxcz.jpg,00093931230fa.jpg,sunaahwnmtqsrhocysw.jpg,00967960627fa.jpg,sunbaejotfklekvpxcz.jpg,,,>,Face,,,,,1,,,,,,,o
57,38,Presentation,1,00925960627fa_sunapqwnqzxlsfvgsjm.jpg,00935960627fa_sunaqbmgkgqucajzrkp.jpg,00925960627fa.jpg,sunapqwnqzxlsfvgsjm.jpg,00935960627fa.jpg,sunaqbmgkgqucajzrkp.jpg,,,>,Face,,,,,1,,,,,,,x
58,38,Presentation,1,00906960530fa_sunantryfbloeaomfta.jpg,00957960627fa_sunavhxgmgrqsaptynb.jpg,00906960530fa.jpg,sunantryfbloeaomfta.jpg,00957960627fa.jpg,sunavhxgmgrqsaptynb.jpg,,,>,Face,,,,,1,,,,,,,o
59,38,Presentation,1,00796941205fa_sunaguchqqnrtodtezq.jpg,00208940128fa_sunaazzyhbvqjpmazjq.jpg,00796941205fa.jpg,sunaguchqqnrtodtezq.jpg,00208940128fa.jpg,sunaazzyhbvqjpmazjq.jpg,,,>,Face,,,,,0,,,,,,,x
60,38,Memory,1,,,,,,,00807941205fa.jpg,,,,,,,,,,,,,,,
61,38,Memory,1,,,,,,,sunaipyohrqlwngaqif.jpg,,,,,,,,,,,,,,,
62,38,Memory,1,,,,,,,00839940307fa.jpg,,,,,,,,,,,,,,,
63,38,Memory,1,,,,,,,00112931230fa.jpg,,,,,,,,,,,,,,,
64,38,Memory,1,,,,,,,sunaavjinpnkappuonm.jpg,,,,,,,,,,,,,,,
65,38,Memory,1,,,,,,,00265940128fb.jpg,,,,,,,,,,,,,,,
66,38,Memory,1,,,,,,,00082931230fa.jpg,,,,,,,,,,,,,,,
67,38,Memory,1,,,,,,,sunahawfngukizslzsd.jpg,,,,,,,,,,,,,,,
68,38,Memory,1,,,,,,,sunaazzyhbvqjpmazjq.jpg,,,,,,,,,,,,,,,
69,38,Memory,1,,,,,,,00796941205fa.jpg,,,,,,,,,,,,,,,
70,38,Memory,1,,,,,,,sunabkmdplkdbvxriff.jpg,,,,,,,,,,,,,,,
71,38,Memory,1,,,,,,,00857940307fa.jpg,,,,,,,,,,,,,,,
72,38,Memory,1,,,,,,,00090931230fa.jpg,,,,,,,,,,,,,,,
73,38,Memory,1,,,,,,,00785941205fa.jpg,,,,,,,,,,,,,,,
74,38,Memory,1,,,,,,,sunaalhlvzmjmitybdn.jpg,,,,,,,,,,,,,,,
75,38,Memory,1,,,,,,,sunaathajvxrgptwhoj.jpg,,,,,,,,,,,,,,,
76,38,Memory,1,,,,,,,00479940519fa.jpg,,,,,,,,,,,,,,,
77,38,Memory,1,,,,,,,00571940928fa.jpg,,,,,,,,,,,,,,,
78,38,Memory,1,,,,,,,00208940128fa.jpg,,,,,,,,,,,,,,,
79,38,Memory,1,,,,,,,00906960530fa.jpg,,,,,,,,,,,,,,,
80,38,Memory,1,,,,,,,00162931230fb.jpg,,,,,,,,,,,,,,,
81,38,Memory,1,,,,,,,00124931230fa.jpg,,,,,,,,,,,,,,,
82,38,Memory,1,,,,,,,00122931230fa.jpg,,,,,,,,,,,,,,,
83,38,Memory,1,,,,,,,sunbaejotfklekvpxcz.jpg,,,,,,,,,,,,,,,
84,38,Memory,1,,,,,,,sunaglqunwuycxydmyu.jpg,,,,,,,,,,,,,,,
85,38,Memory,1,,,,,,,00967960627fa.jpg,,,,,,,,,,,,,,,
86,38,Memory,1,,,,,,,00777941205fa.jpg,,,,,,,,,,,,,,,
87,38,Memory,1,,,,,,,00779941205fa.jpg,,,,,,,,,,,,,,,
88,38,Memory,1,,,,,,,sunaiwfobocrruqznsv.jpg,,,,,,,,,,,,,,,
89,38,Memory,1,,,,,,,sunagcinxkccdtrjmlv.jpg,,,,,,,,,,,,,,,
90,38,Memory,1,,,,,,,sunacuatpqpqhyjhjqk.jpg,,,,,,,,,,,,,,,
91,38,Memory,1,,,,,,,sunagdzlvkqtpnfxfcg.jpg,,,,,,,,,,,,,,,
92,38,Memory,1,,,,,,,sunaahedjlmtqekgyvj.jpg,,,,,,,,,,,,,,,
93,38,Memory,1,,,,,,,sunaguchqqnrtodtezq.jpg,,,,,,,,,,,,,,,
94,38,Memory,1,,,,,,,00144931230fb.jpg,,,,,,,,,,,,,,,
95,38,Memory,1,,,,,,,sunaakjaacuzulqckgl.jpg,,,,,,,,,,,,,,,
96,38,Memory,1,,,,,,,sunaafvitpexrpvumsa.jpg,,,,,,,,,,,,,,,
97,38,Memory,1,,,,,,,sunantryfbloeaomfta.jpg,,,,,,,,,,,,,,,
98,38,Memory,1,,,,,,,sunaakxjfbrrequcjmx.jpg,,,,,,,,,,,,,,,
99,38,Memory,1,,,,,,,sunabxsbfwjccqxxzxq.jpg,,,,,,,,,,,,,,,
100,38,Presentation,2,00133931230fa_sunaanlwnpqndclffxt.jpg,00262940128fa_sunabizydfotqddlnjp.jpg,00133931230fa.jpg,sunaanlwnpqndclffxt.jpg,00262940128fa.jpg,sunabizydfotqddlnjp.jpg,,,<,Place,,,,,1,,,,,,,x
101,38,Presentation,2,00741941201fa_sunaemcowdozyphwknd.jpg,00776941205fa_sunafxokyavhgptyfye.jpg,00741941201fa.jpg,sunaemcowdozyphwknd.jpg,00776941205fa.jpg,sunafxokyavhgptyfye.jpg,,,<,Place,,,,,1,,,,,,,o
102,38,Presentation,2,00936960627fa_sunaqgjuuwvdcyiccjt.jpg,00101931230fb_sunaajqmsaavkmgbsth.jpg,00936960627fa.jpg,sunaqgjuuwvdcyiccjt.jpg,00101931230fb.jpg,sunaajqmsaavkmgbsth.jpg,,,<,Place,,,,,1,,,,,,,o
103,38,Presentation,2,00116931230fa_sunaakqepfoeqomfgxf.jpg,00131931230fb_sunaangbuylfvckqqoo.jpg,00116931230fa.jpg,sunaakqepfoeqomfgxf.jpg,00131931230fb.jpg,sunaangbuylfvckqqoo.jpg,,,<,Place,,,,,1,,,,,,,o
104,38,Presentation,2,00650941031fa_sunadikxpvqeabxrvvc.jpg,00163931230fb_sunaavodbcpygkggnfp.jpg,00650941031fa.jpg,sunadikxpvqeabxrvvc.jpg,00163931230fb.jpg,sunaavodbcpygkggnfp.jpg,,,<,Place,,,,,1,,,,,,,o
105,38,Presentation,2,00747941201fa_sunaeutbrtswvsozxyk.jpg,00752960620fa_sunafbwnojpqeyzssoe.jpg,00747941201fa.jpg,sunaeutbrtswvsozxyk.jpg,00752960620fa.jpg,sunafbwnojpqeyzssoe.jpg,,,<,Place,,,,,1,,,,,,,x
106,38,Presentation,2,00770941201fa_sunaflojskatpeqyzqp.jpg,00481940519fa_sunabxsuqbleluwczoy.jpg,00770941201fa.jpg,sunaflojskatpeqyzqp.jpg,00481940519fa.jpg,sunabxsuqbleluwczoy.jpg,,,<,Place,,,,,1,,,,,,,o
107,38,Presentation,2,01004960627fa_sunbwtlihsuptkrckid.jpg,00631940928fa_sunadbdqzigzwipuipr.jpg,01004960627fa.jpg,sunbwtlihsuptkrckid.jpg,00631940928fa.jpg,sunadbdqzigzwipuipr.jpg,,,<,Place,,,,,1,,,,,,,o
108,38,Presentation,2,00564941031fa_sunacsaovnjezqwbykf.jpg,00754941201fa_sunaffgsyyvoqdlkmnk.jpg,00564941031fa.jpg,sunacsaovnjezqwbykf.jpg,00754941201fa.jpg,sunaffgsyyvoqdlkmnk.jpg,,,<,Place,,,,,1,,,,,,,x
109,38,Presentation,2,00670941121fa_sunadochqcucscehsgk.jpg,00905960530fa_sunanmoqeyprjjjfxjt.jpg,00670941121fa.jpg,sunadochqcucscehsgk.jpg,00905960530fa.jpg,sunanmoqeyprjjjfxjt.jpg,,,<,Place,,,,,1,,,,,,,o
110,38,Memory,2,,,,,,,sunasnqkkyhilqkxiqm.jpg,,,,,,,,,,,,,,,
111,38,Memory,2,,,,,,,00949960627fb.jpg,,,,,,,,,,,,,,,
112,38,Memory,2,,,,,,,00874940307fa.jpg,,,,,,,,,,,,,,,
113,38,Memory,2,,,,,,,00564941031fa.jpg,,,,,,,,,,,,,,,
114,38,Memory,2,,,,,,,sunaixpqndlwhwjtjek.jpg,,,,,,,,,,,,,,,
115,38,Memory,2,,,,,,,sunbdycacjfaujxitbw.jpg,,,,,,,,,,,,,,,
116,38,Memory,2,,,,,,,00101931230fb.jpg,,,,,,,,,,,,,,,
117,38,Memory,2,,,,,,,sunaefgzwiramypjvtd.jpg,,,,,,,,,,,,,,,
118,38,Memory,2,,,,,,,00631940928fa.jpg,,,,,,,,,,,,,,,
119,38,Memory,2,,,,,,,sunbbfqwjpdxniyhies.jpg,,,,,,,,,,,,,,,
120,38,Memory,2,,,,,,,sunaaeowapdkwzqpgqr.jpg,,,,,,,,,,,,,,,
121,38,Memory,2,,,,,,,sunajtrfunvzdfticna.jpg,,,,,,,,,,,,,,,
122,38,Memory,2,,,,,,,sunacsaovnjezqwbykf.jpg,,,,,,,,,,,,,,,
123,38,Memory,2,,,,,,,00262940128fa.jpg,,,,,,,,,,,,,,,
124,38,Memory,2,,,,,,,00125931230fa.jpg,,,,,,,,,,,,,,,
125,38,Memory,2,,,,,,,sunaakqepfoeqomfgxf.jpg,,,,,,,,,,,,,,,
126,38,Memory,2,,,,,,,00979960627fa.jpg,,,,,,,,,,,,,,,
127,38,Memory,2,,,,,,,00892960530fa.jpg,,,,,,,,,,,,,,,
128,38,Memory,2,,,,,,,sunalntxqqadigcletd.jpg,,,,,,,,,,,,,,,
129,38,Memory,2,,,,,,,sunaffgsyyvoqdlkmnk.jpg,,,,,,,,,,,,,,,
130,38,Memory,2,,,,,,,00754941201fa.jpg,,,,,,,,,,,,,,,
131,38,Memory,2,,,,,,,sunabizydfotqddlnjp.jpg,,,,,,,,,,,,,,,
132,38,Memory,2,,,,,,,00778941205fa.jpg,,,,,,,,,,,,,,,
133,38,Memory,2,,,,,,,00725941201fa.jpg,,,,,,,,,,,,,,,
134,38,Memory,2,,,,,,,sunbwtlihsuptkrckid.jpg,,,,,,,,,,,,,,,
135,38,Memory,2,,,,,,,sunadbdqzigzwipuipr.jpg,,,,,,,,,,,,,,,
136,38,Memory,2,,,,,,,sunaemcowdozyphwknd.jpg,,,,,,,,,,,,,,,
137,38,Memory,2,,,,,,,00069931230fb.jpg,,,,,,,,,,,,,,,
138,38,Memory,2,,,,,,,00858940307fa.jpg,,,,,,,,,,,,,,,
139,38,Memory,2,,,,,,,sunadikxpvqeabxrvvc.jpg,,,,,,,,,,,,,,,
140,38,Memory,2,,,,,,,sunaajqmsaavkmgbsth.jpg,,,,,,,,,,,,,,,
141,38,Memory,2,,,,,,,sunaavodbcpygkggnfp.jpg,,,,,,,,,,,,,,,
142,38,Memory,2,,,,,,,00650941031fa.jpg,,,,,,,,,,,,,,,
143,38,Memory,2,,,,,,,sunaalltyvjhbzhkmvg.jpg,,,,,,,,,,,,,,,
144,38,Memory,2,,,,,,,00741941201fa.jpg,,,,,,,,,,,,,,,
145,38,Memory,2,,,,,,,00116931230fa.jpg,,,,,,,,,,,,,,,
146,38,Memory,2,,,,,,,sunagcthdfirrcawoic.jpg,,,,,,,,,,,,,,,
147,38,Memory,2,,,,,,,00972960627fa.jpg,,,,,,,,,,,,,,,
148,38,Memory,2,,,,,,,00163931230fb.jpg,,,,,,,,,,,,,,,
149,38,Memory,2,,,,,,,01004960627fa.jpg,,,,,,,,,,,,,,,
150,38,Presentation,3,00719941201fa_sunadvithllcgmfxsrn.jpg,00147931230fb_sunaatpkocdkocwxpkb.jpg,00719941201fa.jpg,sunadvithllcgmfxsrn.jpg,00147931230fb.jpg,sunaatpkocdkocwxpkb.jpg,,,>,Place,,,,,1,,,,,,,x
151,38,Presentation,3,00942960627fa_sunarfdklgdnjgeqfjg.jpg,01010960627fa_suncnkvbhypnivcohyx.jpg,00942960627fa.jpg,sunarfdklgdnjgeqfjg.jpg,01010960627fa.jpg,suncnkvbhypnivcohyx.jpg,,,>,Place,,,,,1,,,,,,,x
152,38,Presentation,3,00292940422fb_sunabrjdpmoedcdjbpo.jpg,00903960620fa_sunanainkqdvktzoxyl.jpg,00292940422fb.jpg,sunabrjdpmoedcdjbpo.jpg,00903960620fa.jpg,sunanainkqdvktzoxyl.jpg,,,>,Place,,,,,0,,,,,,,o
153,38,Presentation,3,00296940422fa_sunabrwnslxalcohfre.jpg,00971960627fa_sunbbegcweqnetpdlrh.jpg,00296940422fa.jpg,sunabrwnslxalcohfre.jpg,00971960627fa.jpg,sunbbegcweqnetpdlrh.jpg,,,>,Place,,,,,1,,,,,,,x
154,38,Presentation,3,00838940307fa_sunaiozxhxgtfrmoagh.jpg,00901960530fa_sunammbnoambmhdxdwd.jpg,00838940307fa.jpg,sunaiozxhxgtfrmoagh.jpg,00901960530fa.jpg,sunammbnoambmhdxdwd.jpg,,,>,Place,,,,,1,,,,,,,x
155,38,Presentation,3,00827940307fa_sunahtfxgsrmkiulnwk.jpg,00120931230fa_sunaakxgygjfqrzpyoz.jpg,00827940307fa.jpg,sunahtfxgsrmkiulnwk.jpg,00120931230fa.jpg,sunaakxgygjfqrzpyoz.jpg,,,>,Place,,,,,1,,,,,,,x
156,38,Presentation,3,00154931230fa_sunaauueuhhvklldjik.jpg,00130931230fa_sunaamvxnvouicstkjb.jpg,00154931230fa.jpg,sunaauueuhhvklldjik.jpg,00130931230fa.jpg,sunaamvxnvouicstkjb.jpg,,,>,Place,,,,,0,,,,,,,x
157,38,Presentation,3,00910960530fa_sunaofikylqtxphvdem.jpg,00938960627fa_sunaqyylsngywqzwfmx.jpg,00910960530fa.jpg,sunaofikylqtxphvdem.jpg,00938960627fa.jpg,sunaqyylsngywqzwfmx.jpg,,,>,Place,,,,,1,,,,,,,x
158,38,Presentation,3,00742941201fa_sunaenwuebvlpdmntju.jpg,00750941201fa_sunaeuzwggvibufclwf.jpg,00742941201fa.jpg,sunaenwuebvlpdmntju.jpg,00750941201fa.jpg,sunaeuzwggvibufclwf.jpg,,,>,Place,,,,,1,,,,,,,x
159,38,Presentation,3,00982960627fa_sunbesrwkdsffeogeqq.jpg,00835940307fa_sunaijsqpvodplbwxkf.jpg,00982960627fa.jpg,sunbesrwkdsffeogeqq.jpg,00835940307fa.jpg,sunaijsqpvodplbwxkf.jpg,,,>,Place,,,,,1,,,,,,,x
160,38,Memory,3,,,,,,,00812941205fa.jpg,,,,,,,,,,,,,,,
161,38,Memory,3,,,,,,,sunahgtbwgsmtqeodwh.jpg,,,,,,,,,,,,,,,
162,38,Memory,3,,,,,,,sunbbegcweqnetpdlrh.jpg,,,,,,,,,,,,,,,
163,38,Memory,3,,,,,,,00982960627fa.jpg,,,,,,,,,,,,,,,
164,38,Memory,3,,,,,,,sunabppokiyglaxpcha.jpg,,,,,,,,,,,,,,,
165,38,Memory,3,,,,,,,00938960627fa.jpg,,,,,,,,,,,,,,,
166,38,Memory,3,,,,,,,00854940307fa.jpg,,,,,,,,,,,,,,,
167,38,Memory,3,,,,,,,00115931230fa.jpg,,,,,,,,,,,,,,,
168,38,Memory,3,,,,,,,00120931230fa.jpg,,,,,,,,,,,,,,,
169,38,Memory,3,,,,,,,00971960627fa.jpg,,,,,,,,,,,,,,,
170,38,Memory,3,,,,,,,00985960627fa.jpg,,,,,,,,,,,,,,,
171,38,Memory,3,,,,,,,suncnkvbhypnivcohyx.jpg,,,,,,,,,,,,,,,
172,38,Memory,3,,,,,,,sunaakxgygjfqrzpyoz.jpg,,,,,,,,,,,,,,,
173,38,Memory,3,,,,,,,00838940307fa.jpg,,,,,,,,,,,,,,,
174,38,Memory,3,,,,,,,00062931230fb.jpg,,,,,,,,,,,,,,,
175,38,Memory,3,,,,,,,sunaiwduelojtwaqeyh.jpg,,,,,,,,,,,,,,,
176,38,Memory,3,,,,,,,sunbgklxeqjhdbyfhhy.jpg,,,,,,,,,,,,,,,
177,38,Memory,3,,,,,,,sunabasphceswhwwqvv.jpg,,,,,,,,,,,,,,,
178,38,Memory,3,,,,,,,sunaavchcbptaerhcfy.jpg,,,,,,,,,,,,,,,
179,38,Memory,3,,,,,,,sunbesrwkdsffeogeqq.jpg,,,,,,,,,,,,,,,
180,38,Memory,3,,,,,,,sunabrjdpmoedcdjbpo.jpg,,,,,,,,,,,,,,,
181,38,Memory,3,,,,,,,sunaenwuebvlpdmntju.jpg,,,,,,,,,,,,,,,
182,38,Memory,3,,,,,,,00292940422fb.jpg,,,,,,,,,,,,,,,
183,38,Memory,3,,,,,,,00742941201fa.jpg,,,,,,,,,,,,,,,
184,38,Memory,3,,,,,,,sunaiozxhxgtfrmoagh.jpg,,,,,,,,,,,,,,,
185,38,Memory,3,,,,,,,sunaqyylsngywqzwfmx.jpg,,,,,,,,,,,,,,,
186,38,Memory,3,,,,,,,00158931230fb.jpg,,,,,,,,,,,,,,,
187,38,Memory,3,,,,,,,00211940128fa.jpg,,,,,,,,,,,,,,,
188,38,Memory,3,,,,,,,sunadvithllcgmfxsrn.jpg,,,,,,,,,,,,,,,
189,38,Memory,3,,,,,,,01010960627fa.jpg,,,,,,,,,,,,,,,
190,38,Memory,3,,,,,,,sunagmwxxwymwojbvgi.jpg,,,,,,,,,,,,,,,
191,38,Memory,3,,,,,,,00749941201fa.jpg,,,,,,,,,,,,,,,
192,38,Memory,3,,,,,,,sunaeuvjbmdpknaqqaj.jpg,,,,,,,,,,,,,,,
193,38,Memory,3,,,,,,,00288940422fa.jpg,,,,,,,,,,,,,,,
194,38,Memory,3,,,,,,,00719941201fa.jpg,,,,,,,,,,,,,,,
195,38,Memory,3,,,,,,,sunaakmxzhuceuiryah.jpg,,,,,,,,,,,,,,,
196,38,Memory,3,,,,,,,sunaijsqpvodplbwxkf.jpg,,,,,,,,,,,,,,,
197,38,Memory,3,,,,,,,00787941205fa.jpg,,,,,,,,,,,,,,,
198,38,Memory,3,,,,,,,sunaaelotvjgibjtjhs.jpg,,,,,,,,,,,,,,,
199,38,Memory,3,,,,,,,00835940307fa.jpg,,,,,,,,,,,,,,,
200,38,Presentation,4,00893960530Fa_sunaloffvbvysigxent.jpg,00070940307fa_sunaaeplwsfslcbtojr.jpg,00893960530Fa.jpg,sunaloffvbvysigxent.jpg,00070940307fa.jpg,sunaaeplwsfslcbtojr.jpg,,,<,Face,,,,,1,,,,,,,x
201,38,Presentation,4,00086931230fa_sunaafynehyrzpsoaml.jpg,00978960627fa_sunbddbivbptlrlauhy.jpg,00086931230fa.jpg,sunaafynehyrzpsoaml.jpg,00978960627fa.jpg,sunbddbivbptlrlauhy.jpg,,,<,Face,,,,,1,,,,,,,x
202,38,Presentation,4,00864940307fa_sunajawzbrlrwafowen.jpg,00214940128fa_sunabbafjowbzcvbucc.jpg,00864940307fa.jpg,sunajawzbrlrwafowen.jpg,00214940128fa.jpg,sunabbafjowbzcvbucc.jpg,,,<,Face,,,,,1,,,,,,,o
203,38,Presentation,4,00799941205fa_sunagutjvdvnhxejerz.jpg,00889960530fa_sunaletopenvvozhpxc.jpg,00799941205fa.jpg,sunagutjvdvnhxejerz.jpg,00889960530fa.jpg,sunaletopenvvozhpxc.jpg,,,<,Face,,,,,1,,,,,,,x
204,38,Presentation,4,00636941031fa_sunaddtdkycxbqlpfqa.jpg,00529940519fa_sunacbeefkxpymwevpk.jpg,00636941031fa.jpg,sunaddtdkycxbqlpfqa.jpg,00529940519fa.jpg,sunacbeefkxpymwevpk.jpg,,,<,Face,,,,,1,,,,,,,o
205,38,Presentation,4,00783941205fa_sunagjeesomrwjsfqie.jpg,00184940128fa_sunaavtbadenwnzeutj.jpg,00783941205fa.jpg,sunagjeesomrwjsfqie.jpg,00184940128fa.jpg,sunaavtbadenwnzeutj.jpg,,,<,Face,,,,,1,,,,,,,o
206,38,Presentation,4,00193940928fa_sunaaxjpzcnxligjtjq.jpg,00061931230fb_sunaaekxzjzrfgtkwjf.jpg,00193940928fa.jpg,sunaaxjpzcnxligjtjq.jpg,00061931230fb.jpg,sunaaekxzjzrfgtkwjf.jpg,,,<,Face,,,,,1,,,,,,,o
207,38,Presentation,4,01000960627fa_sunbvzmgrdvaakxusbu.jpg,00290940422fa_sunabqowuarvqqcnipn.jpg,01000960627fa.jpg,sunbvzmgrdvaakxusbu.jpg,00290940422fa.jpg,sunabqowuarvqqcnipn.jpg,,,<,Face,,,,,0,,,,,,,x
208,38,Presentation,4,00829940307fa_sunahwgbqkqcrwprgvh.jpg,00834940307fa_sunaibnpvhkdpdnzcnz.jpg,00829940307fa.jpg,sunahwgbqkqcrwprgvh.jpg,00834940307fa.jpg,sunaibnpvhkdpdnzcnz.jpg,,,<,Face,,,,,1,,,,,,,o
209,38,Presentation,4,00498960627fa_sunabzjxlmkwnwzimua.jpg,01005960627fa_sunbwyuesflwdpqtgoy.jpg,00498960627fa.jpg,sunabzjxlmkwnwzimua.jpg,01005960627fa.jpg,sunbwyuesflwdpqtgoy.jpg,,,<,Face,,,,,1,,,,,,,x
210,38,Memory,4,,,,,,,00893960530Fa.jpg,,,,,,,,,,,,,,,
211,38,Memory,4,,,,,,,00267940128fb.jpg,,,,,,,,,,,,,,,
212,38,Memory,4,,,,,,,00876960620fa.jpg,,,,,,,,,,,,,,,
213,38,Memory,4,,,,,,,sunaletopenvvozhpxc.jpg,,,,,,,,,,,,,,,
214,38,Memory,4,,,,,,,sunagutjvdvnhxejerz.jpg,,,,,,,,,,,,,,,
215,38,Memory,4,,,,,,,00889960530fa.jpg,,,,,,,,,,,,,,,
216,38,Memory,4,,,,,,,00574940928fa.jpg,,,,,,,,,,,,,,,
217,38,Memory,4,,,,,,,sunaavtbadenwnzeutj.jpg,,,,,,,,,,,,,,,
218,38,Memory,4,,,,,,,sunagjeesomrwjsfqie.jpg,,,,,,,,,,,,,,,
219,38,Memory,4,,,,,,,sunbddbivbptlrlauhy.jpg,,,,,,,,,,,,,,,
220,38,Memory,4,,,,,,,sunabtlfmiwtljmoues.jpg,,,,,,,,,,,,,,,
221,38,Memory,4,,,,,,,sunajawzbrlrwafowen.jpg,,,,,,,,,,,,,,,
222,38,Memory,4,,,,,,,00290940422fa.jpg,,,,,,,,,,,,,,,
223,38,Memory,4,,,,,,,00694941121fa.jpg,,,,,,,,,,,,,,,
224,38,Memory,4,,,,,,,sunahmhrncocyhsjpxk.jpg,,,,,,,,,,,,,,,
225,38,Memory,4,,,,,,,00978960627fa.jpg,,,,,,,,,,,,,,,
226,38,Memory,4,,,,,,,00931960627fa.jpg,,,,,,,,,,,,,,,
227,38,Memory,4,,,,,,,sunabxmguapjekttvwm.jpg,,,,,,,,,,,,,,,
228,38,Memory,4,,,,,,,00799941205fa.jpg,,,,,,,,,,,,,,,
229,38,Memory,4,,,,,,,sunahwgbqkqcrwprgvh.jpg,,,,,,,,,,,,,,,
230,38,Memory,4,,,,,,,00834940307fa.jpg,,,,,,,,,,,,,,,
231,38,Memory,4,,,,,,,00783941205fa.jpg,,,,,,,,,,,,,,,
232,38,Memory,4,,,,,,,00877960530fa.jpg,,,,,,,,,,,,,,,
233,38,Memory,4,,,,,,,sunacvbrcejzwmcgnoq.jpg,,,,,,,,,,,,,,,
234,38,Memory,4,,,,,,,sunablfqiwfqomjarht.jpg,,,,,,,,,,,,,,,
235,38,Memory,4,,,,,,,sunajxpkuhbizeveguy.jpg,,,,,,,,,,,,,,,
236,38,Memory,4,,,,,,,00316940422fa.jpg,,,,,,,,,,,,,,,
237,38,Memory,4,,,,,,,sunadrmfzmstgdjdcod.jpg,,,,,,,,,,,,,,,
238,38,Memory,4,,,,,,,00864940307fa.jpg,,,,,,,,,,,,,,,
239,38,Memory,4,,,,,,,sunaibnpvhkdpdnzcnz.jpg,,,,,,,,,,,,,,,
240,38,Memory,4,,,,,,,00184940128fa.jpg,,,,,,,,,,,,,,,
241,38,Memory,4,,,,,,,sunajwqkfsykceonyig.jpg,,,,,,,,,,,,,,,
242,38,Memory,4,,,,,,,00557940519fa.jpg,,,,,,,,,,,,,,,
243,38,Memory,4,,,,,,,sunaloffvbvysigxent.jpg,,,,,,,,,,,,,,,
244,38,Memory,4,,,,,,,sunachtuarilwyqnvjx.jpg,,,,,,,,,,,,,,,
245,38,Memory,4,,,,,,,sunabqowuarvqqcnipn.jpg,,,,,,,,,,,,,,,
246,38,Memory,4,,,,,,,sunaptrqvaooxfvktvw.jpg,,,,,,,,,,,,,,,
247,38,Memory,4,,,,,,,00302940422fa.jpg,,,,,,,,,,,,,,,
248,38,Memory,4,,,,,,,00816941205fa.jpg,,,,,,,,,,,,,,,
249,38,Memory,4,,,,,,,00829940307fa.jpg,,,,,,,,,,,,,,,
250,38,Presentation,5,00773941201fa_sunafvcflzhlqloapyo.jpg,00245940128fa_sunabeyhmxodahoieyk.jpg,00773941201fa.jpg,sunafvcflzhlqloapyo.jpg,00245940128fa.jpg,sunabeyhmxodahoieyk.jpg,,,>,Face,,,,,1,,,,,,,o
251,38,Presentation,5,00505960627fa_sunabzuqsrgcsonqlkz.jpg,00973960627fa_sunbbgtoeuzierkkajt.jpg,00505960627fa.jpg,sunabzuqsrgcsonqlkz.jpg,00973960627fa.jpg,sunbbgtoeuzierkkajt.jpg,,,>,Face,,,,,1,,,,,,,o
252,38,Presentation,5,00825940307fa_sunahrltmuwbiehihpe.jpg,00988960627fa_sunbmaiocftdtvnzgap.jpg,00825940307fa.jpg,sunahrltmuwbiehihpe.jpg,00988960627fa.jpg,sunbmaiocftdtvnzgap.jpg,,,>,Face,,,,,1,,,,,,,x
253,38,Presentation,5,00727941205fa_sunaeisnjeetzmkbuad.jpg,00744941201fa_sunaeomlfaabhpswasy.jpg,00727941205fa.jpg,sunaeisnjeetzmkbuad.jpg,00744941201fa.jpg,sunaeomlfaabhpswasy.jpg,,,>,Face,,,,,1,,,,,,,x
254,38,Presentation,5,00805941205fa_sunagwzdbtlixdhgolm.jpg,00109931230fa_sunaajuzribjrizdshh.jpg,00805941205fa.jpg,sunagwzdbtlixdhgolm.jpg,00109931230fa.jpg,sunaajuzribjrizdshh.jpg,,,>,Face,,,,,0,,,,,,,x
255,38,Presentation,5,00762941201fa_sunafgzgbisbopcyslr.jpg,00984960627fa_sunbfzchmomnvzhbxdg.jpg,00762941201fa.jpg,sunafgzgbisbopcyslr.jpg,00984960627fa.jpg,sunbfzchmomnvzhbxdg.jpg,,,>,Face,,,,,1,,,,,,,o
256,38,Presentation,5,00804960530fa_sunagwswhkvnsmuszlz.jpg,00532960627fa_sunaccdtpgenvcbcbcf.jpg,00804960530fa.jpg,sunagwswhkvnsmuszlz.jpg,00532960627fa.jpg,sunaccdtpgenvcbcbcf.jpg,,,>,Face,,,,,1,,,,,,,x
257,38,Presentation,5,00543940519fa_sunacepzfrmtkiqonpy.jpg,01011960627fa_sundahdxwmcdluscvot.jpg,00543940519fa.jpg,sunacepzfrmtkiqonpy.jpg,01011960627fa.jpg,sundahdxwmcdluscvot.jpg,,,>,Face,,,,,0,,,,,,,o
258,38,Presentation,5,00562941031fa_sunacjnahdmqfnjfwqx.jpg,00947960627fa_sunasmmcxdddtmtazwx.jpg,00562941031fa.jpg,sunacjnahdmqfnjfwqx.jpg,00947960627fa.jpg,sunasmmcxdddtmtazwx.jpg,,,>,Face,,,,,1,,,,,,,o
259,38,Presentation,5,00076931230fa_sunaafewhewbxmjiurz.jpg,00943960627fa_sunarpsxqkduedrrzyi.jpg,00076931230fa.jpg,sunaafewhewbxmjiurz.jpg,00943960627fa.jpg,sunarpsxqkduedrrzyi.jpg,,,>,Face,,,,,1,,,,,,,o
260,38,Memory,5,,,,,,,sunabmbnddafmywtjjj.jpg,,,,,,,,,,,,,,,
261,38,Memory,5,,,,,,,sunagvprlbprarvgdvj.jpg,,,,,,,,,,,,,,,
262,38,Memory,5,,,,,,,sunacjnahdmqfnjfwqx.jpg,,,,,,,,,,,,,,,
263,38,Memory,5,,,,,,,00801941205fa.jpg,,,,,,,,,,,,,,,
264,38,Memory,5,,,,,,,00543940519fa.jpg,,,,,,,,,,,,,,,
265,38,Memory,5,,,,,,,sunacepzfrmtkiqonpy.jpg,,,,,,,,,,,,,,,
266,38,Memory,5,,,,,,,00984960627fa.jpg,,,,,,,,,,,,,,,
267,38,Memory,5,,,,,,,00727941205fa.jpg,,,,,,,,,,,,,,,
268,38,Memory,5,,,,,,,00973960627fa.jpg,,,,,,,,,,,,,,,
269,38,Memory,5,,,,,,,sunaanptmsknhirrzed.jpg,,,,,,,,,,,,,,,
270,38,Memory,5,,,,,,,sunagwswhkvnsmuszlz.jpg,,,,,,,,,,,,,,,
271,38,Memory,5,,,,,,,sunaalcrrdbjgdztbiz.jpg,,,,,,,,,,,,,,,
272,38,Memory,5,,,,,,,sunafvcflzhlqloapyo.jpg,,,,,,,,,,,,,,,
273,38,Memory,5,,,,,,,00870940307fa.jpg,,,,,,,,,,,,,,,
274,38,Memory,5,,,,,,,sunbfzchmomnvzhbxdg.jpg,,,,,,,,,,,,,,,
275,38,Memory,5,,,,,,,sunarpsxqkduedrrzyi.jpg,,,,,,,,,,,,,,,
276,38,Memory,5,,,,,,,00804960530fa.jpg,,,,,,,,,,,,,,,
277,38,Memory,5,,,,,,,sunasmmcxdddtmtazwx.jpg,,,,,,,,,,,,,,,
278,38,Memory,5,,,,,,,00773941201fa.jpg,,,,,,,,,,,,,,,
279,38,Memory,5,,,,,,,00221940128fa.jpg,,,,,,,,,,,,,,,
280,38,Memory,5,,,,,,,sunabcfpwlpolnutyju.jpg,,,,,,,,,,,,,,,
281,38,Memory,5,,,,,,,00271940422fa.jpg,,,,,,,,,,,,,,,
282,38,Memory,5,,,,,,,sunbbgtoeuzierkkajt.jpg,,,,,,,,,,,,,,,
283,38,Memory,5,,,,,,,00123931230fb.jpg,,,,,,,,,,,,,,,
284,38,Memory,5,,,,,,,sunaeisnjeetzmkbuad.jpg,,,,,,,,,,,,,,,
285,38,Memory,5,,,,,,,00862940307fa.jpg,,,,,,,,,,,,,,,
286,38,Memory,5,,,,,,,00943960627fa.jpg,,,,,,,,,,,,,,,
287,38,Memory,5,,,,,,,00532960627fa.jpg,,,,,,,,,,,,,,,
288,38,Memory,5,,,,,,,00562941031fa.jpg,,,,,,,,,,,,,,,
289,38,Memory,5,,,,,,,00959960627fa.jpg,,,,,,,,,,,,,,,
290,38,Memory,5,,,,,,,00933960627fa.jpg,,,,,,,,,,,,,,,
291,38,Memory,5,,,,,,,00947960627fa.jpg,,,,,,,,,,,,,,,
292,38,Memory,5,,,,,,,sunaccdtpgenvcbcbcf.jpg,,,,,,,,,,,,,,,
293,38,Memory,5,,,,,,,sunavxokzybtomhbmvm.jpg,,,,,,,,,,,,,,,
294,38,Memory,5,,,,,,,sunaizgnnplsvajzhkc.jpg,,,,,,,,,,,,,,,
295,38,Memory,5,,,,,,,00136931230fb.jpg,,,,,,,,,,,,,,,
296,38,Memory,5,,,,,,,sunacsdhbbsybcyxnel.jpg,,,,,,,,,,,,,,,
297,38,Memory,5,,,,,,,sunajrgtewnualfcerj.jpg,,,,,,,,,,,,,,,
298,38,Memory,5,,,,,,,sunapwjkcxdaeqehfql.jpg,,,,,,,,,,,,,,,
299,38,Memory,5,,,,,,,00568940928fa.jpg,,,,,,,,,,,,,,,
300,38,Presentation,6,00968960627fa_sunbagfpovqwbuexqdn.jpg,01207940128fa_sundbixjudsgeuuehrn.jpg,00968960627fa.jpg,sunbagfpovqwbuexqdn.jpg,01207940128fa.jpg,sundbixjudsgeuuehrn.jpg,,,<,Face,,,,,1,,,,,,,x
301,38,Presentation,6,00884960530fa_sunakodkcslgqhqlgwl.jpg,00071941031fa_sunaaexqbtdswxrqjvz.jpg,00884960530fa.jpg,sunakodkcslgqhqlgwl.jpg,00071941031fa.jpg,sunaaexqbtdswxrqjvz.jpg,,,<,Face,,,,,1,,,,,,,x
302,38,Presentation,6,00700941121fa_sunadsgmtznewzyasnk.jpg,00860940307fa_sunaizeyhvjzknwjudw.jpg,00700941121fa.jpg,sunadsgmtznewzyasnk.jpg,00860940307fa.jpg,sunaizeyhvjzknwjudw.jpg,,,<,Face,,,,,1,,,,,,,x
303,38,Presentation,6,00676941121fa_sunadpnqovzckyikrjo.jpg,00773960620fa_sunafvsxtzaizojicxx.jpg,00676941121fa.jpg,sunadpnqovzckyikrjo.jpg,00773960620fa.jpg,sunafvsxtzaizojicxx.jpg,,,<,Face,,,,,1,,,,,,,o
304,38,Presentation,6,00768941205fa_sunafkmnlytenlsywia.jpg,00983960627fa_sunbfyvfqiimvdaxlqn.jpg,00768941205fa.jpg,sunafkmnlytenlsywia.jpg,00983960627fa.jpg,sunbfyvfqiimvdaxlqn.jpg,,,<,Face,,,,,1,,,,,,,o
305,38,Presentation,6,00197940128fa_sunaaylzyqlqrsmfwif.jpg,00630941031fa_sunadakkdovnuzlycvp.jpg,00197940128fa.jpg,sunaaylzyqlqrsmfwif.jpg,00630941031fa.jpg,sunadakkdovnuzlycvp.jpg,,,<,Face,,,,,1,,,,,,,x
306,38,Presentation,6,00095931230fa_sunaahzooisqkwlxwoz.jpg,00847940307fa_sunaivdjruhkrfywfed.jpg,00095931230fa.jpg,sunaahzooisqkwlxwoz.jpg,00847940307fa.jpg,sunaivdjruhkrfywfed.jpg,,,<,Face,,,,,1,,,,,,,x
307,38,Presentation,6,01003960627fb_sunbwdrdvsweerwsdrj.jpg,00675941121fa_sunadoxcchtmsxewsau.jpg,01003960627fb.jpg,sunbwdrdvsweerwsdrj.jpg,00675941121fa.jpg,sunadoxcchtmsxewsau.jpg,,,<,Face,,,,,1,,,,,,,x
308,38,Presentation,6,00260940128fa_sunabgfhvifeijihhjw.jpg,00097931230fa_sunaajayojuslbbnneg.jpg,00260940128fa.jpg,sunabgfhvifeijihhjw.jpg,00097931230fa.jpg,sunaajayojuslbbnneg.jpg,,,<,Face,,,,,1,,,,,,,x
309,38,Presentation,6,00815941205fa_sunahiphsekjihkafsl.jpg,00986960627fa_sunbgzjryivyczuvkvm.jpg,00815941205fa.jpg,sunahiphsekjihkafsl.jpg,00986960627fa.jpg,sunbgzjryivyczuvkvm.jpg,,,<,Face,,,,,1,,,,,,,x
310,38,Memory,6,,,,,,,sunabckqabszusgcykj.jpg,,,,,,,,,,,,,,,
311,38,Memory,6,,,,,,,00146960620fb.jpg,,,,,,,,,,,,,,,
312,38,Memory,6,,,,,,,00662941121fa.jpg,,,,,,,,,,,,,,,
313,38,Memory,6,,,,,,,01003960627fb.jpg,,,,,,,,,,,,,,,
314,38,Memory,6,,,,,,,00986960627fa.jpg,,,,,,,,,,,,,,,
315,38,Memory,6,,,,,,,sunabwmcbaxwioksdgw.jpg,,,,,,,,,,,,,,,
316,38,Memory,6,,,,,,,00314940422fa.jpg,,,,,,,,,,,,,,,
317,38,Memory,6,,,,,,,sunaatpeezlljqaxlhj.jpg,,,,,,,,,,,,,,,
318,38,Memory,6,,,,,,,sunadakkdovnuzlycvp.jpg,,,,,,,,,,,,,,,
319,38,Memory,6,,,,,,,sunbwdrdvsweerwsdrj.jpg,,,,,,,,,,,,,,,
320,38,Memory,6,,,,,,,00260940128fa.jpg,,,,,,,,,,,,,,,
321,38,Memory,6,,,,,,,00728941205fa.jpg,,,,,,,,,,,,,,,
322,38,Memory,6,,,,,,,sunbgzjryivyczuvkvm.jpg,,,,,,,,,,,,,,,
323,38,Memory,6,,,,,,,sunalkiibhqpxfamlll.jpg,,,,,,,,,,,,,,,
324,38,Memory,6,,,,,,,sunafkmnlytenlsywia.jpg,,,,,,,,,,,,,,,
325,38,Memory,6,,,,,,,sunadnjjzohjhbohlwq.jpg,,,,,,,,,,,,,,,
326,38,Memory,6,,,,,,,00197940128fa.jpg,,,,,,,,,,,,,,,
327,38,Memory,6,,,,,,,00768941205fa.jpg,,,,,,,,,,,,,,,
328,38,Memory,6,,,,,,,00630941031fa.jpg,,,,,,,,,,,,,,,
329,38,Memory,6,,,,,,,01207940128fa.jpg,,,,,,,,,,,,,,,
330,38,Memory,6,,,,,,,sunaejnvnpltdmhbcsi.jpg,,,,,,,,,,,,,,,
331,38,Memory,6,,,,,,,sunaaftlyfudyzuhqzf.jpg,,,,,,,,,,,,,,,
332,38,Memory,6,,,,,,,sunathzzbcwjykldrem.jpg,,,,,,,,,,,,,,,
333,38,Memory,6,,,,,,,sunafvsxtzaizojicxx.jpg,,,,,,,,,,,,,,,
334,38,Memory,6,,,,,,,00773960620fa.jpg,,,,,,,,,,,,,,,
335,38,Memory,6,,,,,,,00663941121fa.jpg,,,,,,,,,,,,,,,
336,38,Memory,6,,,,,,,sunabgfhvifeijihhjw.jpg,,,,,,,,,,,,,,,
337,38,Memory,6,,,,,,,00952960627fa.jpg,,,,,,,,,,,,,,,
338,38,Memory,6,,,,,,,00227940128fa.jpg,,,,,,,,,,,,,,,
339,38,Memory,6,,,,,,,sunaivdjruhkrfywfed.jpg,,,,,,,,,,,,,,,
340,38,Memory,6,,,,,,,00847940307fa.jpg,,,,,,,,,,,,,,,
341,38,Memory,6,,,,,,,sunadkazmlajmohnwfl.jpg,,,,,,,,,,,,,,,
342,38,Memory,6,,,,,,,00787960620fa.jpg,,,,,,,,,,,,,,,
343,38,Memory,6,,,,,,,00676941121fa.jpg,,,,,,,,,,,,,,,
344,38,Memory,6,,,,,,,sunadpnqovzckyikrjo.jpg,,,,,,,,,,,,,,,
345,38,Memory,6,,,,,,,sunagoufulkpsxrmklt.jpg,,,,,,,,,,,,,,,
346,38,Memory,6,,,,,,,sunaaylzyqlqrsmfwif.jpg,,,,,,,,,,,,,,,
347,38,Memory,6,,,,,,,sundbixjudsgeuuehrn.jpg,,,,,,,,,,,,,,,
348,38,Memory,6,,,,,,,00081941031fa.jpg,,,,,,,,,,,,,,,
349,38,Memory,6,,,,,,,00891960530fa.jpg,,,,,,,,,,,,,,,
350,38,Presentation,7,00723941201fa_sunaedtgwjvvziytspa.jpg,00647941031fa_sunadflbrkckmepztql.jpg,00723941201fa.jpg,sunaedtgwjvvziytspa.jpg,00647941031fa.jpg,sunadflbrkckmepztql.jpg,,,>,Place,,,,,1,,,,,,,o
351,38,Presentation,7,00919960620fa_sunapmfmzadmosuogaz.jpg,00915960620fa_sunapileznnbbmrwoei.jpg,00919960620fa.jpg,sunapmfmzadmosuogaz.jpg,00915960620fa.jpg,sunapileznnbbmrwoei.jpg,,,>,Place,,,,,1,,,,,,,o
352,38,Presentation,7,00960960627fa_sunawksfbacycuhbrsc.jpg,00908960530fa_sunanwjjyqqwzqrqagd.jpg,00960960627fa.jpg,sunawksfbacycuhbrsc.jpg,00908960530fa.jpg,sunanwjjyqqwzqrqagd.jpg,,,>,Place,,,,,1,,,,,,,x
353,38,Presentation,7,00775941205fa_sunafvwfsmqkjrutjta.jpg,00996960627fa_sunbpvgllfdejxcpjqp.jpg,00775941205fa.jpg,sunafvwfsmqkjrutjta.jpg,00996960627fa.jpg,sunbpvgllfdejxcpjqp.jpg,,,>,Place,,,,,1,,,,,,,o
354,38,Presentation,7,00763941205fa_sunafhmnhsdurlvddpw.jpg,00306940422fa_sunabueyoajufbkraki.jpg,00763941205fa.jpg,sunafhmnhsdurlvddpw.jpg,00306940422fa.jpg,sunabueyoajufbkraki.jpg,,,>,Place,,,,,1,,,,,,,o
355,38,Presentation,7,00771941205fa_sunafowswglhxcsufpo.jpg,00077931230fb_sunaafgqutfaishsxyu.jpg,00771941205fa.jpg,sunafowswglhxcsufpo.jpg,00077931230fb.jpg,sunaafgqutfaishsxyu.jpg,,,>,Place,,,,,1,,,,,,,x
356,38,Presentation,7,00132931230fb_sunaanjcbzdvtvblsdy.jpg,00746941201fa_sunaetydippjxikifsb.jpg,00132931230fb.jpg,sunaanjcbzdvtvblsdy.jpg,00746941201fa.jpg,sunaetydippjxikifsb.jpg,,,>,Place,,,,,1,,,,,,,o
357,38,Presentation,7,00993960627fa_sunbprywzqxjcezkbch.jpg,00548940519fa_sunacerqowiaeoqkmsq.jpg,00993960627fa.jpg,sunbprywzqxjcezkbch.jpg,00548940519fa.jpg,sunacerqowiaeoqkmsq.jpg,,,>,Place,,,,,1,,,,,,,o
358,38,Presentation,7,00209940128fb_sunabaergayifsgacxt.jpg,00800941205fb_sunagvjurcwdbixvnyi.jpg,00209940128fb.jpg,sunabaergayifsgacxt.jpg,00800941205fb.jpg,sunagvjurcwdbixvnyi.jpg,,,>,Place,,,,,1,,,,,,,o
359,38,Presentation,7,00921960627fa_sunapqkpqdfvxlbqwyo.jpg,00965960627fa_sunaydywdmvlfddbxbk.jpg,00921960627fa.jpg,sunapqkpqdfvxlbqwyo.jpg,00965960627fa.jpg,sunaydywdmvlfddbxbk.jpg,,,>,Place,,,,,1,,,,,,,x
360,38,Memory,7,,,,,,,sunbwaafjdebjzttuvq.jpg,,,,,,,,,,,,,,,
361,38,Memory,7,,,,,,,00185940422fb.jpg,,,,,,,,,,,,,,,
362,38,Memory,7,,,,,,,00782941205fa.jpg,,,,,,,,,,,,,,,
363,38,Memory,7,,,,,,,00313940422fa.jpg,,,,,,,,,,,,,,,
364,38,Memory,7,,,,,,,sunafowswglhxcsufpo.jpg,,,,,,,,,,,,,,,
365,38,Memory,7,,,,,,,00554940519fa.jpg,,,,,,,,,,,,,,,
366,38,Memory,7,,,,,,,sunagetqixeypsysbpn.jpg,,,,,,,,,,,,,,,
367,38,Memory,7,,,,,,,00902960530fa.jpg,,,,,,,,,,,,,,,
368,38,Memory,7,,,,,,,sunacfdkbsrughwqwtt.jpg,,,,,,,,,,,,,,,
369,38,Memory,7,,,,,,,00908960530fa.jpg,,,,,,,,,,,,,,,
370,38,Memory,7,,,,,,,00965960627fa.jpg,,,,,,,,,,,,,,,
371,38,Memory,7,,,,,,,00132931230fb.jpg,,,,,,,,,,,,,,,
372,38,Memory,7,,,,,,,sunagvjurcwdbixvnyi.jpg,,,,,,,,,,,,,,,
373,38,Memory,7,,,,,,,sunaawqdbpihmlbwyyn.jpg,,,,,,,,,,,,,,,
374,38,Memory,7,,,,,,,sunaanjcbzdvtvblsdy.jpg,,,,,,,,,,,,,,,
375,38,Memory,7,,,,,,,00723941201fa.jpg,,,,,,,,,,,,,,,
376,38,Memory,7,,,,,,,00060931230fa.jpg,,,,,,,,,,,,,,,
377,38,Memory,7,,,,,,,sunafvwfsmqkjrutjta.jpg,,,,,,,,,,,,,,,
378,38,Memory,7,,,,,,,sunabjuovqvyfuzvqwt.jpg,,,,,,,,,,,,,,,
379,38,Memory,7,,,,,,,sunanwjjyqqwzqrqagd.jpg,,,,,,,,,,,,,,,
380,38,Memory,7,,,,,,,sunbpvgllfdejxcpjqp.jpg,,,,,,,,,,,,,,,
381,38,Memory,7,,,,,,,00771941205fa.jpg,,,,,,,,,,,,,,,
382,38,Memory,7,,,,,,,00263940128fb.jpg,,,,,,,,,,,,,,,
383,38,Memory,7,,,,,,,00647941031fa.jpg,,,,,,,,,,,,,,,
384,38,Memory,7,,,,,,,00996960627fa.jpg,,,,,,,,,,,,,,,
385,38,Memory,7,,,,,,,sunaaehaikpckyjsety.jpg,,,,,,,,,,,,,,,
386,38,Memory,7,,,,,,,sunbprywzqxjcezkbch.jpg,,,,,,,,,,,,,,,
387,38,Memory,7,,,,,,,00780960530fa.jpg,,,,,,,,,,,,,,,
388,38,Memory,7,,,,,,,00775941205fa.jpg,,,,,,,,,,,,,,,
389,38,Memory,7,,,,,,,sunadflbrkckmepztql.jpg,,,,,,,,,,,,,,,
390,38,Memory,7,,,,,,,sunagfvluwixdsozaql.jpg,,,,,,,,,,,,,,,
391,38,Memory,7,,,,,,,sunabwjvmoaddlyxfjr.jpg,,,,,,,,,,,,,,,
392,38,Memory,7,,,,,,,sunbvbrvgbpanfrawft.jpg,,,,,,,,,,,,,,,
393,38,Memory,7,,,,,,,01002960627fb.jpg,,,,,,,,,,,,,,,
394,38,Memory,7,,,,,,,sunaydywdmvlfddbxbk.jpg,,,,,,,,,,,,,,,
395,38,Memory,7,,,,,,,00800941205fb.jpg,,,,,,,,,,,,,,,
396,38,Memory,7,,,,,,,sunaedtgwjvvziytspa.jpg,,,,,,,,,,,,,,,
397,38,Memory,7,,,,,,,00999960627fa.jpg,,,,,,,,,,,,,,,
398,38,Memory,7,,,,,,,00993960627fa.jpg,,,,,,,,,,,,,,,
399,38,Memory,7,,,,,,,sunanaacmmosxrfwmvl.jpg,,,,,,,,,,,,,,,
