,Subject,Trial Type,Run,Cued Composite,Uncued Composite,Cued Face,Cued Place,Uncued Face,Uncued Place,Memory Image,Category,Cued Side,Cued Category,Attention Reaction Time (s),Familiarity Reaction Time (s),Familiarity Rating,Attention Level,Cue Validity,Post Invalid Cue,Pre Invalid Cue,Attention Button,Rating History,Stimulus Onset,Stimulus End,Attention Probe
0,19,Presentation,0,00827940307fa_sunahtfxgsrmkiulnwk.jpg,00950960627fa_sunasrjlmglmjzbmqxb.jpg,00827940307fa.jpg,sunahtfxgsrmkiulnwk.jpg,00950960627fa.jpg,sunasrjlmglmjzbmqxb.jpg,,,>,Place,,,,,1,,,,,,,o
1,19,Presentation,0,00944960627fa_sunasbbntuiheekqyaq.jpg,00921960627fa_sunapqkpqdfvxlbqwyo.jpg,00944960627fa.jpg,sunasbbntuiheekqyaq.jpg,00921960627fa.jpg,sunapqkpqdfvxlbqwyo.jpg,,,<,Place,,,,,1,,,,,,,x
2,19,Presentation,0,00264940128fb_sunabjzyxcjnmztdonj.jpg,00762941201fa_sunafgzgbisbopcyslr.jpg,00264940128fb.jpg,sunabjzyxcjnmztdonj.jpg,00762941201fa.jpg,sunafgzgbisbopcyslr.jpg,,,<,Place,,,,,1,,,,,,,o
3,19,Presentation,0,00990960627fa_sunbpflsdaxnddnwcqi.jpg,00894960620fa_sunalqmfgeadpqsyzpd.jpg,00990960627fa.jpg,sunbpflsdaxnddnwcqi.jpg,00894960620fa.jpg,sunalqmfgeadpqsyzpd.jpg,,,>,Face,,,,,1,,,,,,,x
4,19,Presentation,0,00211940128fa_sunabasphceswhwwqvv.jpg,00122931230fa_sunaakxjfbrrequcjmx.jpg,00211940128fa.jpg,sunabasphceswhwwqvv.jpg,00122931230fa.jpg,sunaakxjfbrrequcjmx.jpg,,,<,Face,,,,,1,,,,,,,x
5,19,Presentation,0,00983960627fa_sunbfyvfqiimvdaxlqn.jpg,00120931230fa_sunaakxgygjfqrzpyoz.jpg,00983960627fa.jpg,sunbfyvfqiimvdaxlqn.jpg,00120931230fa.jpg,sunaakxgygjfqrzpyoz.jpg,,,>,Place,,,,,0,,,,,,,o
6,19,Presentation,0,00825940307fa_sunahrltmuwbiehihpe.jpg,00089931230fa_sunaagcpoejbuzyvddd.jpg,00825940307fa.jpg,sunahrltmuwbiehihpe.jpg,00089931230fa.jpg,sunaagcpoejbuzyvddd.jpg,,,<,Place,,,,,1,,,,,,,x
7,19,Presentation,0,00884960530fa_sunakodkcslgqhqlgwl.jpg,00505960627fa_sunabzuqsrgcsonqlkz.jpg,00884960530fa.jpg,sunakodkcslgqhqlgwl.jpg,00505960627fa.jpg,sunabzuqsrgcsonqlkz.jpg,,,<,Face,,,,,1,,,,,,,x
8,19,Presentation,0,00620940928fa_sunacypmnujalygkunp.jpg,01003960627fb_sunbwdrdvsweerwsdrj.jpg,00620940928fa.jpg,sunacypmnujalygkunp.jpg,01003960627fb.jpg,sunbwdrdvsweerwsdrj.jpg,,,>,Face,,,,,1,,,,,,,x
9,19,Presentation,0,00115931230fa_sunaakmxzhuceuiryah.jpg,01000960627fa_sunbvzmgrdvaakxusbu.jpg,00115931230fa.jpg,sunaakmxzhuceuiryah.jpg,01000960627fa.jpg,sunbvzmgrdvaakxusbu.jpg,,,>,Face,,,,,1,,,,,,,o
10,19,Memory,0,,,,,,,sunagcinxkccdtrjmlv.jpg,,,,,,,,,,,,,,,
11,19,Memory,0,,,,,,,sunabkmdplkdbvxriff.jpg,,,,,,,,,,,,,,,
12,19,Memory,0,,,,,,,sunaazzyhbvqjpmazjq.jpg,,,,,,,,,,,,,,,
13,19,Memory,0,,,,,,,00931960627fa.jpg,,,,,,,,,,,,,,,
14,19,Memory,0,,,,,,,00921960627fa.jpg,,,,,,,,,,,,,,,
15,19,Memory,0,,,,,,,00825940307fa.jpg,,,,,,,,,,,,,,,
16,19,Memory,0,,,,,,,00089931230fa.jpg,,,,,,,,,,,,,,,
17,19,Memory,0,,,,,,,sunalqmfgeadpqsyzpd.jpg,,,,,,,,,,,,,,,
18,19,Memory,0,,,,,,,sunaagcpoejbuzyvddd.jpg,,,,,,,,,,,,,,,
19,19,Memory,0,,,,,,,00564940928fa.jpg,,,,,,,,,,,,,,,
20,19,Memory,0,,,,,,,sunaptrqvaooxfvktvw.jpg,,,,,,,,,,,,,,,
21,19,Memory,0,,,,,,,00208940128fa.jpg,,,,,,,,,,,,,,,
22,19,Memory,0,,,,,,,00264940128fb.jpg,,,,,,,,,,,,,,,
23,19,Memory,0,,,,,,,00990960627fa.jpg,,,,,,,,,,,,,,,
24,19,Memory,0,,,,,,,00122931230fa.jpg,,,,,,,,,,,,,,,
25,19,Memory,0,,,,,,,sunbpflsdaxnddnwcqi.jpg,,,,,,,,,,,,,,,
26,19,Memory,0,,,,,,,sunaeomlfaabhpswasy.jpg,,,,,,,,,,,,,,,
27,19,Memory,0,,,,,,,sunabjzyxcjnmztdonj.jpg,,,,,,,,,,,,,,,
28,19,Memory,0,,,,,,,00993960627fa.jpg,,,,,,,,,,,,,,,
29,19,Memory,0,,,,,,,00894960620fa.jpg,,,,,,,,,,,,,,,
30,19,Memory,0,,,,,,,sunbprywzqxjcezkbch.jpg,,,,,,,,,,,,,,,
31,19,Memory,0,,,,,,,00968960627fa.jpg,,,,,,,,,,,,,,,
32,19,Memory,0,,,,,,,sunakodkcslgqhqlgwl.jpg,,,,,,,,,,,,,,,
33,19,Memory,0,,,,,,,00884960530fa.jpg,,,,,,,,,,,,,,,
34,19,Memory,0,,,,,,,00127931230fa.jpg,,,,,,,,,,,,,,,
35,19,Memory,0,,,,,,,00950960627fa.jpg,,,,,,,,,,,,,,,
36,19,Memory,0,,,,,,,sunaauhozyxzeeqstxi.jpg,,,,,,,,,,,,,,,
37,19,Memory,0,,,,,,,00777941205fa.jpg,,,,,,,,,,,,,,,
38,19,Memory,0,,,,,,,sunacmpqqfbsvlzinzl.jpg,,,,,,,,,,,,,,,
39,19,Memory,0,,,,,,,sunaakxjfbrrequcjmx.jpg,,,,,,,,,,,,,,,
40,19,Memory,0,,,,,,,sunaampvucecsfbdafn.jpg,,,,,,,,,,,,,,,
41,19,Memory,0,,,,,,,00115931230fa.jpg,,,,,,,,,,,,,,,
42,19,Memory,0,,,,,,,00153931230fa.jpg,,,,,,,,,,,,,,,
43,19,Memory,0,,,,,,,sunapqkpqdfvxlbqwyo.jpg,,,,,,,,,,,,,,,
44,19,Memory,0,,,,,,,00265940128fb.jpg,,,,,,,,,,,,,,,
45,19,Memory,0,,,,,,,sunbagfpovqwbuexqdn.jpg,,,,,,,,,,,,,,,
46,19,Memory,0,,,,,,,00744941201fa.jpg,,,,,,,,,,,,,,,
47,19,Memory,0,,,,,,,sunahrltmuwbiehihpe.jpg,,,,,,,,,,,,,,,
48,19,Memory,0,,,,,,,sunasrjlmglmjzbmqxb.jpg,,,,,,,,,,,,,,,
49,19,Memory,0,,,,,,,sunaakmxzhuceuiryah.jpg,,,,,,,,,,,,,,,
50,19,Presentation,1,00727941205fa_sunaeisnjeetzmkbuad.jpg,00700941121fa_sunadsgmtznewzyasnk.jpg,00727941205fa.jpg,sunaeisnjeetzmkbuad.jpg,00700941121fa.jpg,sunadsgmtznewzyasnk.jpg,,,<,Face,,,,,1,,,,,,,o
51,19,Presentation,1,00774941201fa_sunafvtpfczkzopbgue.jpg,00194940128fb_sunaayehfdqcyxggsej.jpg,00774941201fa.jpg,sunafvtpfczkzopbgue.jpg,00194940128fb.jpg,sunaayehfdqcyxggsej.jpg,,,<,Place,,,,,1,,,,,,,x
52,19,Presentation,1,00787941205fa_sunagmwxxwymwojbvgi.jpg,00958960627fa_sunavspxmxubqaeidjt.jpg,00787941205fa.jpg,sunagmwxxwymwojbvgi.jpg,00958960627fa.jpg,sunavspxmxubqaeidjt.jpg,,,>,Face,,,,,1,,,,,,,x
53,19,Presentation,1,00532960627fa_sunaccdtpgenvcbcbcf.jpg,00306940422fa_sunabueyoajufbkraki.jpg,00532960627fa.jpg,sunaccdtpgenvcbcbcf.jpg,00306940422fa.jpg,sunabueyoajufbkraki.jpg,,,<,Place,,,,,1,,,,,,,o
54,19,Presentation,1,00987960627fa_sunbloeoiozwjjsiamp.jpg,00191940128fb_sunaawsdjisukbbginm.jpg,00987960627fa.jpg,sunbloeoiozwjjsiamp.jpg,00191940128fb.jpg,sunaawsdjisukbbginm.jpg,,,>,Face,,,,,1,,,,,,,x
55,19,Presentation,1,00997960627fa_sunbtpilbhhbmhmeuzq.jpg,00719941201fa_sunadvithllcgmfxsrn.jpg,00997960627fa.jpg,sunbtpilbhhbmhmeuzq.jpg,00719941201fa.jpg,sunadvithllcgmfxsrn.jpg,,,<,Face,,,,,1,,,,,,,o
56,19,Presentation,1,00149931230fa_sunaauglwmctnkxyird.jpg,00801941205fa_sunagvprlbprarvgdvj.jpg,00149931230fa.jpg,sunaauglwmctnkxyird.jpg,00801941205fa.jpg,sunagvprlbprarvgdvj.jpg,,,<,Place,,,,,1,,,,,,,x
57,19,Presentation,1,00262940128fa_sunabizydfotqddlnjp.jpg,00914960620fa_sunaozisvwfbmlkfhzv.jpg,00262940128fa.jpg,sunabizydfotqddlnjp.jpg,00914960620fa.jpg,sunaozisvwfbmlkfhzv.jpg,,,>,Place,,,,,1,,,,,,,o
58,19,Presentation,1,00828940307fa_sunahuynahneraqftyz.jpg,00227940128fa_sunabckqabszusgcykj.jpg,00828940307fa.jpg,sunahuynahneraqftyz.jpg,00227940128fa.jpg,sunabckqabszusgcykj.jpg,,,>,Face,,,,,1,,,,,,,o
59,19,Presentation,1,00959960627fa_sunavxokzybtomhbmvm.jpg,00483940519fa_sunabyvpwkgsjtijdwj.jpg,00959960627fa.jpg,sunavxokzybtomhbmvm.jpg,00483940519fa.jpg,sunabyvpwkgsjtijdwj.jpg,,,>,Place,,,,,1,,,,,,,o
60,19,Memory,1,,,,,,,00803941205fa.jpg,,,,,,,,,,,,,,,
61,19,Memory,1,,,,,,,00997960627fa.jpg,,,,,,,,,,,,,,,
62,19,Memory,1,,,,,,,sunaauglwmctnkxyird.jpg,,,,,,,,,,,,,,,
63,19,Memory,1,,,,,,,00914960620fa.jpg,,,,,,,,,,,,,,,
64,19,Memory,1,,,,,,,00267940128fb.jpg,,,,,,,,,,,,,,,
65,19,Memory,1,,,,,,,sunabueyoajufbkraki.jpg,,,,,,,,,,,,,,,
66,19,Memory,1,,,,,,,sunacjnahdmqfnjfwqx.jpg,,,,,,,,,,,,,,,
67,19,Memory,1,,,,,,,00719941201fa.jpg,,,,,,,,,,,,,,,
68,19,Memory,1,,,,,,,00306940422fa.jpg,,,,,,,,,,,,,,,
69,19,Memory,1,,,,,,,sunavxokzybtomhbmvm.jpg,,,,,,,,,,,,,,,
70,19,Memory,1,,,,,,,sunadvithllcgmfxsrn.jpg,,,,,,,,,,,,,,,
71,19,Memory,1,,,,,,,00787941205fa.jpg,,,,,,,,,,,,,,,
72,19,Memory,1,,,,,,,sunablfqiwfqomjarht.jpg,,,,,,,,,,,,,,,
73,19,Memory,1,,,,,,,sunabjuovqvyfuzvqwt.jpg,,,,,,,,,,,,,,,
74,19,Memory,1,,,,,,,sunbloeoiozwjjsiamp.jpg,,,,,,,,,,,,,,,
75,19,Memory,1,,,,,,,sunadpnqovzckyikrjo.jpg,,,,,,,,,,,,,,,
76,19,Memory,1,,,,,,,sunarfdklgdnjgeqfjg.jpg,,,,,,,,,,,,,,,
77,19,Memory,1,,,,,,,sunaayehfdqcyxggsej.jpg,,,,,,,,,,,,,,,
78,19,Memory,1,,,,,,,00742941201fa.jpg,,,,,,,,,,,,,,,
79,19,Memory,1,,,,,,,sunaozisvwfbmlkfhzv.jpg,,,,,,,,,,,,,,,
80,19,Memory,1,,,,,,,00676941121fa.jpg,,,,,,,,,,,,,,,
81,19,Memory,1,,,,,,,sunagvxkjokqimstxpe.jpg,,,,,,,,,,,,,,,
82,19,Memory,1,,,,,,,sunabckqabszusgcykj.jpg,,,,,,,,,,,,,,,
83,19,Memory,1,,,,,,,00562941031fa.jpg,,,,,,,,,,,,,,,
84,19,Memory,1,,,,,,,00235940128fb.jpg,,,,,,,,,,,,,,,
85,19,Memory,1,,,,,,,00263940128fb.jpg,,,,,,,,,,,,,,,
86,19,Memory,1,,,,,,,sunaenwuebvlpdmntju.jpg,,,,,,,,,,,,,,,
87,19,Memory,1,,,,,,,00194940128fb.jpg,,,,,,,,,,,,,,,
88,19,Memory,1,,,,,,,00942960627fa.jpg,,,,,,,,,,,,,,,
89,19,Memory,1,,,,,,,00149931230fa.jpg,,,,,,,,,,,,,,,
90,19,Memory,1,,,,,,,sunabclssnoeuigtawp.jpg,,,,,,,,,,,,,,,
91,19,Memory,1,,,,,,,00987960627fa.jpg,,,,,,,,,,,,,,,
92,19,Memory,1,,,,,,,00959960627fa.jpg,,,,,,,,,,,,,,,
93,19,Memory,1,,,,,,,sunapqwoeotxshkukbh.jpg,,,,,,,,,,,,,,,
94,19,Memory,1,,,,,,,sunagmwxxwymwojbvgi.jpg,,,,,,,,,,,,,,,
95,19,Memory,1,,,,,,,00227940128fa.jpg,,,,,,,,,,,,,,,
96,19,Memory,1,,,,,,,sunabctlikybqabezjv.jpg,,,,,,,,,,,,,,,
97,19,Memory,1,,,,,,,sunbtpilbhhbmhmeuzq.jpg,,,,,,,,,,,,,,,
98,19,Memory,1,,,,,,,00926960627Fa.jpg,,,,,,,,,,,,,,,
99,19,Memory,1,,,,,,,00239940128fa.jpg,,,,,,,,,,,,,,,
100,19,Presentation,2,00294940422fb_sunabrlndkruqokhury.jpg,00829940307fa_sunahwgbqkqcrwprgvh.jpg,00294940422fb.jpg,sunabrlndkruqokhury.jpg,00829940307fa.jpg,sunahwgbqkqcrwprgvh.jpg,,,>,Place,,,,,1,,,,,,,o
101,19,Presentation,2,00784941205fb_sunagjzcrjvmxzqzljx.jpg,00276940422fa_sunabmytpyhsgigllxu.jpg,00784941205fb.jpg,sunagjzcrjvmxzqzljx.jpg,00276940422fa.jpg,sunabmytpyhsgigllxu.jpg,,,>,Face,,,,,0,,,,,,,x
102,19,Presentation,2,00125931230fa_sunaalltyvjhbzhkmvg.jpg,00749941201fa_sunaeuvjbmdpknaqqaj.jpg,00125931230fa.jpg,sunaalltyvjhbzhkmvg.jpg,00749941201fa.jpg,sunaeuvjbmdpknaqqaj.jpg,,,<,Place,,,,,1,,,,,,,o
103,19,Presentation,2,00870940307fa_sunajrgtewnualfcerj.jpg,00770941201fa_sunaflojskatpeqyzqp.jpg,00870940307fa.jpg,sunajrgtewnualfcerj.jpg,00770941201fa.jpg,sunaflojskatpeqyzqp.jpg,,,>,Face,,,,,1,,,,,,,o
104,19,Presentation,2,00581940928fa_sunacvzhvcksnwqcqbw.jpg,00812941205fa_sunahgtbwgsmtqeodwh.jpg,00581940928fa.jpg,sunacvzhvcksnwqcqbw.jpg,00812941205fa.jpg,sunahgtbwgsmtqeodwh.jpg,,,<,Face,,,,,1,,,,,,,o
105,19,Presentation,2,00969960627fa_sunbaoizrfijvhpnnjn.jpg,00133931230fa_sunaanlwnpqndclffxt.jpg,00969960627fa.jpg,sunbaoizrfijvhpnnjn.jpg,00133931230fa.jpg,sunaanlwnpqndclffxt.jpg,,,>,Face,,,,,0,,,,,,,o
106,19,Presentation,2,00913960530fa_sunaooffzffbhcpirmm.jpg,00540940519fa_sunacdnquypmsshhsbk.jpg,00913960530fa.jpg,sunaooffzffbhcpirmm.jpg,00540940519fa.jpg,sunacdnquypmsshhsbk.jpg,,,<,Face,,,,,1,,,,,,,x
107,19,Presentation,2,00314940422fa_sunabwmcbaxwioksdgw.jpg,00557940519fa_sunachtuarilwyqnvjx.jpg,00314940422fa.jpg,sunabwmcbaxwioksdgw.jpg,00557940519fa.jpg,sunachtuarilwyqnvjx.jpg,,,>,Place,,,,,1,,,,,,,x
108,19,Presentation,2,00158931230fb_sunaavchcbptaerhcfy.jpg,00221940128fa_sunabcfpwlpolnutyju.jpg,00158931230fb.jpg,sunaavchcbptaerhcfy.jpg,00221940128fa.jpg,sunabcfpwlpolnutyju.jpg,,,<,Place,,,,,1,,,,,,,x
109,19,Presentation,2,00242940128fa_sunabcuurugvxwparpk.jpg,00754941201fa_sunaffgsyyvoqdlkmnk.jpg,00242940128fa.jpg,sunabcuurugvxwparpk.jpg,00754941201fa.jpg,sunaffgsyyvoqdlkmnk.jpg,,,<,Place,,,,,1,,,,,,,x
110,19,Memory,2,,,,,,,00754941201fa.jpg,,,,,,,,,,,,,,,
111,19,Memory,2,,,,,,,sunacdnquypmsshhsbk.jpg,,,,,,,,,,,,,,,
112,19,Memory,2,,,,,,,sunaalltyvjhbzhkmvg.jpg,,,,,,,,,,,,,,,
113,19,Memory,2,,,,,,,sunajjxttslobudoqbv.jpg,,,,,,,,,,,,,,,
114,19,Memory,2,,,,,,,sunbaoizrfijvhpnnjn.jpg,,,,,,,,,,,,,,,
115,19,Memory,2,,,,,,,00870940307fa.jpg,,,,,,,,,,,,,,,
116,19,Memory,2,,,,,,,01007960627fa.jpg,,,,,,,,,,,,,,,
117,19,Memory,2,,,,,,,00221940128fa.jpg,,,,,,,,,,,,,,,
118,19,Memory,2,,,,,,,sunajrgtewnualfcerj.jpg,,,,,,,,,,,,,,,
119,19,Memory,2,,,,,,,00812941205fa.jpg,,,,,,,,,,,,,,,
120,19,Memory,2,,,,,,,sunaffgsyyvoqdlkmnk.jpg,,,,,,,,,,,,,,,
121,19,Memory,2,,,,,,,00822940307fa.jpg,,,,,,,,,,,,,,,
122,19,Memory,2,,,,,,,sunaeuzwggvibufclwf.jpg,,,,,,,,,,,,,,,
123,19,Memory,2,,,,,,,00540940519fa.jpg,,,,,,,,,,,,,,,
124,19,Memory,2,,,,,,,sunahgtbwgsmtqeodwh.jpg,,,,,,,,,,,,,,,
125,19,Memory,2,,,,,,,sunbxarcshsnqsefemx.jpg,,,,,,,,,,,,,,,
126,19,Memory,2,,,,,,,sunbaejotfklekvpxcz.jpg,,,,,,,,,,,,,,,
127,19,Memory,2,,,,,,,sunabkngeblodihjvbk.jpg,,,,,,,,,,,,,,,
128,19,Memory,2,,,,,,,sunabcfpwlpolnutyju.jpg,,,,,,,,,,,,,,,
129,19,Memory,2,,,,,,,sunabxsbfwjccqxxzxq.jpg,,,,,,,,,,,,,,,
130,19,Memory,2,,,,,,,sunabmytpyhsgigllxu.jpg,,,,,,,,,,,,,,,
131,19,Memory,2,,,,,,,00294940422fb.jpg,,,,,,,,,,,,,,,
132,19,Memory,2,,,,,,,sunabrlndkruqokhury.jpg,,,,,,,,,,,,,,,
133,19,Memory,2,,,,,,,00125931230fa.jpg,,,,,,,,,,,,,,,
134,19,Memory,2,,,,,,,00969960627fa.jpg,,,,,,,,,,,,,,,
135,19,Memory,2,,,,,,,00979960627fa.jpg,,,,,,,,,,,,,,,
136,19,Memory,2,,,,,,,00868960307fa.jpg,,,,,,,,,,,,,,,
137,19,Memory,2,,,,,,,00266940128fb.jpg,,,,,,,,,,,,,,,
138,19,Memory,2,,,,,,,sunabwmcbaxwioksdgw.jpg,,,,,,,,,,,,,,,
139,19,Memory,2,,,,,,,sunagrmyoovzukhxmlo.jpg,,,,,,,,,,,,,,,
140,19,Memory,2,,,,,,,00314940422fa.jpg,,,,,,,,,,,,,,,
141,19,Memory,2,,,,,,,sunahqrxievfeusiqlt.jpg,,,,,,,,,,,,,,,
142,19,Memory,2,,,,,,,sunaizgnnplsvajzhkc.jpg,,,,,,,,,,,,,,,
143,19,Memory,2,,,,,,,00479940519fa.jpg,,,,,,,,,,,,,,,
144,19,Memory,2,,,,,,,00967960627fa.jpg,,,,,,,,,,,,,,,
145,19,Memory,2,,,,,,,00750941201fa.jpg,,,,,,,,,,,,,,,
146,19,Memory,2,,,,,,,00276940422fa.jpg,,,,,,,,,,,,,,,
147,19,Memory,2,,,,,,,00862940307fa.jpg,,,,,,,,,,,,,,,
148,19,Memory,2,,,,,,,sunbdycacjfaujxitbw.jpg,,,,,,,,,,,,,,,
149,19,Memory,2,,,,,,,00791941205fa.jpg,,,,,,,,,,,,,,,
150,19,Presentation,3,00564941031fa_sunacsaovnjezqwbykf.jpg,00800941205fb_sunagvjurcwdbixvnyi.jpg,00564941031fa.jpg,sunacsaovnjezqwbykf.jpg,00800941205fb.jpg,sunagvjurcwdbixvnyi.jpg,,,>,Place,,,,,1,,,,,,,o
151,19,Presentation,3,00949960627fb_sunasnqkkyhilqkxiqm.jpg,00859940307fa_sunaiycurtqsfkvcaso.jpg,00949960627fb.jpg,sunasnqkkyhilqkxiqm.jpg,00859940307fa.jpg,sunaiycurtqsfkvcaso.jpg,,,>,Place,,,,,1,,,,,,,o
152,19,Presentation,3,00976960627fa_sunbbhqyyzmsxhsbjmp.jpg,00065931230fb_sunaaemixhfquhnxxlm.jpg,00976960627fa.jpg,sunbbhqyyzmsxhsbjmp.jpg,00065931230fb.jpg,sunaaemixhfquhnxxlm.jpg,,,<,Face,,,,,0,,,,,,,o
153,19,Presentation,3,00943960627fa_sunarpsxqkduedrrzyi.jpg,00854940307fa_sunaiwduelojtwaqeyh.jpg,00943960627fa.jpg,sunarpsxqkduedrrzyi.jpg,00854940307fa.jpg,sunaiwduelojtwaqeyh.jpg,,,>,Face,,,,,1,,,,,,,x
154,19,Presentation,3,00662941121fa_sunadkazmlajmohnwfl.jpg,00871940307_sunajrujcsdxmfbssmc.jpg,00662941121fa.jpg,sunadkazmlajmohnwfl.jpg,00871940307.jpg,sunajrujcsdxmfbssmc.jpg,,,<,Face,,,,,1,,,,,,,x
155,19,Presentation,3,00741941201fa_sunaemcowdozyphwknd.jpg,00773941201fa_sunafvcflzhlqloapyo.jpg,00741941201fa.jpg,sunaemcowdozyphwknd.jpg,00773941201fa.jpg,sunafvcflzhlqloapyo.jpg,,,<,Place,,,,,0,,,,,,,x
156,19,Presentation,3,00857940307fa_sunaiwfobocrruqznsv.jpg,00271940422fa_sunabmbnddafmywtjjj.jpg,00857940307fa.jpg,sunaiwfobocrruqznsv.jpg,00271940422fa.jpg,sunabmbnddafmywtjjj.jpg,,,<,Place,,,,,1,,,,,,,o
157,19,Presentation,3,00745941205fa_sunaeouogqolxvggaoq.jpg,00804960530fa_sunagwswhkvnsmuszlz.jpg,00745941205fa.jpg,sunaeouogqolxvggaoq.jpg,00804960530fa.jpg,sunagwswhkvnsmuszlz.jpg,,,>,Face,,,,,1,,,,,,,x
158,19,Presentation,3,00723941201fa_sunaedtgwjvvziytspa.jpg,00302940422fa_sunabtlfmiwtljmoues.jpg,00723941201fa.jpg,sunaedtgwjvvziytspa.jpg,00302940422fa.jpg,sunabtlfmiwtljmoues.jpg,,,<,Face,,,,,1,,,,,,,x
159,19,Presentation,3,00630941031fa_sunadakkdovnuzlycvp.jpg,00529940519fa_sunacbeefkxpymwevpk.jpg,00630941031fa.jpg,sunadakkdovnuzlycvp.jpg,00529940519fa.jpg,sunacbeefkxpymwevpk.jpg,,,>,Place,,,,,1,,,,,,,o
160,19,Memory,3,,,,,,,sunapmfmzadmosuogaz.jpg,,,,,,,,,,,,,,,
161,19,Memory,3,,,,,,,sunaajspcoepticvplv.jpg,,,,,,,,,,,,,,,
162,19,Memory,3,,,,,,,00858940307fa.jpg,,,,,,,,,,,,,,,
163,19,Memory,3,,,,,,,00746941201fa.jpg,,,,,,,,,,,,,,,
164,19,Memory,3,,,,,,,00663941121fa.jpg,,,,,,,,,,,,,,,
165,19,Memory,3,,,,,,,00804960530fa.jpg,,,,,,,,,,,,,,,
166,19,Memory,3,,,,,,,sunasnqkkyhilqkxiqm.jpg,,,,,,,,,,,,,,,
167,19,Memory,3,,,,,,,00745941205fa.jpg,,,,,,,,,,,,,,,
168,19,Memory,3,,,,,,,00963960627fa.jpg,,,,,,,,,,,,,,,
169,19,Memory,3,,,,,,,sunagvjurcwdbixvnyi.jpg,,,,,,,,,,,,,,,
170,19,Memory,3,,,,,,,00882960530fa.jpg,,,,,,,,,,,,,,,
171,19,Memory,3,,,,,,,sunabmbnddafmywtjjj.jpg,,,,,,,,,,,,,,,
172,19,Memory,3,,,,,,,00943960627fa.jpg,,,,,,,,,,,,,,,
173,19,Memory,3,,,,,,,sunadakkdovnuzlycvp.jpg,,,,,,,,,,,,,,,
174,19,Memory,3,,,,,,,00976960627fa.jpg,,,,,,,,,,,,,,,
175,19,Memory,3,,,,,,,sunalkiibhqpxfamlll.jpg,,,,,,,,,,,,,,,
176,19,Memory,3,,,,,,,00630941031fa.jpg,,,,,,,,,,,,,,,
177,19,Memory,3,,,,,,,sunaaemixhfquhnxxlm.jpg,,,,,,,,,,,,,,,
178,19,Memory,3,,,,,,,sunarpsxqkduedrrzyi.jpg,,,,,,,,,,,,,,,
179,19,Memory,3,,,,,,,00891960530fa.jpg,,,,,,,,,,,,,,,
180,19,Memory,3,,,,,,,00102931230fa.jpg,,,,,,,,,,,,,,,
181,19,Memory,3,,,,,,,00162931230fb.jpg,,,,,,,,,,,,,,,
182,19,Memory,3,,,,,,,00800941205fb.jpg,,,,,,,,,,,,,,,
183,19,Memory,3,,,,,,,sunayaepykrqvenaqqy.jpg,,,,,,,,,,,,,,,
184,19,Memory,3,,,,,,,00271940422fa.jpg,,,,,,,,,,,,,,,
185,19,Memory,3,,,,,,,00065931230fb.jpg,,,,,,,,,,,,,,,
186,19,Memory,3,,,,,,,00933960627fa.jpg,,,,,,,,,,,,,,,
187,19,Memory,3,,,,,,,sunadnjjzohjhbohlwq.jpg,,,,,,,,,,,,,,,
188,19,Memory,3,,,,,,,sunbbhqyyzmsxhsbjmp.jpg,,,,,,,,,,,,,,,
189,19,Memory,3,,,,,,,sunaixpqndlwhwjtjek.jpg,,,,,,,,,,,,,,,
190,19,Memory,3,,,,,,,sunaavjinpnkappuonm.jpg,,,,,,,,,,,,,,,
191,19,Memory,3,,,,,,,sunaetydippjxikifsb.jpg,,,,,,,,,,,,,,,
192,19,Memory,3,,,,,,,sunagwswhkvnsmuszlz.jpg,,,,,,,,,,,,,,,
193,19,Memory,3,,,,,,,sunaeouogqolxvggaoq.jpg,,,,,,,,,,,,,,,
194,19,Memory,3,,,,,,,sunapwjkcxdaeqehfql.jpg,,,,,,,,,,,,,,,
195,19,Memory,3,,,,,,,00919960620fa.jpg,,,,,,,,,,,,,,,
196,19,Memory,3,,,,,,,00854940307fa.jpg,,,,,,,,,,,,,,,
197,19,Memory,3,,,,,,,00949960627fb.jpg,,,,,,,,,,,,,,,
198,19,Memory,3,,,,,,,sunaiwduelojtwaqeyh.jpg,,,,,,,,,,,,,,,
199,19,Memory,3,,,,,,,sunaknlirqjqiwbbeeg.jpg,,,,,,,,,,,,,,,
200,19,Presentation,4,00630940928fa_sunaczwgyukesaajxnx.jpg,00851940307fa_sunaivflshbyfrfzhqb.jpg,00630940928fa.jpg,sunaczwgyukesaajxnx.jpg,00851940307fa.jpg,sunaivflshbyfrfzhqb.jpg,,,<,Face,,,,,1,,,,,,,o
201,19,Presentation,4,00971960627fa_sunbbegcweqnetpdlrh.jpg,00730960620fa_sunaekgzpfilgjxpeyq.jpg,00971960627fa.jpg,sunbbegcweqnetpdlrh.jpg,00730960620fa.jpg,sunaekgzpfilgjxpeyq.jpg,,,>,Place,,,,,1,,,,,,,o
202,19,Presentation,4,00184940128fa_sunaavtbadenwnzeutj.jpg,00096931230fa_sunaaiqiqcggrskoqgy.jpg,00184940128fa.jpg,sunaavtbadenwnzeutj.jpg,00096931230fa.jpg,sunaaiqiqcggrskoqgy.jpg,,,>,Face,,,,,1,,,,,,,x
203,19,Presentation,4,00790941205fa_sunagpjzsbltchlwvou.jpg,00705941205fa_sunadtlxenqqxsyjvix.jpg,00790941205fa.jpg,sunagpjzsbltchlwvou.jpg,00705941205fa.jpg,sunadtlxenqqxsyjvix.jpg,,,<,Face,,,,,1,,,,,,,o
204,19,Presentation,4,00766960620fa_sunafijbgncijwykrnl.jpg,00198940128fb_sunaazezcsunmhttzxz.jpg,00766960620fa.jpg,sunafijbgncijwykrnl.jpg,00198940128fb.jpg,sunaazezcsunmhttzxz.jpg,,,>,Place,,,,,1,,,,,,,x
205,19,Presentation,4,00705960530fa_sunaduslxfzlbxlllnz.jpg,00725941201fa_sunaefgzwiramypjvtd.jpg,00705960530fa.jpg,sunaduslxfzlbxlllnz.jpg,00725941201fa.jpg,sunaefgzwiramypjvtd.jpg,,,<,Place,,,,,1,,,,,,,x
206,19,Presentation,4,00793941205fa_sunagtjwilqjvxohypn.jpg,00789960620fa_sunagpancjmxqfazssf.jpg,00793941205fa.jpg,sunagtjwilqjvxohypn.jpg,00789960620fa.jpg,sunagpancjmxqfazssf.jpg,,,<,Place,,,,,1,,,,,,,x
207,19,Presentation,4,00776941205fa_sunafxokyavhgptyfye.jpg,00898960530fa_sunamkmeblgteyggink.jpg,00776941205fa.jpg,sunafxokyavhgptyfye.jpg,00898960530fa.jpg,sunamkmeblgteyggink.jpg,,,>,Face,,,,,0,,,,,,,o
208,19,Presentation,4,00070940307fa_sunaaeplwsfslcbtojr.jpg,00887960530_sunalcrtwiycqobgelp.jpg,00070940307fa.jpg,sunaaeplwsfslcbtojr.jpg,00887960530.jpg,sunalcrtwiycqobgelp.jpg,,,>,Place,,,,,1,,,,,,,o
209,19,Presentation,4,00507940519fa_sunacacflqoyxhsqzhe.jpg,00080931230fb_sunaafjszryxyavjzln.jpg,00507940519fa.jpg,sunacacflqoyxhsqzhe.jpg,00080931230fb.jpg,sunaafjszryxyavjzln.jpg,,,<,Face,,,,,1,,,,,,,o
210,19,Memory,4,,,,,,,sunadfktsqjthoglcsm.jpg,,,,,,,,,,,,,,,
211,19,Memory,4,,,,,,,00789960620fa.jpg,,,,,,,,,,,,,,,
212,19,Memory,4,,,,,,,00725941201fa.jpg,,,,,,,,,,,,,,,
213,19,Memory,4,,,,,,,sunaefgzwiramypjvtd.jpg,,,,,,,,,,,,,,,
214,19,Memory,4,,,,,,,sunaczwgyukesaajxnx.jpg,,,,,,,,,,,,,,,
215,19,Memory,4,,,,,,,00937960627fa.jpg,,,,,,,,,,,,,,,
216,19,Memory,4,,,,,,,00877960530fa.jpg,,,,,,,,,,,,,,,
217,19,Memory,4,,,,,,,sunaqsolmfydodnakub.jpg,,,,,,,,,,,,,,,
218,19,Memory,4,,,,,,,00260940128fa.jpg,,,,,,,,,,,,,,,
219,19,Memory,4,,,,,,,sunabgfhvifeijihhjw.jpg,,,,,,,,,,,,,,,
220,19,Memory,4,,,,,,,sunafxokyavhgptyfye.jpg,,,,,,,,,,,,,,,
221,19,Memory,4,,,,,,,00290940422fa.jpg,,,,,,,,,,,,,,,
222,19,Memory,4,,,,,,,00887960530.jpg,,,,,,,,,,,,,,,
223,19,Memory,4,,,,,,,sunbbegcweqnetpdlrh.jpg,,,,,,,,,,,,,,,
224,19,Memory,4,,,,,,,sunabqowuarvqqcnipn.jpg,,,,,,,,,,,,,,,
225,19,Memory,4,,,,,,,sunajxpkuhbizeveguy.jpg,,,,,,,,,,,,,,,
226,19,Memory,4,,,,,,,sunamkmeblgteyggink.jpg,,,,,,,,,,,,,,,
227,19,Memory,4,,,,,,,00111931230fb.jpg,,,,,,,,,,,,,,,
228,19,Memory,4,,,,,,,00776941205fa.jpg,,,,,,,,,,,,,,,
229,19,Memory,4,,,,,,,sunagtjwilqjvxohypn.jpg,,,,,,,,,,,,,,,
230,19,Memory,4,,,,,,,sunaiozxhxgtfrmoagh.jpg,,,,,,,,,,,,,,,
231,19,Memory,4,,,,,,,sunaaiqiqcggrskoqgy.jpg,,,,,,,,,,,,,,,
232,19,Memory,4,,,,,,,00838940307fa.jpg,,,,,,,,,,,,,,,
233,19,Memory,4,,,,,,,00971960627fa.jpg,,,,,,,,,,,,,,,
234,19,Memory,4,,,,,,,sunagpancjmxqfazssf.jpg,,,,,,,,,,,,,,,
235,19,Memory,4,,,,,,,sunaakgekhjklxmvulj.jpg,,,,,,,,,,,,,,,
236,19,Memory,4,,,,,,,sunacacflqoyxhsqzhe.jpg,,,,,,,,,,,,,,,
237,19,Memory,4,,,,,,,00086931230fa.jpg,,,,,,,,,,,,,,,
238,19,Memory,4,,,,,,,sunalcrtwiycqobgelp.jpg,,,,,,,,,,,,,,,
239,19,Memory,4,,,,,,,00793941205fa.jpg,,,,,,,,,,,,,,,
240,19,Memory,4,,,,,,,00568940928fa.jpg,,,,,,,,,,,,,,,
241,19,Memory,4,,,,,,,00978960627fa.jpg,,,,,,,,,,,,,,,
242,19,Memory,4,,,,,,,00630940928fa.jpg,,,,,,,,,,,,,,,
243,19,Memory,4,,,,,,,sunacsdhbbsybcyxnel.jpg,,,,,,,,,,,,,,,
244,19,Memory,4,,,,,,,00898960530fa.jpg,,,,,,,,,,,,,,,
245,19,Memory,4,,,,,,,00507940519fa.jpg,,,,,,,,,,,,,,,
246,19,Memory,4,,,,,,,sunaafynehyrzpsoaml.jpg,,,,,,,,,,,,,,,
247,19,Memory,4,,,,,,,00096931230fa.jpg,,,,,,,,,,,,,,,
248,19,Memory,4,,,,,,,00638941031fa.jpg,,,,,,,,,,,,,,,
249,19,Memory,4,,,,,,,sunbddbivbptlrlauhy.jpg,,,,,,,,,,,,,,,
250,19,Presentation,5,00092931230fa_sunaaheqzstzxuadglu.jpg,00154931230fa_sunaauueuhhvklldjik.jpg,00092931230fa.jpg,sunaaheqzstzxuadglu.jpg,00154931230fa.jpg,sunaauueuhhvklldjik.jpg,,,>,Place,,,,,1,,,,,,,x
251,19,Presentation,5,00081941031fa_sunaaftlyfudyzuhqzf.jpg,00909960530_sunaobtizabegtwfwul.jpg,00081941031fa.jpg,sunaaftlyfudyzuhqzf.jpg,00909960530.jpg,sunaobtizabegtwfwul.jpg,,,<,Face,,,,,1,,,,,,,o
252,19,Presentation,5,00788941205fa_sunagountlxpzkytsmp.jpg,00772941201fa_sunafpfpiiujzoesnqg.jpg,00788941205fa.jpg,sunagountlxpzkytsmp.jpg,00772941201fa.jpg,sunafpfpiiujzoesnqg.jpg,,,<,Place,,,,,1,,,,,,,x
253,19,Presentation,5,01004960627fa_sunbwtlihsuptkrckid.jpg,00292940422fb_sunabrjdpmoedcdjbpo.jpg,01004960627fa.jpg,sunbwtlihsuptkrckid.jpg,00292940422fb.jpg,sunabrjdpmoedcdjbpo.jpg,,,>,Face,,,,,1,,,,,,,x
254,19,Presentation,5,00952960627fa_sunathzzbcwjykldrem.jpg,00077931230fb_sunaafgqutfaishsxyu.jpg,00952960627fa.jpg,sunathzzbcwjykldrem.jpg,00077931230fb.jpg,sunaafgqutfaishsxyu.jpg,,,>,Face,,,,,1,,,,,,,x
255,19,Presentation,5,00214940128fa_sunabbafjowbzcvbucc.jpg,00719960620fa_sunadzuvtmtmgupotmf.jpg,00214940128fa.jpg,sunabbafjowbzcvbucc.jpg,00719960620fa.jpg,sunadzuvtmtmgupotmf.jpg,,,>,Place,,,,,1,,,,,,,x
256,19,Presentation,5,00136931230fb_sunaanptmsknhirrzed.jpg,00773960620fa_sunafvsxtzaizojicxx.jpg,00136931230fb.jpg,sunaanptmsknhirrzed.jpg,00773960620fa.jpg,sunafvsxtzaizojicxx.jpg,,,<,Face,,,,,1,,,,,,,x
257,19,Presentation,5,00069931230fb_sunaaeowapdkwzqpgqr.jpg,00090931230fa_sunaahedjlmtqekgyvj.jpg,00069931230fb.jpg,sunaaeowapdkwzqpgqr.jpg,00090931230fa.jpg,sunaahedjlmtqekgyvj.jpg,,,>,Place,,,,,1,,,,,,,x
258,19,Presentation,5,00598941031fa_sunacxtcahkymosigud.jpg,00634940928fa_sunadcphrizvfpljiqt.jpg,00598941031fa.jpg,sunacxtcahkymosigud.jpg,00634940928fa.jpg,sunadcphrizvfpljiqt.jpg,,,<,Face,,,,,0,,,,,,,x
259,19,Presentation,5,00895960530fa_sunamczizlzavhzhpay.jpg,00147931230fb_sunaatpkocdkocwxpkb.jpg,00895960530fa.jpg,sunamczizlzavhzhpay.jpg,00147931230fb.jpg,sunaatpkocdkocwxpkb.jpg,,,<,Place,,,,,1,,,,,,,x
260,19,Memory,5,,,,,,,00782941205fa.jpg,,,,,,,,,,,,,,,
261,19,Memory,5,,,,,,,00069931230fb.jpg,,,,,,,,,,,,,,,
262,19,Memory,5,,,,,,,sunaygrtwrwfezqjizr.jpg,,,,,,,,,,,,,,,
263,19,Memory,5,,,,,,,00081941031fa.jpg,,,,,,,,,,,,,,,
264,19,Memory,5,,,,,,,00772941201fa.jpg,,,,,,,,,,,,,,,
265,19,Memory,5,,,,,,,00961960627fa.jpg,,,,,,,,,,,,,,,
266,19,Memory,5,,,,,,,00092931230fa.jpg,,,,,,,,,,,,,,,
267,19,Memory,5,,,,,,,00909960530.jpg,,,,,,,,,,,,,,,
268,19,Memory,5,,,,,,,00163931230fb.jpg,,,,,,,,,,,,,,,
269,19,Memory,5,,,,,,,sunaaeowapdkwzqpgqr.jpg,,,,,,,,,,,,,,,
270,19,Memory,5,,,,,,,sunaafgqutfaishsxyu.jpg,,,,,,,,,,,,,,,
271,19,Memory,5,,,,,,,00973960627fa.jpg,,,,,,,,,,,,,,,
272,19,Memory,5,,,,,,,01004960627fa.jpg,,,,,,,,,,,,,,,
273,19,Memory,5,,,,,,,sunaavodbcpygkggnfp.jpg,,,,,,,,,,,,,,,
274,19,Memory,5,,,,,,,sunaanptmsknhirrzed.jpg,,,,,,,,,,,,,,,
275,19,Memory,5,,,,,,,00783941205fa.jpg,,,,,,,,,,,,,,,
276,19,Memory,5,,,,,,,sunagfvluwixdsozaql.jpg,,,,,,,,,,,,,,,
277,19,Memory,5,,,,,,,00090931230fa.jpg,,,,,,,,,,,,,,,
278,19,Memory,5,,,,,,,00966960627fa.jpg,,,,,,,,,,,,,,,
279,19,Memory,5,,,,,,,00288940422fa.jpg,,,,,,,,,,,,,,,
280,19,Memory,5,,,,,,,00144931230fb.jpg,,,,,,,,,,,,,,,
281,19,Memory,5,,,,,,,sunbwyuesflwdpqtgoy.jpg,,,,,,,,,,,,,,,
282,19,Memory,5,,,,,,,00136931230fb.jpg,,,,,,,,,,,,,,,
283,19,Memory,5,,,,,,,sunagjeesomrwjsfqie.jpg,,,,,,,,,,,,,,,
284,19,Memory,5,,,,,,,sunbwtlihsuptkrckid.jpg,,,,,,,,,,,,,,,
285,19,Memory,5,,,,,,,sunaobtizabegtwfwul.jpg,,,,,,,,,,,,,,,
286,19,Memory,5,,,,,,,01005960627fa.jpg,,,,,,,,,,,,,,,
287,19,Memory,5,,,,,,,00147931230fb.jpg,,,,,,,,,,,,,,,
288,19,Memory,5,,,,,,,sunaahzooisqkwlxwoz.jpg,,,,,,,,,,,,,,,
289,19,Memory,5,,,,,,,sunaahedjlmtqekgyvj.jpg,,,,,,,,,,,,,,,
290,19,Memory,5,,,,,,,sunawotxrevnqvamsfp.jpg,,,,,,,,,,,,,,,
291,19,Memory,5,,,,,,,sunaatpkocdkocwxpkb.jpg,,,,,,,,,,,,,,,
292,19,Memory,5,,,,,,,sunafpfpiiujzoesnqg.jpg,,,,,,,,,,,,,,,
293,19,Memory,5,,,,,,,sunabppokiyglaxpcha.jpg,,,,,,,,,,,,,,,
294,19,Memory,5,,,,,,,sunaaftlyfudyzuhqzf.jpg,,,,,,,,,,,,,,,
295,19,Memory,5,,,,,,,00077931230fb.jpg,,,,,,,,,,,,,,,
296,19,Memory,5,,,,,,,sunaathajvxrgptwhoj.jpg,,,,,,,,,,,,,,,
297,19,Memory,5,,,,,,,00095931230fa.jpg,,,,,,,,,,,,,,,
298,19,Memory,5,,,,,,,sunbbgtoeuzierkkajt.jpg,,,,,,,,,,,,,,,
299,19,Memory,5,,,,,,,sunaaheqzstzxuadglu.jpg,,,,,,,,,,,,,,,
300,19,Presentation,6,00633940928fa_sunadbhmrgrrpyzglxs.jpg,00775941205fa_sunafvwfsmqkjrutjta.jpg,00633940928fa.jpg,sunadbhmrgrrpyzglxs.jpg,00775941205fa.jpg,sunafvwfsmqkjrutjta.jpg,,,<,Place,,,,,1,,,,,,,o
301,19,Presentation,6,00574940928fa_sunacvbrcejzwmcgnoq.jpg,00109931230fa_sunaajuzribjrizdshh.jpg,00574940928fa.jpg,sunacvbrcejzwmcgnoq.jpg,00109931230fa.jpg,sunaajuzribjrizdshh.jpg,,,<,Face,,,,,1,,,,,,,x
302,19,Presentation,6,00984960627fa_sunbfzchmomnvzhbxdg.jpg,00145931230fb_sunaatjesvdupctftmn.jpg,00984960627fa.jpg,sunbfzchmomnvzhbxdg.jpg,00145931230fb.jpg,sunaatjesvdupctftmn.jpg,,,<,Face,,,,,1,,,,,,,o
303,19,Presentation,6,00835940307fa_sunaijsqpvodplbwxkf.jpg,01002960627fb_sunbwaafjdebjzttuvq.jpg,00835940307fa.jpg,sunaijsqpvodplbwxkf.jpg,01002960627fb.jpg,sunbwaafjdebjzttuvq.jpg,,,>,Place,,,,,1,,,,,,,o
304,19,Presentation,6,00631940928fa_sunadbdqzigzwipuipr.jpg,00751960620fa_sunaezuszgtxnmsxdbk.jpg,00631940928fa.jpg,sunadbdqzigzwipuipr.jpg,00751960620fa.jpg,sunaezuszgtxnmsxdbk.jpg,,,>,Face,,,,,1,,,,,,,o
305,19,Presentation,6,00559940519fa_sunacjkmnpawfzbyvae.jpg,00076931230fa_sunaafewhewbxmjiurz.jpg,00559940519fa.jpg,sunacjkmnpawfzbyvae.jpg,00076931230fa.jpg,sunaafewhewbxmjiurz.jpg,,,<,Face,,,,,1,,,,,,,x
306,19,Presentation,6,00197940128fa_sunaaylzyqlqrsmfwif.jpg,00834940307fa_sunaibnpvhkdpdnzcnz.jpg,00197940128fa.jpg,sunaaylzyqlqrsmfwif.jpg,00834940307fa.jpg,sunaibnpvhkdpdnzcnz.jpg,,,>,Place,,,,,1,,,,,,,o
307,19,Presentation,6,00841940307fa_sunaisiwfgppimtnmxl.jpg,00082931230fa_sunaafvitpexrpvumsa.jpg,00841940307fa.jpg,sunaisiwfgppimtnmxl.jpg,00082931230fa.jpg,sunaafvitpexrpvumsa.jpg,,,>,Place,,,,,1,,,,,,,x
308,19,Presentation,6,00129931230fb_sunaamsdyakblkfoydx.jpg,00910960530fa_sunaofikylqtxphvdem.jpg,00129931230fb.jpg,sunaamsdyakblkfoydx.jpg,00910960530fa.jpg,sunaofikylqtxphvdem.jpg,,,<,Place,,,,,1,,,,,,,x
309,19,Presentation,6,00138931230fa_sunaapfaivxqoynnwwp.jpg,00609940928fa_sunacycdoztxoluxjyk.jpg,00138931230fa.jpg,sunaapfaivxqoynnwwp.jpg,00609940928fa.jpg,sunacycdoztxoluxjyk.jpg,,,>,Face,,,,,1,,,,,,,o
310,19,Memory,6,,,,,,,sunabanoxjtqxamkucc.jpg,,,,,,,,,,,,,,,
311,19,Memory,6,,,,,,,sunaecpkgfewqqreqwe.jpg,,,,,,,,,,,,,,,
312,19,Memory,6,,,,,,,sunafvwfsmqkjrutjta.jpg,,,,,,,,,,,,,,,
313,19,Memory,6,,,,,,,00145931230fb.jpg,,,,,,,,,,,,,,,
314,19,Memory,6,,,,,,,00775941205fa.jpg,,,,,,,,,,,,,,,
315,19,Memory,6,,,,,,,sunaeutbrtswvsozxyk.jpg,,,,,,,,,,,,,,,
316,19,Memory,6,,,,,,,sunaapfaivxqoynnwwp.jpg,,,,,,,,,,,,,,,
317,19,Memory,6,,,,,,,sunaijsqpvodplbwxkf.jpg,,,,,,,,,,,,,,,
318,19,Memory,6,,,,,,,00816941205fa.jpg,,,,,,,,,,,,,,,
319,19,Memory,6,,,,,,,00747941201fa.jpg,,,,,,,,,,,,,,,
320,19,Memory,6,,,,,,,sunapqkyghktgtosuuk.jpg,,,,,,,,,,,,,,,
321,19,Memory,6,,,,,,,00138931230fa.jpg,,,,,,,,,,,,,,,
322,19,Memory,6,,,,,,,00720960620fa.jpg,,,,,,,,,,,,,,,
323,19,Memory,6,,,,,,,01009960627fa.jpg,,,,,,,,,,,,,,,
324,19,Memory,6,,,,,,,sunacvbrcejzwmcgnoq.jpg,,,,,,,,,,,,,,,
325,19,Memory,6,,,,,,,00922960627fa.jpg,,,,,,,,,,,,,,,
326,19,Memory,6,,,,,,,00982960627fa.jpg,,,,,,,,,,,,,,,
327,19,Memory,6,,,,,,,00984960627fa.jpg,,,,,,,,,,,,,,,
328,19,Memory,6,,,,,,,00906960530fa.jpg,,,,,,,,,,,,,,,
329,19,Memory,6,,,,,,,sunawksfbacycuhbrsc.jpg,,,,,,,,,,,,,,,
330,19,Memory,6,,,,,,,sunaajuzribjrizdshh.jpg,,,,,,,,,,,,,,,
331,19,Memory,6,,,,,,,sunaezuszgtxnmsxdbk.jpg,,,,,,,,,,,,,,,
332,19,Memory,6,,,,,,,00574940928fa.jpg,,,,,,,,,,,,,,,
333,19,Memory,6,,,,,,,00988960627fa.jpg,,,,,,,,,,,,,,,
334,19,Memory,6,,,,,,,00210940128fb.jpg,,,,,,,,,,,,,,,
335,19,Memory,6,,,,,,,sunbmaiocftdtvnzgap.jpg,,,,,,,,,,,,,,,
336,19,Memory,6,,,,,,,00751960620fa.jpg,,,,,,,,,,,,,,,
337,19,Memory,6,,,,,,,sunadbhmrgrrpyzglxs.jpg,,,,,,,,,,,,,,,
338,19,Memory,6,,,,,,,00910960530fa.jpg,,,,,,,,,,,,,,,
339,19,Memory,6,,,,,,,00835940307fa.jpg,,,,,,,,,,,,,,,
340,19,Memory,6,,,,,,,sunantryfbloeaomfta.jpg,,,,,,,,,,,,,,,
341,19,Memory,6,,,,,,,sunaatjesvdupctftmn.jpg,,,,,,,,,,,,,,,
342,19,Memory,6,,,,,,,sunaofikylqtxphvdem.jpg,,,,,,,,,,,,,,,
343,19,Memory,6,,,,,,,sunbfzchmomnvzhbxdg.jpg,,,,,,,,,,,,,,,
344,19,Memory,6,,,,,,,sunbxzweleltykebgan.jpg,,,,,,,,,,,,,,,
345,19,Memory,6,,,,,,,00109931230fa.jpg,,,,,,,,,,,,,,,
346,19,Memory,6,,,,,,,00633940928fa.jpg,,,,,,,,,,,,,,,
347,19,Memory,6,,,,,,,sunahmhrncocyhsjpxk.jpg,,,,,,,,,,,,,,,
348,19,Memory,6,,,,,,,00960960627fa.jpg,,,,,,,,,,,,,,,
349,19,Memory,6,,,,,,,sunbesrwkdsffeogeqq.jpg,,,,,,,,,,,,,,,
350,19,Presentation,7,00947960627fa_sunasmmcxdddtmtazwx.jpg,00836940307fa_sunainqelldeebvxtcz.jpg,00947960627fa.jpg,sunasmmcxdddtmtazwx.jpg,00836940307fa.jpg,sunainqelldeebvxtcz.jpg,,,<,Place,,,,,1,,,,,,,o
351,19,Presentation,7,00073931230fa_sunaafbmtoniaasysgu.jpg,00866940307fa_sunajbwkywmsqkldfml.jpg,00073931230fa.jpg,sunaafbmtoniaasysgu.jpg,00866940307fa.jpg,sunajbwkywmsqkldfml.jpg,,,<,Place,,,,,1,,,,,,,o
352,19,Presentation,7,00938960627fa_sunaqyylsngywqzwfmx.jpg,00955960627fb_sunauburywlkjszngcq.jpg,00938960627fa.jpg,sunaqyylsngywqzwfmx.jpg,00955960627fb.jpg,sunauburywlkjszngcq.jpg,,,<,Face,,,,,1,,,,,,,o
353,19,Presentation,7,00112931230fa_sunaakjaacuzulqckgl.jpg,00880960530fa_sunakmnfgklupjijsgf.jpg,00112931230fa.jpg,sunaakjaacuzulqckgl.jpg,00880960530fa.jpg,sunakmnfgklupjijsgf.jpg,,,<,Face,,,,,1,,,,,,,x
354,19,Presentation,7,00743941201fa_sunaeoghzrjarigmwua.jpg,00098931230fa_sunaajpqmulidejvjsr.jpg,00743941201fa.jpg,sunaeoghzrjarigmwua.jpg,00098931230fa.jpg,sunaajpqmulidejvjsr.jpg,,,<,Place,,,,,1,,,,,,,x
355,19,Presentation,7,00903960620fa_sunanainkqdvktzoxyl.jpg,00498960627fa_sunabzjxlmkwnwzimua.jpg,00903960620fa.jpg,sunanainkqdvktzoxyl.jpg,00498960627fa.jpg,sunabzjxlmkwnwzimua.jpg,,,>,Face,,,,,1,,,,,,,o
356,19,Presentation,7,00316940422fa_sunabxmguapjekttvwm.jpg,00929960627fa_sunaprnrbmgkomdbchr.jpg,00316940422fa.jpg,sunabxmguapjekttvwm.jpg,00929960627fa.jpg,sunaprnrbmgkomdbchr.jpg,,,>,Place,,,,,1,,,,,,,x
357,19,Presentation,7,00548940519fa_sunacerqowiaeoqkmsq.jpg,00482940519fa_sunabyfxcxhdebvdyfd.jpg,00548940519fa.jpg,sunacerqowiaeoqkmsq.jpg,00482940519fa.jpg,sunabyfxcxhdebvdyfd.jpg,,,>,Place,,,,,1,,,,,,,o
358,19,Presentation,7,00675941121fa_sunadoxcchtmsxewsau.jpg,00965960627fa_sunaydywdmvlfddbxbk.jpg,00675941121fa.jpg,sunadoxcchtmsxewsau.jpg,00965960627fa.jpg,sunaydywdmvlfddbxbk.jpg,,,>,Face,,,,,1,,,,,,,o
359,19,Presentation,7,00999960627fa_sunbvbrvgbpanfrawft.jpg,00847940307fa_sunaivdjruhkrfywfed.jpg,00999960627fa.jpg,sunbvbrvgbpanfrawft.jpg,00847940307fa.jpg,sunaivdjruhkrfywfed.jpg,,,>,Face,,,,,0,,,,,,,o
360,19,Memory,7,,,,,,,sunajbwkywmsqkldfml.jpg,,,,,,,,,,,,,,,
361,19,Memory,7,,,,,,,00743941201fa.jpg,,,,,,,,,,,,,,,
362,19,Memory,7,,,,,,,00193940928fa.jpg,,,,,,,,,,,,,,,
363,19,Memory,7,,,,,,,sunaeoghzrjarigmwua.jpg,,,,,,,,,,,,,,,
364,19,Memory,7,,,,,,,sunaydywdmvlfddbxbk.jpg,,,,,,,,,,,,,,,
365,19,Memory,7,,,,,,,00947960627fa.jpg,,,,,,,,,,,,,,,
366,19,Memory,7,,,,,,,sunabxmguapjekttvwm.jpg,,,,,,,,,,,,,,,
367,19,Memory,7,,,,,,,sunahiphsekjihkafsl.jpg,,,,,,,,,,,,,,,
368,19,Memory,7,,,,,,,sunalntxqqadigcletd.jpg,,,,,,,,,,,,,,,
369,19,Memory,7,,,,,,,00316940422fa.jpg,,,,,,,,,,,,,,,
370,19,Memory,7,,,,,,,00848940307fa.jpg,,,,,,,,,,,,,,,
371,19,Memory,7,,,,,,,sunabyfxcxhdebvdyfd.jpg,,,,,,,,,,,,,,,
372,19,Memory,7,,,,,,,00866940307fa.jpg,,,,,,,,,,,,,,,
373,19,Memory,7,,,,,,,sunaakjaacuzulqckgl.jpg,,,,,,,,,,,,,,,
374,19,Memory,7,,,,,,,00876960620fa.jpg,,,,,,,,,,,,,,,
375,19,Memory,7,,,,,,,00768941205fa.jpg,,,,,,,,,,,,,,,
376,19,Memory,7,,,,,,,sunasmmcxdddtmtazwx.jpg,,,,,,,,,,,,,,,
377,19,Memory,7,,,,,,,sunaawqdbpihmlbwyyn.jpg,,,,,,,,,,,,,,,
378,19,Memory,7,,,,,,,00112931230fa.jpg,,,,,,,,,,,,,,,
379,19,Memory,7,,,,,,,00548940519fa.jpg,,,,,,,,,,,,,,,
380,19,Memory,7,,,,,,,sunabllobxadqcyttej.jpg,,,,,,,,,,,,,,,
381,19,Memory,7,,,,,,,sunainqelldeebvxtcz.jpg,,,,,,,,,,,,,,,
382,19,Memory,7,,,,,,,sunafkmnlytenlsywia.jpg,,,,,,,,,,,,,,,
383,19,Memory,7,,,,,,,00794960620fa.jpg,,,,,,,,,,,,,,,
384,19,Memory,7,,,,,,,00965960627fa.jpg,,,,,,,,,,,,,,,
385,19,Memory,7,,,,,,,sunanmoqeyprjjjfxjt.jpg,,,,,,,,,,,,,,,
386,19,Memory,7,,,,,,,00892960530fa.jpg,,,,,,,,,,,,,,,
387,19,Memory,7,,,,,,,sunaivdylrawbmhryfp.jpg,,,,,,,,,,,,,,,
388,19,Memory,7,,,,,,,00929960627fa.jpg,,,,,,,,,,,,,,,
389,19,Memory,7,,,,,,,00815941205fa.jpg,,,,,,,,,,,,,,,
390,19,Memory,7,,,,,,,00482940519fa.jpg,,,,,,,,,,,,,,,
391,19,Memory,7,,,,,,,sunagtqhhwxjeuxdebe.jpg,,,,,,,,,,,,,,,
392,19,Memory,7,,,,,,,00270940422fb.jpg,,,,,,,,,,,,,,,
393,19,Memory,7,,,,,,,00905960530fa.jpg,,,,,,,,,,,,,,,
394,19,Memory,7,,,,,,,00185940422fb.jpg,,,,,,,,,,,,,,,
395,19,Memory,7,,,,,,,sunacerqowiaeoqkmsq.jpg,,,,,,,,,,,,,,,
396,19,Memory,7,,,,,,,sunaaxjpzcnxligjtjq.jpg,,,,,,,,,,,,,,,
397,19,Memory,7,,,,,,,sunajwqkfsykceonyig.jpg,,,,,,,,,,,,,,,
398,19,Memory,7,,,,,,,sunaprnrbmgkomdbchr.jpg,,,,,,,,,,,,,,,
399,19,Memory,7,,,,,,,00836940307fa.jpg,,,,,,,,,,,,,,,
