,Subject,Trial Type,Run,Cued Composite,Uncued Composite,Cued Face,Cued Place,Uncued Face,Uncued Place,Memory Image,Category,Cued Side,Cued Category,Attention Response Time (s),Familiarity Reaction Time (s),Familiarity Rating,Attention Level,Cue Validity,Post Invalid Cue,Pre Invalid Cue,Attention Button,Rating History,Stimulus Onset,Stimulus End,Attention Probe
0,again,Presentation,0,00133931230fa_sunaanlwnpqndclffxt.jpg,00162931230fb_sunaavjinpnkappuonm.jpg,,,,,,,>,Face,,,,,1,,,,,,,x
1,again,Presentation,0,00864940307fa_sunajawzbrlrwafowen.jpg,00069931230fb_sunaaeowapdkwzqpgqr.jpg,,,,,,,<,Face,,,,,1,,,,,,,o
2,again,Presentation,0,01002960627fb_sunbwaafjdebjzttuvq.jpg,00858940307fa_sunaixpqndlwhwjtjek.jpg,,,,,,,>,Place,,,,,1,,,,,,,o
3,again,Presentation,0,00999960627fa_sunbvbrvgbpanfrawft.jpg,00598940928fa_sunacxeheuiigkcgquf.jpg,,,,,,,<,Face,,,,,1,,,,,,,o
4,again,Presentation,0,00915960620fa_sunapileznnbbmrwoei.jpg,00140931230fb_sunaapllqyqlykszopd.jpg,,,,,,,>,Place,,,,,1,,,,,,,o
5,again,Presentation,0,00894960620fa_sunalqmfgeadpqsyzpd.jpg,01004960627fa_sunbwtlihsuptkrckid.jpg,,,,,,,<,Place,,,,,1,,,,,,,o
6,again,Presentation,0,00743941201fa_sunaeoghzrjarigmwua.jpg,00770941201fa_sunaflojskatpeqyzqp.jpg,,,,,,,>,Face,,,,,1,,,,,,,x
7,again,Presentation,0,00841940307fa_sunaisiwfgppimtnmxl.jpg,00818940307fa_sunahpblecxtmuzkmxb.jpg,,,,,,,<,Face,,,,,1,,,,,,,x
8,again,Presentation,0,01207940128fa_sundbixjudsgeuuehrn.jpg,00874940307fa_sunajtrfunvzdfticna.jpg,,,,,,,>,Place,,,,,1,,,,,,,o
9,again,Presentation,0,00952960627fa_sunathzzbcwjykldrem.jpg,00479940519fa_sunabxsbfwjccqxxzxq.jpg,,,,,,,<,Place,,,,,1,,,,,,,o
10,again,Memory,0,,,,,,,01207940128fa.jpg,,,,,,,,,,,,,,,
11,again,Memory,0,,,,,,,sunakgbnzxmfohgehnu.jpg,,,,,,,,,,,,,,,
12,again,Memory,0,,,,,,,sunabtlfmiwtljmoues.jpg,,,,,,,,,,,,,,,
13,again,Memory,0,,,,,,,sundbixjudsgeuuehrn.jpg,,,,,,,,,,,,,,,
14,again,Memory,0,,,,,,,sunalqmfgeadpqsyzpd.jpg,,,,,,,,,,,,,,,
15,again,Memory,0,,,,,,,00894960620fa.jpg,,,,,,,,,,,,,,,
16,again,Memory,0,,,,,,,00876960620fa.jpg,,,,,,,,,,,,,,,
17,again,Memory,0,,,,,,,sunaaeowapdkwzqpgqr.jpg,,,,,,,,,,,,,,,
18,again,Memory,0,,,,,,,sunbvbrvgbpanfrawft.jpg,,,,,,,,,,,,,,,
19,again,Memory,0,,,,,,,sunbwtlihsuptkrckid.jpg,,,,,,,,,,,,,,,
20,again,Memory,0,,,,,,,00147931230fb.jpg,,,,,,,,,,,,,,,
21,again,Memory,0,,,,,,,00140931230fb.jpg,,,,,,,,,,,,,,,
22,again,Memory,0,,,,,,,00069931230fb.jpg,,,,,,,,,,,,,,,
23,again,Memory,0,,,,,,,00864940307fa.jpg,,,,,,,,,,,,,,,
24,again,Memory,0,,,,,,,sunajwqkfsykceonyig.jpg,,,,,,,,,,,,,,,
25,again,Memory,0,,,,,,,sunaavodbcpygkggnfp.jpg,,,,,,,,,,,,,,,
26,again,Memory,0,,,,,,,00744941201fa.jpg,,,,,,,,,,,,,,,
27,again,Memory,0,,,,,,,sunbwaafjdebjzttuvq.jpg,,,,,,,,,,,,,,,
28,again,Memory,0,,,,,,,01004960627fa.jpg,,,,,,,,,,,,,,,
29,again,Memory,0,,,,,,,sunbaoizrfijvhpnnjn.jpg,,,,,,,,,,,,,,,
30,again,Memory,0,,,,,,,00807941205fa.jpg,,,,,,,,,,,,,,,
31,again,Memory,0,,,,,,,00479940519fa.jpg,,,,,,,,,,,,,,,
32,again,Memory,0,,,,,,,00163931230fb.jpg,,,,,,,,,,,,,,,
33,again,Memory,0,,,,,,,sunaatpkocdkocwxpkb.jpg,,,,,,,,,,,,,,,
34,again,Memory,0,,,,,,,sunaeisnjeetzmkbuad.jpg,,,,,,,,,,,,,,,
35,again,Memory,0,,,,,,,00969960627fa.jpg,,,,,,,,,,,,,,,
36,again,Memory,0,,,,,,,sunajawzbrlrwafowen.jpg,,,,,,,,,,,,,,,
37,again,Memory,0,,,,,,,sunaapllqyqlykszopd.jpg,,,,,,,,,,,,,,,
38,again,Memory,0,,,,,,,00705960530fa.jpg,,,,,,,,,,,,,,,
39,again,Memory,0,,,,,,,sunabxsbfwjccqxxzxq.jpg,,,,,,,,,,,,,,,
40,again,Memory,0,,,,,,,00874940307fa.jpg,,,,,,,,,,,,,,,
41,again,Memory,0,,,,,,,sunahawfngukizslzsd.jpg,,,,,,,,,,,,,,,
42,again,Memory,0,,,,,,,00302940422fa.jpg,,,,,,,,,,,,,,,
43,again,Memory,0,,,,,,,sunaduslxfzlbxlllnz.jpg,,,,,,,,,,,,,,,
44,again,Memory,0,,,,,,,sunaeomlfaabhpswasy.jpg,,,,,,,,,,,,,,,
45,again,Memory,0,,,,,,,00878960530fa.jpg,,,,,,,,,,,,,,,
46,again,Memory,0,,,,,,,00727941205fa.jpg,,,,,,,,,,,,,,,
47,again,Memory,0,,,,,,,01002960627fb.jpg,,,,,,,,,,,,,,,
48,again,Memory,0,,,,,,,00999960627fa.jpg,,,,,,,,,,,,,,,
49,again,Memory,0,,,,,,,sunajtrfunvzdfticna.jpg,,,,,,,,,,,,,,,
50,again,Presentation,1,00130931230fa_sunaamvxnvouicstkjb.jpg,01011960627fa_sundahdxwmcdluscvot.jpg,,,,,,,>,Face,,,,,1,,,,,,,x
51,again,Presentation,1,00554940519fa_sunacfdkbsrughwqwtt.jpg,00073931230fa_sunaafbmtoniaasysgu.jpg,,,,,,,>,Place,,,,,1,,,,,,,o
52,again,Presentation,1,00741941201fa_sunaemcowdozyphwknd.jpg,00902960530fa_sunanaacmmosxrfwmvl.jpg,,,,,,,>,Face,,,,,1,,,,,,,o
53,again,Presentation,1,00877960530fa_sunajxpkuhbizeveguy.jpg,00829940307fa_sunahwgbqkqcrwprgvh.jpg,,,,,,,<,Face,,,,,0,,,,,,,x
54,again,Presentation,1,00955960627fb_sunauburywlkjszngcq.jpg,00773941201fa_sunafvcflzhlqloapyo.jpg,,,,,,,<,Place,,,,,1,,,,,,,o
55,again,Presentation,1,00144931230fb_sunaathajvxrgptwhoj.jpg,00245940128fa_sunabeyhmxodahoieyk.jpg,,,,,,,<,Face,,,,,1,,,,,,,o
56,again,Presentation,1,00787941205fa_sunagmwxxwymwojbvgi.jpg,00663941121fa_sunadnjjzohjhbohlwq.jpg,,,,,,,>,Face,,,,,1,,,,,,,o
57,again,Presentation,1,00789960620fa_sunagpancjmxqfazssf.jpg,00634940928fa_sunadcphrizvfpljiqt.jpg,,,,,,,<,Place,,,,,1,,,,,,,o
58,again,Presentation,1,00801941205fa_sunagvprlbprarvgdvj.jpg,00271940422fa_sunabmbnddafmywtjjj.jpg,,,,,,,>,Place,,,,,1,,,,,,,x
59,again,Presentation,1,00211940128fa_sunabasphceswhwwqvv.jpg,00882960530fa_sunaknlirqjqiwbbeeg.jpg,,,,,,,<,Place,,,,,0,,,,,,,x
60,again,Memory,1,,,,,,,00766960620fa.jpg,,,,,,,,,,,,,,,
61,again,Memory,1,,,,,,,00939960627fa.jpg,,,,,,,,,,,,,,,
62,again,Memory,1,,,,,,,sunafijbgncijwykrnl.jpg,,,,,,,,,,,,,,,
63,again,Memory,1,,,,,,,00589940928fa.jpg,,,,,,,,,,,,,,,
64,again,Memory,1,,,,,,,sunacwggadqsfpovdjv.jpg,,,,,,,,,,,,,,,
65,again,Memory,1,,,,,,,00065931230fb.jpg,,,,,,,,,,,,,,,
66,again,Memory,1,,,,,,,sunadcphrizvfpljiqt.jpg,,,,,,,,,,,,,,,
67,again,Memory,1,,,,,,,00882960530fa.jpg,,,,,,,,,,,,,,,
68,again,Memory,1,,,,,,,00902960530fa.jpg,,,,,,,,,,,,,,,
69,again,Memory,1,,,,,,,00073931230fa.jpg,,,,,,,,,,,,,,,
70,again,Memory,1,,,,,,,00787941205fa.jpg,,,,,,,,,,,,,,,
71,again,Memory,1,,,,,,,sunabasphceswhwwqvv.jpg,,,,,,,,,,,,,,,
72,again,Memory,1,,,,,,,00634940928fa.jpg,,,,,,,,,,,,,,,
73,again,Memory,1,,,,,,,sunaahwnmtqsrhocysw.jpg,,,,,,,,,,,,,,,
74,again,Memory,1,,,,,,,00130931230fa.jpg,,,,,,,,,,,,,,,
75,again,Memory,1,,,,,,,sunapwjkcxdaeqehfql.jpg,,,,,,,,,,,,,,,
76,again,Memory,1,,,,,,,sunarceibpcyacbmfga.jpg,,,,,,,,,,,,,,,
77,again,Memory,1,,,,,,,sunafvcflzhlqloapyo.jpg,,,,,,,,,,,,,,,
78,again,Memory,1,,,,,,,00789960620fa.jpg,,,,,,,,,,,,,,,
79,again,Memory,1,,,,,,,00092931230fa.jpg,,,,,,,,,,,,,,,
80,again,Memory,1,,,,,,,00746941201fa.jpg,,,,,,,,,,,,,,,
81,again,Memory,1,,,,,,,00773941201fa.jpg,,,,,,,,,,,,,,,
82,again,Memory,1,,,,,,,sunaamvxnvouicstkjb.jpg,,,,,,,,,,,,,,,
83,again,Memory,1,,,,,,,00942960627fa.jpg,,,,,,,,,,,,,,,
84,again,Memory,1,,,,,,,sunanaacmmosxrfwmvl.jpg,,,,,,,,,,,,,,,
85,again,Memory,1,,,,,,,00751960620fa.jpg,,,,,,,,,,,,,,,
86,again,Memory,1,,,,,,,sunaaheqzstzxuadglu.jpg,,,,,,,,,,,,,,,
87,again,Memory,1,,,,,,,00554940519fa.jpg,,,,,,,,,,,,,,,
88,again,Memory,1,,,,,,,00933960627fa.jpg,,,,,,,,,,,,,,,
89,again,Memory,1,,,,,,,sunaetydippjxikifsb.jpg,,,,,,,,,,,,,,,
90,again,Memory,1,,,,,,,00211940128fa.jpg,,,,,,,,,,,,,,,
91,again,Memory,1,,,,,,,00093931230fa.jpg,,,,,,,,,,,,,,,
92,again,Memory,1,,,,,,,sunaaemixhfquhnxxlm.jpg,,,,,,,,,,,,,,,
93,again,Memory,1,,,,,,,sunarfdklgdnjgeqfjg.jpg,,,,,,,,,,,,,,,
94,again,Memory,1,,,,,,,sunagpancjmxqfazssf.jpg,,,,,,,,,,,,,,,
95,again,Memory,1,,,,,,,sunaezuszgtxnmsxdbk.jpg,,,,,,,,,,,,,,,
96,again,Memory,1,,,,,,,sunaafbmtoniaasysgu.jpg,,,,,,,,,,,,,,,
97,again,Memory,1,,,,,,,sunagmwxxwymwojbvgi.jpg,,,,,,,,,,,,,,,
98,again,Memory,1,,,,,,,sunacfdkbsrughwqwtt.jpg,,,,,,,,,,,,,,,
99,again,Memory,1,,,,,,,sunaknlirqjqiwbbeeg.jpg,,,,,,,,,,,,,,,
100,again,Presentation,2,00993960627fa_sunbprywzqxjcezkbch.jpg,00799941205fa_sunagutjvdvnhxejerz.jpg,,,,,,,>,Face,,,,,1,,,,,,,o
101,again,Presentation,2,00949960627fb_sunasnqkkyhilqkxiqm.jpg,00705941205fa_sunadtlxenqqxsyjvix.jpg,,,,,,,<,Face,,,,,1,,,,,,,x
102,again,Presentation,2,00576941031fa_sunacvjlsylseoghjup.jpg,00779941205fa_sunagdzlvkqtpnfxfcg.jpg,,,,,,,<,Place,,,,,1,,,,,,,x
103,again,Presentation,2,00260940128fa_sunabgfhvifeijihhjw.jpg,00648941031fa_sunadfndyrtqqiasoig.jpg,,,,,,,>,Face,,,,,1,,,,,,,x
104,again,Presentation,2,00548940519fa_sunacerqowiaeoqkmsq.jpg,00791941205fa_sunagrmyoovzukhxmlo.jpg,,,,,,,>,Place,,,,,1,,,,,,,o
105,again,Presentation,2,00914960620fa_sunaozisvwfbmlkfhzv.jpg,00116931230fa_sunaakqepfoeqomfgxf.jpg,,,,,,,<,Place,,,,,1,,,,,,,o
106,again,Presentation,2,00971960627fa_sunbbegcweqnetpdlrh.jpg,00836940307fa_sunainqelldeebvxtcz.jpg,,,,,,,<,Face,,,,,1,,,,,,,x
107,again,Presentation,2,00122931230fa_sunaakxjfbrrequcjmx.jpg,00859940307fa_sunaiycurtqsfkvcaso.jpg,,,,,,,>,Place,,,,,1,,,,,,,x
108,again,Presentation,2,00313940422fa_sunabwjvmoaddlyxfjr.jpg,00630940928fa_sunaczwgyukesaajxnx.jpg,,,,,,,<,Place,,,,,1,,,,,,,o
109,again,Presentation,2,00895960530fa_sunamczizlzavhzhpay.jpg,00193940928fa_sunaaxjpzcnxligjtjq.jpg,,,,,,,>,Face,,,,,1,,,,,,,x
110,again,Memory,2,,,,,,,00750941201fa.jpg,,,,,,,,,,,,,,,
111,again,Memory,2,,,,,,,sunaeuzwggvibufclwf.jpg,,,,,,,,,,,,,,,
112,again,Memory,2,,,,,,,00548940519fa.jpg,,,,,,,,,,,,,,,
113,again,Memory,2,,,,,,,00620940928fa.jpg,,,,,,,,,,,,,,,
114,again,Memory,2,,,,,,,sunagrmyoovzukhxmlo.jpg,,,,,,,,,,,,,,,
115,again,Memory,2,,,,,,,sunbprywzqxjcezkbch.jpg,,,,,,,,,,,,,,,
116,again,Memory,2,,,,,,,00834940307fa.jpg,,,,,,,,,,,,,,,
117,again,Memory,2,,,,,,,00929960627fa.jpg,,,,,,,,,,,,,,,
118,again,Memory,2,,,,,,,00648941031fa.jpg,,,,,,,,,,,,,,,
119,again,Memory,2,,,,,,,sunadfndyrtqqiasoig.jpg,,,,,,,,,,,,,,,
120,again,Memory,2,,,,,,,00799941205fa.jpg,,,,,,,,,,,,,,,
121,again,Memory,2,,,,,,,sunaanjcbzdvtvblsdy.jpg,,,,,,,,,,,,,,,
122,again,Memory,2,,,,,,,00958960627fa.jpg,,,,,,,,,,,,,,,
123,again,Memory,2,,,,,,,sunacypmnujalygkunp.jpg,,,,,,,,,,,,,,,
124,again,Memory,2,,,,,,,00313940422fa.jpg,,,,,,,,,,,,,,,
125,again,Memory,2,,,,,,,sunaibnpvhkdpdnzcnz.jpg,,,,,,,,,,,,,,,
126,again,Memory,2,,,,,,,sunaenwuebvlpdmntju.jpg,,,,,,,,,,,,,,,
127,again,Memory,2,,,,,,,sunaakxjfbrrequcjmx.jpg,,,,,,,,,,,,,,,
128,again,Memory,2,,,,,,,00705941205fa.jpg,,,,,,,,,,,,,,,
129,again,Memory,2,,,,,,,00630940928fa.jpg,,,,,,,,,,,,,,,
130,again,Memory,2,,,,,,,00847940307fa.jpg,,,,,,,,,,,,,,,
131,again,Memory,2,,,,,,,sunaprnrbmgkomdbchr.jpg,,,,,,,,,,,,,,,
132,again,Memory,2,,,,,,,00993960627fa.jpg,,,,,,,,,,,,,,,
133,again,Memory,2,,,,,,,00122931230fa.jpg,,,,,,,,,,,,,,,
134,again,Memory,2,,,,,,,sunavspxmxubqaeidjt.jpg,,,,,,,,,,,,,,,
135,again,Memory,2,,,,,,,sunaivdjruhkrfywfed.jpg,,,,,,,,,,,,,,,
136,again,Memory,2,,,,,,,00308940422fb.jpg,,,,,,,,,,,,,,,
137,again,Memory,2,,,,,,,00742941201fa.jpg,,,,,,,,,,,,,,,
138,again,Memory,2,,,,,,,sunagutjvdvnhxejerz.jpg,,,,,,,,,,,,,,,
139,again,Memory,2,,,,,,,sunacerqowiaeoqkmsq.jpg,,,,,,,,,,,,,,,
140,again,Memory,2,,,,,,,00791941205fa.jpg,,,,,,,,,,,,,,,
141,again,Memory,2,,,,,,,sunabwfvcqqidycwypa.jpg,,,,,,,,,,,,,,,
142,again,Memory,2,,,,,,,sunamczizlzavhzhpay.jpg,,,,,,,,,,,,,,,
143,again,Memory,2,,,,,,,sunaczwgyukesaajxnx.jpg,,,,,,,,,,,,,,,
144,again,Memory,2,,,,,,,00983960627fa.jpg,,,,,,,,,,,,,,,
145,again,Memory,2,,,,,,,sunadtlxenqqxsyjvix.jpg,,,,,,,,,,,,,,,
146,again,Memory,2,,,,,,,sunabwjvmoaddlyxfjr.jpg,,,,,,,,,,,,,,,
147,again,Memory,2,,,,,,,00895960530fa.jpg,,,,,,,,,,,,,,,
148,again,Memory,2,,,,,,,00132931230fb.jpg,,,,,,,,,,,,,,,
149,again,Memory,2,,,,,,,sunbfyvfqiimvdaxlqn.jpg,,,,,,,,,,,,,,,
150,again,Presentation,3,00070940307fa_sunaaeplwsfslcbtojr.jpg,00869940307fa_sunajoveqhiprwqgoco.jpg,,,,,,,<,Place,,,,,1,,,,,,,x
151,again,Presentation,3,00754941201fa_sunaffgsyyvoqdlkmnk.jpg,00752960620fa_sunafbwnojpqeyzssoe.jpg,,,,,,,<,Face,,,,,1,,,,,,,x
152,again,Presentation,3,00984960627fa_sunbfzchmomnvzhbxdg.jpg,00749941201fa_sunaeuvjbmdpknaqqaj.jpg,,,,,,,>,Place,,,,,1,,,,,,,x
153,again,Presentation,3,00633940928fa_sunadbhmrgrrpyzglxs.jpg,00937960627fa_sunaqsolmfydodnakub.jpg,,,,,,,<,Face,,,,,1,,,,,,,x
154,again,Presentation,3,00936960627fa_sunaqgjuuwvdcyiccjt.jpg,01007960627fa_sunbxarcshsnqsefemx.jpg,,,,,,,>,Face,,,,,1,,,,,,,o
155,again,Presentation,3,00126931230fb_sunaamdjwemxpmmtypi.jpg,00483940519fa_sunabyvpwkgsjtijdwj.jpg,,,,,,,>,Place,,,,,1,,,,,,,x
156,again,Presentation,3,00723941201fa_sunaedtgwjvvziytspa.jpg,00112931230fa_sunaakjaacuzulqckgl.jpg,,,,,,,<,Place,,,,,0,,,,,,,x
157,again,Presentation,3,00905960530fa_sunanmoqeyprjjjfxjt.jpg,00197940128fa_sunaaylzyqlqrsmfwif.jpg,,,,,,,>,Face,,,,,1,,,,,,,o
158,again,Presentation,3,00264940128fb_sunabjzyxcjnmztdonj.jpg,00938960627fa_sunaqyylsngywqzwfmx.jpg,,,,,,,<,Place,,,,,1,,,,,,,x
159,again,Presentation,3,00529940519fa_sunacbeefkxpymwevpk.jpg,00720960620fa_sunaecpkgfewqqreqwe.jpg,,,,,,,>,Face,,,,,1,,,,,,,x
160,again,Memory,3,,,,,,,00911960530fa.jpg,,,,,,,,,,,,,,,
161,again,Memory,3,,,,,,,sunanmoqeyprjjjfxjt.jpg,,,,,,,,,,,,,,,
162,again,Memory,3,,,,,,,sunaedtgwjvvziytspa.jpg,,,,,,,,,,,,,,,
163,again,Memory,3,,,,,,,01007960627fa.jpg,,,,,,,,,,,,,,,
164,again,Memory,3,,,,,,,00112931230fa.jpg,,,,,,,,,,,,,,,
165,again,Memory,3,,,,,,,00753941201fa.jpg,,,,,,,,,,,,,,,
166,again,Memory,3,,,,,,,00869940307fa.jpg,,,,,,,,,,,,,,,
167,again,Memory,3,,,,,,,00936960627fa.jpg,,,,,,,,,,,,,,,
168,again,Memory,3,,,,,,,00670941121fa.jpg,,,,,,,,,,,,,,,
169,again,Memory,3,,,,,,,sunbxarcshsnqsefemx.jpg,,,,,,,,,,,,,,,
170,again,Memory,3,,,,,,,sunalcrtwiycqobgelp.jpg,,,,,,,,,,,,,,,
171,again,Memory,3,,,,,,,sunaahzooisqkwlxwoz.jpg,,,,,,,,,,,,,,,
172,again,Memory,3,,,,,,,00754941201fa.jpg,,,,,,,,,,,,,,,
173,again,Memory,3,,,,,,,sunaecpkgfewqqreqwe.jpg,,,,,,,,,,,,,,,
174,again,Memory,3,,,,,,,00723941201fa.jpg,,,,,,,,,,,,,,,
175,again,Memory,3,,,,,,,00762941201fa.jpg,,,,,,,,,,,,,,,
176,again,Memory,3,,,,,,,sunajoveqhiprwqgoco.jpg,,,,,,,,,,,,,,,
177,again,Memory,3,,,,,,,sunaqsolmfydodnakub.jpg,,,,,,,,,,,,,,,
178,again,Memory,3,,,,,,,sunafvsxtzaizojicxx.jpg,,,,,,,,,,,,,,,
179,again,Memory,3,,,,,,,sunaqgjuuwvdcyiccjt.jpg,,,,,,,,,,,,,,,
180,again,Memory,3,,,,,,,00264940128fb.jpg,,,,,,,,,,,,,,,
181,again,Memory,3,,,,,,,sunaooaqzputrowwbsw.jpg,,,,,,,,,,,,,,,
182,again,Memory,3,,,,,,,00095931230fa.jpg,,,,,,,,,,,,,,,
183,again,Memory,3,,,,,,,sunacuatpqpqhyjhjqk.jpg,,,,,,,,,,,,,,,
184,again,Memory,3,,,,,,,00887960530.jpg,,,,,,,,,,,,,,,
185,again,Memory,3,,,,,,,00773960620fa.jpg,,,,,,,,,,,,,,,
186,again,Memory,3,,,,,,,sunaffgsyyvoqdlkmnk.jpg,,,,,,,,,,,,,,,
187,again,Memory,3,,,,,,,sunaakjaacuzulqckgl.jpg,,,,,,,,,,,,,,,
188,again,Memory,3,,,,,,,sunafcofuuzebuadceo.jpg,,,,,,,,,,,,,,,
189,again,Memory,3,,,,,,,00972960627fa.jpg,,,,,,,,,,,,,,,
190,again,Memory,3,,,,,,,00905960530fa.jpg,,,,,,,,,,,,,,,
191,again,Memory,3,,,,,,,sunadochqcucscehsgk.jpg,,,,,,,,,,,,,,,
192,again,Memory,3,,,,,,,00800941205fb.jpg,,,,,,,,,,,,,,,
193,again,Memory,3,,,,,,,00720960620fa.jpg,,,,,,,,,,,,,,,
194,again,Memory,3,,,,,,,sunagvjurcwdbixvnyi.jpg,,,,,,,,,,,,,,,
195,again,Memory,3,,,,,,,00571940928fa.jpg,,,,,,,,,,,,,,,
196,again,Memory,3,,,,,,,sunabjzyxcjnmztdonj.jpg,,,,,,,,,,,,,,,
197,again,Memory,3,,,,,,,sunbbfqwjpdxniyhies.jpg,,,,,,,,,,,,,,,
198,again,Memory,3,,,,,,,sunafgzgbisbopcyslr.jpg,,,,,,,,,,,,,,,
199,again,Memory,3,,,,,,,00937960627fa.jpg,,,,,,,,,,,,,,,
200,again,Presentation,4,00080931230fb_sunaafjszryxyavjzln.jpg,00944960627fa_sunasbbntuiheekqyaq.jpg,,,,,,,>,Place,,,,,1,,,,,,,x
201,again,Presentation,4,00276940422fa_sunabmytpyhsgigllxu.jpg,00792941205fa_sunagsiwrmuixqgdimb.jpg,,,,,,,<,Face,,,,,1,,,,,,,o
202,again,Presentation,4,00862940307fa_sunaizgnnplsvajzhkc.jpg,00782941205fa_sunagfvluwixdsozaql.jpg,,,,,,,>,Face,,,,,1,,,,,,,o
203,again,Presentation,4,00775941205fa_sunafvwfsmqkjrutjta.jpg,01010960627fa_suncnkvbhypnivcohyx.jpg,,,,,,,<,Place,,,,,1,,,,,,,o
204,again,Presentation,4,00719960620fa_sunadzuvtmtmgupotmf.jpg,00780960530fa_sunagetqixeypsysbpn.jpg,,,,,,,<,Face,,,,,1,,,,,,,x
205,again,Presentation,4,00505960627fa_sunabzuqsrgcsonqlkz.jpg,00967960627fa_sunbaejotfklekvpxcz.jpg,,,,,,,>,Face,,,,,1,,,,,,,o
206,again,Presentation,4,00982960627fa_sunbesrwkdsffeogeqq.jpg,00191940128fb_sunaawsdjisukbbginm.jpg,,,,,,,<,Place,,,,,1,,,,,,,x
207,again,Presentation,4,00198940128fb_sunaazezcsunmhttzxz.jpg,00835940307fa_sunaijsqpvodplbwxkf.jpg,,,,,,,>,Place,,,,,1,,,,,,,x
208,again,Presentation,4,00988960627fa_sunbmaiocftdtvnzgap.jpg,00777941205fa_sunagcinxkccdtrjmlv.jpg,,,,,,,<,Place,,,,,1,,,,,,,x
209,again,Presentation,4,00960960627fa_sunawksfbacycuhbrsc.jpg,00900960530fa_sunamlotskmmsjeogby.jpg,,,,,,,>,Face,,,,,0,,,,,,,x
210,again,Memory,4,,,,,,,sunbbhqyyzmsxhsbjmp.jpg,,,,,,,,,,,,,,,
211,again,Memory,4,,,,,,,sunagcinxkccdtrjmlv.jpg,,,,,,,,,,,,,,,
212,again,Memory,4,,,,,,,00780960530fa.jpg,,,,,,,,,,,,,,,
213,again,Memory,4,,,,,,,sunagmhildamktmqjss.jpg,,,,,,,,,,,,,,,
214,again,Memory,4,,,,,,,sunawksfbacycuhbrsc.jpg,,,,,,,,,,,,,,,
215,again,Memory,4,,,,,,,sunakodkcslgqhqlgwl.jpg,,,,,,,,,,,,,,,
216,again,Memory,4,,,,,,,sunbmaiocftdtvnzgap.jpg,,,,,,,,,,,,,,,
217,again,Memory,4,,,,,,,sunabzuqsrgcsonqlkz.jpg,,,,,,,,,,,,,,,
218,again,Memory,4,,,,,,,00988960627fa.jpg,,,,,,,,,,,,,,,
219,again,Memory,4,,,,,,,sunagetqixeypsysbpn.jpg,,,,,,,,,,,,,,,
220,again,Memory,4,,,,,,,00967960627fa.jpg,,,,,,,,,,,,,,,
221,again,Memory,4,,,,,,,00777941205fa.jpg,,,,,,,,,,,,,,,
222,again,Memory,4,,,,,,,00505960627fa.jpg,,,,,,,,,,,,,,,
223,again,Memory,4,,,,,,,00775941205fa.jpg,,,,,,,,,,,,,,,
224,again,Memory,4,,,,,,,00786941205fa.jpg,,,,,,,,,,,,,,,
225,again,Memory,4,,,,,,,sunaobtizabegtwfwul.jpg,,,,,,,,,,,,,,,
226,again,Memory,4,,,,,,,sunaaelyvurpntclgau.jpg,,,,,,,,,,,,,,,
227,again,Memory,4,,,,,,,sunamkmeblgteyggink.jpg,,,,,,,,,,,,,,,
228,again,Memory,4,,,,,,,00805941205fa.jpg,,,,,,,,,,,,,,,
229,again,Memory,4,,,,,,,sunbesrwkdsffeogeqq.jpg,,,,,,,,,,,,,,,
230,again,Memory,4,,,,,,,sunagoufulkpsxrmklt.jpg,,,,,,,,,,,,,,,
231,again,Memory,4,,,,,,,00102931230fa.jpg,,,,,,,,,,,,,,,
232,again,Memory,4,,,,,,,sunasmmcxdddtmtazwx.jpg,,,,,,,,,,,,,,,
233,again,Memory,4,,,,,,,sunaajspcoepticvplv.jpg,,,,,,,,,,,,,,,
234,again,Memory,4,,,,,,,00982960627fa.jpg,,,,,,,,,,,,,,,
235,again,Memory,4,,,,,,,00909960530.jpg,,,,,,,,,,,,,,,
236,again,Memory,4,,,,,,,00787960620fa.jpg,,,,,,,,,,,,,,,
237,again,Memory,4,,,,,,,suncnkvbhypnivcohyx.jpg,,,,,,,,,,,,,,,
238,again,Memory,4,,,,,,,00947960627fa.jpg,,,,,,,,,,,,,,,
239,again,Memory,4,,,,,,,00898960530fa.jpg,,,,,,,,,,,,,,,
240,again,Memory,4,,,,,,,00884960530fa.jpg,,,,,,,,,,,,,,,
241,again,Memory,4,,,,,,,sunaijsqpvodplbwxkf.jpg,,,,,,,,,,,,,,,
242,again,Memory,4,,,,,,,01010960627fa.jpg,,,,,,,,,,,,,,,
243,again,Memory,4,,,,,,,00063931230fa.jpg,,,,,,,,,,,,,,,
244,again,Memory,4,,,,,,,sunagwzdbtlixdhgolm.jpg,,,,,,,,,,,,,,,
245,again,Memory,4,,,,,,,00835940307fa.jpg,,,,,,,,,,,,,,,
246,again,Memory,4,,,,,,,sunafvwfsmqkjrutjta.jpg,,,,,,,,,,,,,,,
247,again,Memory,4,,,,,,,sunbaejotfklekvpxcz.jpg,,,,,,,,,,,,,,,
248,again,Memory,4,,,,,,,00976960627fa.jpg,,,,,,,,,,,,,,,
249,again,Memory,4,,,,,,,00960960627fa.jpg,,,,,,,,,,,,,,,
250,again,Presentation,5,00827940307fa_sunahtfxgsrmkiulnwk.jpg,00061931230fb_sunaaekxzjzrfgtkwjf.jpg,,,,,,,<,Face,,,,,1,,,,,,,x
251,again,Presentation,5,00797960620fa_sunagufzbeteqdjxais.jpg,00795941205fa_sunagtumacdlmciqamz.jpg,,,,,,,>,Place,,,,,1,,,,,,,o
252,again,Presentation,5,00210940128fb_sunabanoxjtqxamkucc.jpg,00638941031fa_sunadfktsqjthoglcsm.jpg,,,,,,,>,Face,,,,,1,,,,,,,o
253,again,Presentation,5,00631940928fa_sunadbdqzigzwipuipr.jpg,00760960620fa_sunaffstbkappprzxnv.jpg,,,,,,,<,Place,,,,,1,,,,,,,o
254,again,Presentation,5,00314940422fa_sunabwmcbaxwioksdgw.jpg,00082931230fa_sunaafvitpexrpvumsa.jpg,,,,,,,>,Place,,,,,1,,,,,,,o
255,again,Presentation,5,00908960530fa_sunanwjjyqqwzqrqagd.jpg,00214940128fa_sunabbafjowbzcvbucc.jpg,,,,,,,<,Face,,,,,1,,,,,,,x
256,again,Presentation,5,00194940128fb_sunaayehfdqcyxggsej.jpg,00838940307fa_sunaiozxhxgtfrmoagh.jpg,,,,,,,<,Place,,,,,1,,,,,,,x
257,again,Presentation,5,00136931230fb_sunaanptmsknhirrzed.jpg,00825940307fa_sunahrltmuwbiehihpe.jpg,,,,,,,>,Face,,,,,1,,,,,,,x
258,again,Presentation,5,00996960627fa_sunbpvgllfdejxcpjqp.jpg,00111931230fb_sunaakgekhjklxmvulj.jpg,,,,,,,<,Face,,,,,1,,,,,,,o
259,again,Presentation,5,00776941205fa_sunafxokyavhgptyfye.jpg,00953960627fa_sunatstrpjxhvtbaczf.jpg,,,,,,,>,Place,,,,,0,,,,,,,o
260,again,Memory,5,,,,,,,sunaizeyhvjzknwjudw.jpg,,,,,,,,,,,,,,,
261,again,Memory,5,,,,,,,sunacdnquypmsshhsbk.jpg,,,,,,,,,,,,,,,
262,again,Memory,5,,,,,,,sunaayehfdqcyxggsej.jpg,,,,,,,,,,,,,,,
263,again,Memory,5,,,,,,,00891960530fa.jpg,,,,,,,,,,,,,,,
264,again,Memory,5,,,,,,,sunaanptmsknhirrzed.jpg,,,,,,,,,,,,,,,
265,again,Memory,5,,,,,,,01009960627fa.jpg,,,,,,,,,,,,,,,
266,again,Memory,5,,,,,,,sunadsgmtznewzyasnk.jpg,,,,,,,,,,,,,,,
267,again,Memory,5,,,,,,,sunbxzweleltykebgan.jpg,,,,,,,,,,,,,,,
268,again,Memory,5,,,,,,,00142931230fb.jpg,,,,,,,,,,,,,,,
269,again,Memory,5,,,,,,,sunaafvitpexrpvumsa.jpg,,,,,,,,,,,,,,,
270,again,Memory,5,,,,,,,00581940928fa.jpg,,,,,,,,,,,,,,,
271,again,Memory,5,,,,,,,00136931230fb.jpg,,,,,,,,,,,,,,,
272,again,Memory,5,,,,,,,00214940128fa.jpg,,,,,,,,,,,,,,,
273,again,Memory,5,,,,,,,00860940307fa.jpg,,,,,,,,,,,,,,,
274,again,Memory,5,,,,,,,00728941205fa.jpg,,,,,,,,,,,,,,,
275,again,Memory,5,,,,,,,sunatstrpjxhvtbaczf.jpg,,,,,,,,,,,,,,,
276,again,Memory,5,,,,,,,00795941205fa.jpg,,,,,,,,,,,,,,,
277,again,Memory,5,,,,,,,sunahrltmuwbiehihpe.jpg,,,,,,,,,,,,,,,
278,again,Memory,5,,,,,,,sunabanoxjtqxamkucc.jpg,,,,,,,,,,,,,,,
279,again,Memory,5,,,,,,,00825940307fa.jpg,,,,,,,,,,,,,,,
280,again,Memory,5,,,,,,,sunaejnvnpltdmhbcsi.jpg,,,,,,,,,,,,,,,
281,again,Memory,5,,,,,,,sunagufzbeteqdjxais.jpg,,,,,,,,,,,,,,,
282,again,Memory,5,,,,,,,sunadflbrkckmepztql.jpg,,,,,,,,,,,,,,,
283,again,Memory,5,,,,,,,sunacvzhvcksnwqcqbw.jpg,,,,,,,,,,,,,,,
284,again,Memory,5,,,,,,,00647941031fa.jpg,,,,,,,,,,,,,,,
285,again,Memory,5,,,,,,,00086931230fa.jpg,,,,,,,,,,,,,,,
286,again,Memory,5,,,,,,,00540940519fa.jpg,,,,,,,,,,,,,,,
287,again,Memory,5,,,,,,,00776941205fa.jpg,,,,,,,,,,,,,,,
288,again,Memory,5,,,,,,,00082931230fa.jpg,,,,,,,,,,,,,,,
289,again,Memory,5,,,,,,,sunaafynehyrzpsoaml.jpg,,,,,,,,,,,,,,,
290,again,Memory,5,,,,,,,sunafxokyavhgptyfye.jpg,,,,,,,,,,,,,,,
291,again,Memory,5,,,,,,,00953960627fa.jpg,,,,,,,,,,,,,,,
292,again,Memory,5,,,,,,,sunabbafjowbzcvbucc.jpg,,,,,,,,,,,,,,,
293,again,Memory,5,,,,,,,sunaapxkpvrhpjplsok.jpg,,,,,,,,,,,,,,,
294,again,Memory,5,,,,,,,00210940128fb.jpg,,,,,,,,,,,,,,,
295,again,Memory,5,,,,,,,00194940128fb.jpg,,,,,,,,,,,,,,,
296,again,Memory,5,,,,,,,00700941121fa.jpg,,,,,,,,,,,,,,,
297,again,Memory,5,,,,,,,00797960620fa.jpg,,,,,,,,,,,,,,,
298,again,Memory,5,,,,,,,sunalkiibhqpxfamlll.jpg,,,,,,,,,,,,,,,
299,again,Memory,5,,,,,,,sunagtumacdlmciqamz.jpg,,,,,,,,,,,,,,,
300,again,Presentation,6,00609940928fa_sunacycdoztxoluxjyk.jpg,00115931230fa_sunaakmxzhuceuiryah.jpg,,,,,,,>,Face,,,,,0,,,,,,,x
301,again,Presentation,6,00868960307fa_sunajjxttslobudoqbv.jpg,00630941031fa_sunadakkdovnuzlycvp.jpg,,,,,,,>,Place,,,,,1,,,,,,,x
302,again,Presentation,6,00557940519fa_sunachtuarilwyqnvjx.jpg,00931960627fa_sunaptrqvaooxfvktvw.jpg,,,,,,,<,Place,,,,,1,,,,,,,o
303,again,Presentation,6,00574940928fa_sunacvbrcejzwmcgnoq.jpg,00774941201fa_sunafvtpfczkzopbgue.jpg,,,,,,,<,Face,,,,,1,,,,,,,x
304,again,Presentation,6,00848940307fa_sunaivdylrawbmhryfp.jpg,00146960620fb_sunaatpeezlljqaxlhj.jpg,,,,,,,<,Place,,,,,1,,,,,,,x
305,again,Presentation,6,00109931230fa_sunaajuzribjrizdshh.jpg,00772941201fa_sunafpfpiiujzoesnqg.jpg,,,,,,,>,Face,,,,,1,,,,,,,x
306,again,Presentation,6,01005960627fa_sunbwyuesflwdpqtgoy.jpg,00977960627fa_sunbbxkanhzjgbwyxqs.jpg,,,,,,,>,Place,,,,,1,,,,,,,o
307,again,Presentation,6,00676941121fa_sunadpnqovzckyikrjo.jpg,00235940128fb_sunabclssnoeuigtawp.jpg,,,,,,,<,Face,,,,,0,,,,,,,o
308,again,Presentation,6,00965960627fa_sunaydywdmvlfddbxbk.jpg,00957960627fa_sunavhxgmgrqsaptynb.jpg,,,,,,,>,Place,,,,,1,,,,,,,o
309,again,Presentation,6,00119931230fb_sunaakvmbftkrgqhjun.jpg,00098931230fa_sunaajpqmulidejvjsr.jpg,,,,,,,<,Face,,,,,1,,,,,,,o
310,again,Memory,6,,,,,,,00090931230fa.jpg,,,,,,,,,,,,,,,
311,again,Memory,6,,,,,,,sunakwlvxjpddialozd.jpg,,,,,,,,,,,,,,,
312,again,Memory,6,,,,,,,00965960627fa.jpg,,,,,,,,,,,,,,,
313,again,Memory,6,,,,,,,sunaajuzribjrizdshh.jpg,,,,,,,,,,,,,,,
314,again,Memory,6,,,,,,,sunbdycacjfaujxitbw.jpg,,,,,,,,,,,,,,,
315,again,Memory,6,,,,,,,sunabctlikybqabezjv.jpg,,,,,,,,,,,,,,,
316,again,Memory,6,,,,,,,sunabppokiyglaxpcha.jpg,,,,,,,,,,,,,,,
317,again,Memory,6,,,,,,,sunbbxkanhzjgbwyxqs.jpg,,,,,,,,,,,,,,,
318,again,Memory,6,,,,,,,sunadikxpvqeabxrvvc.jpg,,,,,,,,,,,,,,,
319,again,Memory,6,,,,,,,00288940422fa.jpg,,,,,,,,,,,,,,,
320,again,Memory,6,,,,,,,00609940928fa.jpg,,,,,,,,,,,,,,,
321,again,Memory,6,,,,,,,sunaampvucecsfbdafn.jpg,,,,,,,,,,,,,,,
322,again,Memory,6,,,,,,,sunadpnqovzckyikrjo.jpg,,,,,,,,,,,,,,,
323,again,Memory,6,,,,,,,00127931230fa.jpg,,,,,,,,,,,,,,,
324,again,Memory,6,,,,,,,sunacacflqoyxhsqzhe.jpg,,,,,,,,,,,,,,,
325,again,Memory,6,,,,,,,00979960627fa.jpg,,,,,,,,,,,,,,,
326,again,Memory,6,,,,,,,00977960627fa.jpg,,,,,,,,,,,,,,,
327,again,Memory,6,,,,,,,sunacycdoztxoluxjyk.jpg,,,,,,,,,,,,,,,
328,again,Memory,6,,,,,,,sunabclssnoeuigtawp.jpg,,,,,,,,,,,,,,,
329,again,Memory,6,,,,,,,sunaaiqiqcggrskoqgy.jpg,,,,,,,,,,,,,,,
330,again,Memory,6,,,,,,,00574940928fa.jpg,,,,,,,,,,,,,,,
331,again,Memory,6,,,,,,,00129931230fb.jpg,,,,,,,,,,,,,,,
332,again,Memory,6,,,,,,,sunaatpeezlljqaxlhj.jpg,,,,,,,,,,,,,,,
333,again,Memory,6,,,,,,,sunaydywdmvlfddbxbk.jpg,,,,,,,,,,,,,,,
334,again,Memory,6,,,,,,,sunaahedjlmtqekgyvj.jpg,,,,,,,,,,,,,,,
335,again,Memory,6,,,,,,,00507940519fa.jpg,,,,,,,,,,,,,,,
336,again,Memory,6,,,,,,,00115931230fa.jpg,,,,,,,,,,,,,,,
337,again,Memory,6,,,,,,,00772941201fa.jpg,,,,,,,,,,,,,,,
338,again,Memory,6,,,,,,,00096931230fa.jpg,,,,,,,,,,,,,,,
339,again,Memory,6,,,,,,,00650941031fa.jpg,,,,,,,,,,,,,,,
340,again,Memory,6,,,,,,,00239940128fa.jpg,,,,,,,,,,,,,,,
341,again,Memory,6,,,,,,,00109931230fa.jpg,,,,,,,,,,,,,,,
342,again,Memory,6,,,,,,,00885960530fa.jpg,,,,,,,,,,,,,,,
343,again,Memory,6,,,,,,,00235940128fb.jpg,,,,,,,,,,,,,,,
344,again,Memory,6,,,,,,,sunaamsdyakblkfoydx.jpg,,,,,,,,,,,,,,,
345,again,Memory,6,,,,,,,sunafpfpiiujzoesnqg.jpg,,,,,,,,,,,,,,,
346,again,Memory,6,,,,,,,00676941121fa.jpg,,,,,,,,,,,,,,,
347,again,Memory,6,,,,,,,sunacvbrcejzwmcgnoq.jpg,,,,,,,,,,,,,,,
348,again,Memory,6,,,,,,,sunaakmxzhuceuiryah.jpg,,,,,,,,,,,,,,,
349,again,Memory,6,,,,,,,00146960620fb.jpg,,,,,,,,,,,,,,,
350,again,Presentation,7,00828940307fa_sunahuynahneraqftyz.jpg,00564940928fa_sunacmpqqfbsvlzinzl.jpg,,,,,,,>,Face,,,,,1,,,,,,,x
351,again,Presentation,7,00866940307fa_sunajbwkywmsqkldfml.jpg,00694941121fa_sunadrmfzmstgdjdcod.jpg,,,,,,,>,Place,,,,,1,,,,,,,x
352,again,Presentation,7,00089931230fa_sunaagcpoejbuzyvddd.jpg,00568940928fa_sunacsdhbbsybcyxnel.jpg,,,,,,,<,Face,,,,,1,,,,,,,o
353,again,Presentation,7,00305940422fa_sunabtrnbvpppgczjim.jpg,00745941205fa_sunaeouogqolxvggaoq.jpg,,,,,,,<,Place,,,,,0,,,,,,,x
354,again,Presentation,7,00218940128fa_sunabbwggenhfbftyvi.jpg,00292940422fb_sunabrjdpmoedcdjbpo.jpg,,,,,,,>,Place,,,,,1,,,,,,,o
355,again,Presentation,7,00935960627fa_sunaqbmgkgqucajzrkp.jpg,00913960530fa_sunaooffzffbhcpirmm.jpg,,,,,,,<,Face,,,,,1,,,,,,,o
356,again,Presentation,7,00784941205fb_sunagjzcrjvmxzqzljx.jpg,00986960627fa_sunbgzjryivyczuvkvm.jpg,,,,,,,>,Place,,,,,1,,,,,,,o
357,again,Presentation,7,00857940307fa_sunaiwfobocrruqznsv.jpg,00778941205fa_sunagcthdfirrcawoic.jpg,,,,,,,<,Place,,,,,1,,,,,,,o
358,again,Presentation,7,00071940128fa_sunaaexpnawiehinlpy.jpg,00747941201fa_sunaeutbrtswvsozxyk.jpg,,,,,,,>,Face,,,,,1,,,,,,,o
359,again,Presentation,7,00906960530fa_sunantryfbloeaomfta.jpg,00970960627fa_sunbasypfgzjtomktmu.jpg,,,,,,,<,Face,,,,,1,,,,,,,x
360,again,Memory,7,,,,,,,sunabyfxcxhdebvdyfd.jpg,,,,,,,,,,,,,,,
361,again,Memory,7,,,,,,,00989960627fa.jpg,,,,,,,,,,,,,,,
362,again,Memory,7,,,,,,,00089931230fa.jpg,,,,,,,,,,,,,,,
363,again,Memory,7,,,,,,,sunaagcpoejbuzyvddd.jpg,,,,,,,,,,,,,,,
364,again,Memory,7,,,,,,,00498960627fa.jpg,,,,,,,,,,,,,,,
365,again,Memory,7,,,,,,,sunabzjxlmkwnwzimua.jpg,,,,,,,,,,,,,,,
366,again,Memory,7,,,,,,,sunbondbduabvijnmch.jpg,,,,,,,,,,,,,,,
367,again,Memory,7,,,,,,,sunacmpqqfbsvlzinzl.jpg,,,,,,,,,,,,,,,
368,again,Memory,7,,,,,,,00138931230fa.jpg,,,,,,,,,,,,,,,
369,again,Memory,7,,,,,,,sunaafgqutfaishsxyu.jpg,,,,,,,,,,,,,,,
370,again,Memory,7,,,,,,,sunabbwggenhfbftyvi.jpg,,,,,,,,,,,,,,,
371,again,Memory,7,,,,,,,00077931230fb.jpg,,,,,,,,,,,,,,,
372,again,Memory,7,,,,,,,sunagwswhkvnsmuszlz.jpg,,,,,,,,,,,,,,,
373,again,Memory,7,,,,,,,sunantryfbloeaomfta.jpg,,,,,,,,,,,,,,,
374,again,Memory,7,,,,,,,00482940519fa.jpg,,,,,,,,,,,,,,,
375,again,Memory,7,,,,,,,00921960627fa.jpg,,,,,,,,,,,,,,,
376,again,Memory,7,,,,,,,sunaloffvbvysigxent.jpg,,,,,,,,,,,,,,,
377,again,Memory,7,,,,,,,00305940422fa.jpg,,,,,,,,,,,,,,,
378,again,Memory,7,,,,,,,sunabohxbskznglnrhv.jpg,,,,,,,,,,,,,,,
379,again,Memory,7,,,,,,,00568940928fa.jpg,,,,,,,,,,,,,,,
380,again,Memory,7,,,,,,,sunagcthdfirrcawoic.jpg,,,,,,,,,,,,,,,
381,again,Memory,7,,,,,,,00280940422fb.jpg,,,,,,,,,,,,,,,
382,again,Memory,7,,,,,,,00745941205fa.jpg,,,,,,,,,,,,,,,
383,again,Memory,7,,,,,,,00906960530fa.jpg,,,,,,,,,,,,,,,
384,again,Memory,7,,,,,,,00893960530Fa.jpg,,,,,,,,,,,,,,,
385,again,Memory,7,,,,,,,00218940128fa.jpg,,,,,,,,,,,,,,,
386,again,Memory,7,,,,,,,sunaeouogqolxvggaoq.jpg,,,,,,,,,,,,,,,
387,again,Memory,7,,,,,,,01003960627fb.jpg,,,,,,,,,,,,,,,
388,again,Memory,7,,,,,,,00804960530fa.jpg,,,,,,,,,,,,,,,
389,again,Memory,7,,,,,,,sunacsdhbbsybcyxnel.jpg,,,,,,,,,,,,,,,
390,again,Memory,7,,,,,,,00564940928fa.jpg,,,,,,,,,,,,,,,
391,again,Memory,7,,,,,,,sunapqkpqdfvxlbqwyo.jpg,,,,,,,,,,,,,,,
392,again,Memory,7,,,,,,,00857940307fa.jpg,,,,,,,,,,,,,,,
393,again,Memory,7,,,,,,,sunbwdrdvsweerwsdrj.jpg,,,,,,,,,,,,,,,
394,again,Memory,7,,,,,,,sunaiwfobocrruqznsv.jpg,,,,,,,,,,,,,,,
395,again,Memory,7,,,,,,,00778941205fa.jpg,,,,,,,,,,,,,,,
396,again,Memory,7,,,,,,,sunabtrnbvpppgczjim.jpg,,,,,,,,,,,,,,,
397,again,Memory,7,,,,,,,00292940422fb.jpg,,,,,,,,,,,,,,,
398,again,Memory,7,,,,,,,sunaapfaivxqoynnwwp.jpg,,,,,,,,,,,,,,,
399,again,Memory,7,,,,,,,sunabrjdpmoedcdjbpo.jpg,,,,,,,,,,,,,,,
