,Subject,Trial Type,Run,Cued Composite,Uncued Composite,Cued Face,Cued Place,Uncued Face,Uncued Place,Memory Image,Category,Cued Side,Cued Category,Attention Reaction Time (s),Familiarity Reaction Time (s),Familiarity Rating,Attention Level,Cue Validity,Post Invalid Cue,Pre Invalid Cue,Attention Button,Rating History,Stimulus Onset,Stimulus End,Attention Probe
310,27,Memory,6,,,,,,,01002960627fb.jpg,,,,,1.167,2.0,,,,,,,1539803293.064188,1539803295.127169,
311,27,Memory,6,,,,,,,sundbixjudsgeuuehrn.jpg,,,,,0.8,2.0,,,,,,,1539803296.415431,1539803298.411177,
312,27,Memory,6,,,,,,,00481940519fa.jpg,,,,,0.648,3.0,,,,,,,1539803299.69485,1539803301.695869,
313,27,Memory,6,,,,,,,sunagfvluwixdsozaql.jpg,,,,,1.002,2.0,,,,,,,1539803302.984072,1539803304.983601,
314,27,Memory,6,,,,,,,00911960530fa.jpg,,,,,0.9,2.0,,,,,,,1539803306.26819,1539803308.267205,
315,27,Memory,6,,,,,,,00242940128fa.jpg,,,,,0.882,2.0,,,,,,,1539803309.531203,1539803311.535913,
316,27,Memory,6,,,,,,,sunagoufulkpsxrmklt.jpg,,,,,0.798,1.0,,,,,,,1539803312.80028,1539803314.799501,
317,27,Memory,6,,,,,,,sunaawqdbpihmlbwyyn.jpg,,,,,0.719,3.0,,,,,,,1539803316.088001,1539803318.255389,
318,27,Memory,6,,,,,,,sunagcthdfirrcawoic.jpg,,,,,0.757,1.0,,,,,,,1539803319.55648,1539803322.061019,
319,27,Memory,6,,,,,,,00082931230fa.jpg,,,,,0.791,1.0,,,,,,,1539803323.391455,1539803325.929052,
320,27,Memory,6,,,,,,,00859940307fa.jpg,,,,,0.725,2.0,,,,,,,1539803327.241834,1539803329.778479,
321,27,Memory,6,,,,,,,sunbaoizrfijvhpnnjn.jpg,,,,,0.692,2.0,,,,,,,1539803331.093077,1539803333.522073,
322,27,Memory,6,,,,,,,sunavspxmxubqaeidjt.jpg,,,,,0.642,1.0,,,,,,,1539803334.828302,1539803337.157724,
323,27,Memory,6,,,,,,,01207940128fa.jpg,,,,,0.859,2.0,,,,,,,1539803338.479691,1539803340.793001,
324,27,Memory,6,,,,,,,sunagpancjmxqfazssf.jpg,,,,,1.409,1.0,,,,,,,1539803342.147541,1539803344.78202,
325,27,Memory,6,,,,,,,00140931230fb.jpg,,,,,0.876,2.0,,,,,,,1539803346.063828,1539803348.432003,
326,27,Memory,6,,,,,,,00761960627fa.jpg,,,,,0.804,2.0,,,,,,,1539803349.749352,1539803351.850207,
327,27,Memory,6,,,,,,,sunawotxrevnqvamsfp.jpg,,,,,1.091,3.0,,,,,,,1539803353.134343,1539803355.546414,
328,27,Memory,6,,,,,,,sunaooaqzputrowwbsw.jpg,,,,,0.842,1.0,,,,,,,1539803356.86929,1539803359.381117,
329,27,Memory,6,,,,,,,sunaiycurtqsfkvcaso.jpg,,,,,1.459,2.0,,,,,,,1539803360.669904,1539803363.486766,
330,27,Memory,6,,,,,,,sunbloeoiozwjjsiamp.jpg,,,,,1.293,2.0,,,,,,,1539803364.78704,1539803367.357483,
331,27,Memory,6,,,,,,,00185940422fb.jpg,,,,,0.926,2.0,,,,,,,1539803368.656053,1539803370.992925,
332,27,Memory,6,,,,,,,sunafgdqbclkwfocdhg.jpg,,,,,0.724,1.0,,,,,,,1539803372.307304,1539803374.726403,
333,27,Memory,6,,,,,,,00961960627fa.jpg,,,,,0.826,2.0,,,,,,,1539803376.024683,1539803378.410968,
334,27,Memory,6,,,,,,,00782941205fa.jpg,,,,,0.985,3.0,,,,,,,1539803379.709662,1539803382.33855,
335,27,Memory,6,,,,,,,00987960627fa.jpg,,,,,2.074,2.0,,,,,,,1539803383.627083,1539803386.494138,
336,27,Memory,6,,,,,,,00969960627fa.jpg,,,,,0.893,2.0,,,,,,,1539803387.796039,1539803390.161453,
337,27,Memory,6,,,,,,,sunabasphceswhwwqvv.jpg,,,,,1.076,1.0,,,,,,,1539803391.480284,1539803394.080512,
338,27,Memory,6,,,,,,,00778941205fa.jpg,,,,,0.942,1.0,,,,,,,1539803395.380866,1539803397.960935,
339,27,Memory,6,,,,,,,sunabcuurugvxwparpk.jpg,,,,,1.174,4.0,,,,,,,1539803399.249161,1539803401.866759,
340,27,Memory,6,,,,,,,00789960620fa.jpg,,,,,1.141,2.0,,,,,,,1539803403.183291,1539803405.462698,
341,27,Memory,6,,,,,,,00787960620fa.jpg,,,,,1.475,3.0,,,,,,,1539803406.734547,1539803409.396487,
342,27,Memory,6,,,,,,,sunbwaafjdebjzttuvq.jpg,,,,,0.825,1.0,,,,,,,1539803410.702334,1539803413.203948,
343,27,Memory,6,,,,,,,sunaapllqyqlykszopd.jpg,,,,,0.708,2.0,,,,,,,1539803414.503136,1539803416.933134,
344,27,Memory,6,,,,,,,sunaafvitpexrpvumsa.jpg,,,,,1.259,2.0,,,,,,,1539803418.22166,1539803420.76715,
345,27,Memory,6,,,,,,,sunaaylzyqlqrsmfwif.jpg,,,,,1.575,1.0,,,,,,,1539803422.056829,1539803424.491734,
346,27,Memory,6,,,,,,,00958960627fa.jpg,,,,,0.877,2.0,,,,,,,1539803425.791058,1539803428.474061,
347,27,Memory,6,,,,,,,sunabxsuqbleluwczoy.jpg,,,,,1.308,3.0,,,,,,,1539803429.775827,1539803432.477648,
348,27,Memory,6,,,,,,,00211940128fa.jpg,,,,,0.96,3.0,,,,,,,1539803433.793794,1539803436.282111,
349,27,Memory,6,,,,,,,00197940128fa.jpg,,,,,0.842,2.0,,,,,,,1539803437.595151,1539803440.306509,
