,Subject,Trial Type,Run,Cued Composite,Uncued Composite,Cued Face,Cued Place,Uncued Face,Uncued Place,Memory Image,Category,Cued Side,Cued Category,Attention Reaction Time (s),Familiarity Reaction Time (s),Familiarity Rating,Attention Level,Cue Validity,Post Invalid Cue,Pre Invalid Cue,Attention Button,Rating History,Stimulus Onset,Stimulus End,Attention Probe
160,27,Memory,3,,,,,,,sunaivdylrawbmhryfp.jpg,,,,,2.492,1.0,,,,,,,1555959088.833563,1555959092.483771,
161,27,Memory,3,,,,,,,00630941031fa.jpg,,,,,1.227,1.0,,,,,,,1555959093.768712,1555959096.920055,
162,27,Memory,3,,,,,,,sunahwgbqkqcrwprgvh.jpg,,,,,1.894,2.0,,,,,,,1555959098.185825,1555959101.621016,
163,27,Memory,3,,,,,,,sunamczizlzavhzhpay.jpg,,,,,1.527,3.0,,,,,,,1555959102.886291,1555959106.405559,
164,27,Memory,3,,,,,,,sunabrlndkruqokhury.jpg,,,,,0.944,2.0,,,,,,,1555959107.688677,1555959110.89057,
165,27,Memory,3,,,,,,,00911960530fa.jpg,,,,,1.059,1.0,,,,,,,1555959112.174525,1555959115.020544,
166,27,Memory,3,,,,,,,00955960627fb.jpg,,,,,1.676,1.0,,,,,,,1555959116.258791,1555959119.659163,
167,27,Memory,3,,,,,,,00908960530fa.jpg,,,,,0.993,2.0,,,,,,,1555959120.926438,1555959123.894465,
168,27,Memory,3,,,,,,,00944960627fa.jpg,,,,,1.193,3.0,,,,,,,1555959125.128327,1555959128.558679,
169,27,Memory,3,,,,,,,sunafvwfsmqkjrutjta.jpg,,,,,0.926,2.0,,,,,,,1555959129.830519,1555959132.980789,
170,27,Memory,3,,,,,,,01000960627fa.jpg,,,,,1.176,3.0,,,,,,,1555959134.2481,1555959137.632193,
171,27,Memory,3,,,,,,,00316940422fa.jpg,,,,,0.808,3.0,,,,,,,1555959138.916116,1555959141.912497,
172,27,Memory,3,,,,,,,00854940307fa.jpg,,,,,0.833,2.0,,,,,,,1555959143.18335,1555959146.151607,
173,27,Memory,3,,,,,,,sunalqmfgeadpqsyzpd.jpg,,,,,2.56,2.0,,,,,,,1555959147.418832,1555959150.898305,
174,27,Memory,3,,,,,,,sunaiwduelojtwaqeyh.jpg,,,,,1.676,3.0,,,,,,,1555959152.136032,1555959155.05035,
175,27,Memory,3,,,,,,,sunanwjjyqqwzqrqagd.jpg,,,,,1.376,2.0,,,,,,,1555959156.321932,1555959159.551108,
176,27,Memory,3,,,,,,,00858940307fa.jpg,,,,,1.177,4.0,,,,,,,1555959160.789396,1555959163.626249,
177,27,Memory,3,,,,,,,sunaooaqzputrowwbsw.jpg,,,,,0.926,2.0,,,,,,,1555959164.874606,1555959168.037104,
178,27,Memory,3,,,,,,,00829940307fa.jpg,,,,,0.925,2.0,,,,,,,1555959169.276769,1555959172.388747,
179,27,Memory,3,,,,,,,sunabcuurugvxwparpk.jpg,,,,,1.076,4.0,,,,,,,1555959173.661158,1555959176.664665,
180,27,Memory,3,,,,,,,sunasbbntuiheekqyaq.jpg,,,,,1.378,3.0,,,,,,,1555959177.911491,1555959181.379533,
181,27,Memory,3,,,,,,,00288940422fa.jpg,,,,,1.044,2.0,,,,,,,1555959182.663716,1555959185.647788,
182,27,Memory,3,,,,,,,00848940307fa.jpg,,,,,1.425,3.0,,,,,,,1555959186.914026,1555959190.082946,
183,27,Memory,3,,,,,,,00700941121fa.jpg,,,,,1.175,2.0,,,,,,,1555959191.35009,1555959194.599944,
184,27,Memory,3,,,,,,,00775941205fa.jpg,,,,,1.042,2.0,,,,,,,1555959195.851531,1555959198.869728,
185,27,Memory,3,,,,,,,sunaixpqndlwhwjtjek.jpg,,,,,1.71,2.0,,,,,,,1555959200.119876,1555959203.382736,
186,27,Memory,3,,,,,,,sunauburywlkjszngcq.jpg,,,,,1.075,2.0,,,,,,,1555959204.621202,1555959207.654993,
187,27,Memory,3,,,,,,,00895960530fa.jpg,,,,,2.893,3.0,,,,,,,1555959208.923092,1555959212.472744,
188,27,Memory,3,,,,,,,sunaaemixhfquhnxxlm.jpg,,,,,1.459,4.0,,,,,,,1555959213.757511,1555959217.107429,
189,27,Memory,3,,,,,,,sunabppokiyglaxpcha.jpg,,,,,1.194,3.0,,,,,,,1555959218.374702,1555959221.72068,
190,27,Memory,3,,,,,,,00242940128fa.jpg,,,,,1.211,2.0,,,,,,,1555959222.975998,1555959226.227458,
191,27,Memory,3,,,,,,,00894960620fa.jpg,,,,,1.944,1.0,,,,,,,1555959227.478233,1555959230.624287,
192,27,Memory,3,,,,,,,00294940422fb.jpg,,,,,0.893,2.0,,,,,,,1555959231.862474,1555959234.942572,
193,27,Memory,3,,,,,,,sunabxmguapjekttvwm.jpg,,,,,1.159,1.0,,,,,,,1555959236.180826,1555959239.298045,
194,27,Memory,3,,,,,,,00065931230fb.jpg,,,,,1.693,2.0,,,,,,,1555959240.548751,1555959243.847739,
195,27,Memory,3,,,,,,,sunapqkpqdfvxlbqwyo.jpg,,,,,1.526,1.0,,,,,,,1555959245.100293,1555959247.629032,
196,27,Memory,3,,,,,,,sunadsgmtznewzyasnk.jpg,,,,,1.609,1.0,,,,,,,1555959248.869246,1555959252.230592,
197,27,Memory,3,,,,,,,sunadakkdovnuzlycvp.jpg,,,,,1.594,2.0,,,,,,,1555959253.47038,1555959256.620801,
198,27,Memory,3,,,,,,,00921960627fa.jpg,,,,,0.942,1.0,,,,,,,1555959257.904975,1555959261.256054,
199,27,Memory,3,,,,,,,sunbvzmgrdvaakxusbu.jpg,,,,,1.41,1.0,,,,,,,1555959262.523051,1555959265.75681,
