,Subject,Trial Type,Run,Cued Composite,Uncued Composite,Cued Face,Cued Place,Uncued Face,Uncued Place,Memory Image,Category,Cued Side,Cued Category,Attention Response Time (s),Familiarity Reaction Time (s),Familiarity Rating,Attention Level,Cue Validity,Post Invalid Cue,Pre Invalid Cue,Attention Button,Rating History,Stimulus Onset,Stimulus End,Attention Probe
0,7,Presentation,0,00197940128fa_sunaaylzyqlqrsmfwif.jpg,00959960627fa_sunavxokzybtomhbmvm.jpg,00197940128fa.jpg,sunaaylzyqlqrsmfwif.jpg,00959960627fa.jpg,sunavxokzybtomhbmvm.jpg,,,>,Place,,,,,1,,,,,,,x
1,7,Presentation,0,00795941205fa_sunagtumacdlmciqamz.jpg,00793941205fa_sunagtjwilqjvxohypn.jpg,00795941205fa.jpg,sunagtumacdlmciqamz.jpg,00793941205fa.jpg,sunagtjwilqjvxohypn.jpg,,,>,Place,,,,,1,,,,,,,x
2,7,Presentation,0,00082931230fa_sunaafvitpexrpvumsa.jpg,00123931230fb_sunaalcrrdbjgdztbiz.jpg,00082931230fa.jpg,sunaafvitpexrpvumsa.jpg,00123931230fb.jpg,sunaalcrrdbjgdztbiz.jpg,,,>,Place,,,,,1,,,,,,,o
3,7,Presentation,0,00884960530fa_sunakodkcslgqhqlgwl.jpg,00676941121fa_sunadpnqovzckyikrjo.jpg,00884960530fa.jpg,sunakodkcslgqhqlgwl.jpg,00676941121fa.jpg,sunadpnqovzckyikrjo.jpg,,,>,Place,,,,,1,,,,,,,x
4,7,Presentation,0,00481940519fa_sunabxsuqbleluwczoy.jpg,00797960620fa_sunagufzbeteqdjxais.jpg,00481940519fa.jpg,sunabxsuqbleluwczoy.jpg,00797960620fa.jpg,sunagufzbeteqdjxais.jpg,,,>,Place,,,,,1,,,,,,,x
5,7,Presentation,0,00096931230fa_sunaaiqiqcggrskoqgy.jpg,00723941201fa_sunaedtgwjvvziytspa.jpg,00096931230fa.jpg,sunaaiqiqcggrskoqgy.jpg,00723941201fa.jpg,sunaedtgwjvvziytspa.jpg,,,>,Place,,,,,1,,,,,,,o
6,7,Presentation,0,00742941201fa_sunaenwuebvlpdmntju.jpg,00635941031fa_sunaddsaeicthrfbkhe.jpg,00742941201fa.jpg,sunaenwuebvlpdmntju.jpg,00635941031fa.jpg,sunaddsaeicthrfbkhe.jpg,,,>,Place,,,,,1,,,,,,,x
7,7,Presentation,0,00990960627fa_sunbpflsdaxnddnwcqi.jpg,00092931230fa_sunaaheqzstzxuadglu.jpg,00990960627fa.jpg,sunbpflsdaxnddnwcqi.jpg,00092931230fa.jpg,sunaaheqzstzxuadglu.jpg,,,>,Place,,,,,1,,,,,,,o
8,7,Presentation,0,00133931230fa_sunaanlwnpqndclffxt.jpg,00760960620fa_sunaffstbkappprzxnv.jpg,00133931230fa.jpg,sunaanlwnpqndclffxt.jpg,00760960620fa.jpg,sunaffstbkappprzxnv.jpg,,,>,Place,,,,,1,,,,,,,o
9,7,Presentation,0,00750941201fa_sunaeuzwggvibufclwf.jpg,00681941121fa_sunadqmjrhfjyuzyvdd.jpg,00750941201fa.jpg,sunaeuzwggvibufclwf.jpg,00681941121fa.jpg,sunadqmjrhfjyuzyvdd.jpg,,,>,Place,,,,,1,,,,,,,o
10,7,Memory,0,,,,,,,sunafowswglhxcsufpo.jpg,,,,,,,,,,,,,,,
11,7,Memory,0,,,,,,,00481940519fa.jpg,,,,,,,,,,,,,,,
12,7,Memory,0,,,,,,,00063931230fa.jpg,,,,,,,,,,,,,,,
13,7,Memory,0,,,,,,,sunagtumacdlmciqamz.jpg,,,,,,,,,,,,,,,
14,7,Memory,0,,,,,,,sunajbwkywmsqkldfml.jpg,,,,,,,,,,,,,,,
15,7,Memory,0,,,,,,,00795941205fa.jpg,,,,,,,,,,,,,,,
16,7,Memory,0,,,,,,,00723941201fa.jpg,,,,,,,,,,,,,,,
17,7,Memory,0,,,,,,,sunaaelyvurpntclgau.jpg,,,,,,,,,,,,,,,
18,7,Memory,0,,,,,,,sunaedtgwjvvziytspa.jpg,,,,,,,,,,,,,,,
19,7,Memory,0,,,,,,,00221940128fa.jpg,,,,,,,,,,,,,,,
20,7,Memory,0,,,,,,,sunadpnqovzckyikrjo.jpg,,,,,,,,,,,,,,,
21,7,Memory,0,,,,,,,sunaanlwnpqndclffxt.jpg,,,,,,,,,,,,,,,
22,7,Memory,0,,,,,,,00082931230fa.jpg,,,,,,,,,,,,,,,
23,7,Memory,0,,,,,,,sunaguchqqnrtodtezq.jpg,,,,,,,,,,,,,,,
24,7,Memory,0,,,,,,,00119931230fb.jpg,,,,,,,,,,,,,,,
25,7,Memory,0,,,,,,,sunacmpqqfbsvlzinzl.jpg,,,,,,,,,,,,,,,
26,7,Memory,0,,,,,,,sunavxokzybtomhbmvm.jpg,,,,,,,,,,,,,,,
27,7,Memory,0,,,,,,,sunaafvitpexrpvumsa.jpg,,,,,,,,,,,,,,,
28,7,Memory,0,,,,,,,00866940307fa.jpg,,,,,,,,,,,,,,,
29,7,Memory,0,,,,,,,00681941121fa.jpg,,,,,,,,,,,,,,,
30,7,Memory,0,,,,,,,sunabxsuqbleluwczoy.jpg,,,,,,,,,,,,,,,
31,7,Memory,0,,,,,,,sunbvbrvgbpanfrawft.jpg,,,,,,,,,,,,,,,
32,7,Memory,0,,,,,,,sunadqmjrhfjyuzyvdd.jpg,,,,,,,,,,,,,,,
33,7,Memory,0,,,,,,,sunablfqiwfqomjarht.jpg,,,,,,,,,,,,,,,
34,7,Memory,0,,,,,,,00797960620fa.jpg,,,,,,,,,,,,,,,
35,7,Memory,0,,,,,,,00133931230fa.jpg,,,,,,,,,,,,,,,
36,7,Memory,0,,,,,,,00959960627fa.jpg,,,,,,,,,,,,,,,
37,7,Memory,0,,,,,,,sunabcfpwlpolnutyju.jpg,,,,,,,,,,,,,,,
38,7,Memory,0,,,,,,,00564940928fa.jpg,,,,,,,,,,,,,,,
39,7,Memory,0,,,,,,,00267940128fb.jpg,,,,,,,,,,,,,,,
40,7,Memory,0,,,,,,,00308940422fb.jpg,,,,,,,,,,,,,,,
41,7,Memory,0,,,,,,,00771941205fa.jpg,,,,,,,,,,,,,,,
42,7,Memory,0,,,,,,,sunabwfvcqqidycwypa.jpg,,,,,,,,,,,,,,,
43,7,Memory,0,,,,,,,00676941121fa.jpg,,,,,,,,,,,,,,,
44,7,Memory,0,,,,,,,00742941201fa.jpg,,,,,,,,,,,,,,,
45,7,Memory,0,,,,,,,00999960627fa.jpg,,,,,,,,,,,,,,,
46,7,Memory,0,,,,,,,sunaakvmbftkrgqhjun.jpg,,,,,,,,,,,,,,,
47,7,Memory,0,,,,,,,sunagufzbeteqdjxais.jpg,,,,,,,,,,,,,,,
48,7,Memory,0,,,,,,,00796941205fa.jpg,,,,,,,,,,,,,,,
49,7,Memory,0,,,,,,,sunaenwuebvlpdmntju.jpg,,,,,,,,,,,,,,,
50,7,Presentation,1,00839940307fa_sunaipyohrqlwngaqif.jpg,01207940128fa_sundbixjudsgeuuehrn.jpg,00839940307fa.jpg,sunaipyohrqlwngaqif.jpg,01207940128fa.jpg,sundbixjudsgeuuehrn.jpg,,,<,Place,,,,,1,,,,,,,o
51,7,Presentation,1,00532960627fa_sunaccdtpgenvcbcbcf.jpg,00891960530fa_sunalkiibhqpxfamlll.jpg,00532960627fa.jpg,sunaccdtpgenvcbcbcf.jpg,00891960530fa.jpg,sunalkiibhqpxfamlll.jpg,,,<,Place,,,,,1,,,,,,,o
52,7,Presentation,1,00871940307_sunajrujcsdxmfbssmc.jpg,00973960627fa_sunbbgtoeuzierkkajt.jpg,00871940307.jpg,sunajrujcsdxmfbssmc.jpg,00973960627fa.jpg,sunbbgtoeuzierkkajt.jpg,,,<,Place,,,,,1,,,,,,,o
53,7,Presentation,1,00908960530fa_sunanwjjyqqwzqrqagd.jpg,00847940307fa_sunaivdjruhkrfywfed.jpg,00908960530fa.jpg,sunanwjjyqqwzqrqagd.jpg,00847940307fa.jpg,sunaivdjruhkrfywfed.jpg,,,<,Place,,,,,1,,,,,,,x
54,7,Presentation,1,00559940519fa_sunacjkmnpawfzbyvae.jpg,00630940928fa_sunaczwgyukesaajxnx.jpg,00559940519fa.jpg,sunacjkmnpawfzbyvae.jpg,00630940928fa.jpg,sunaczwgyukesaajxnx.jpg,,,<,Place,,,,,1,,,,,,,x
55,7,Presentation,1,00925960627fa_sunapqwnqzxlsfvgsjm.jpg,00479940519fa_sunabxsbfwjccqxxzxq.jpg,00925960627fa.jpg,sunapqwnqzxlsfvgsjm.jpg,00479940519fa.jpg,sunabxsbfwjccqxxzxq.jpg,,,<,Place,,,,,1,,,,,,,x
56,7,Presentation,1,00598940928fa_sunacxeheuiigkcgquf.jpg,00191940128fb_sunaawsdjisukbbginm.jpg,00598940928fa.jpg,sunacxeheuiigkcgquf.jpg,00191940128fb.jpg,sunaawsdjisukbbginm.jpg,,,<,Place,,,,,1,,,,,,,o
57,7,Presentation,1,00705960530fa_sunaduslxfzlbxlllnz.jpg,00949960627fb_sunasnqkkyhilqkxiqm.jpg,00705960530fa.jpg,sunaduslxfzlbxlllnz.jpg,00949960627fb.jpg,sunasnqkkyhilqkxiqm.jpg,,,<,Place,,,,,1,,,,,,,o
58,7,Presentation,1,00874940307fa_sunajtrfunvzdfticna.jpg,00124931230fa_sunaalhlvzmjmitybdn.jpg,00874940307fa.jpg,sunajtrfunvzdfticna.jpg,00124931230fa.jpg,sunaalhlvzmjmitybdn.jpg,,,<,Place,,,,,1,,,,,,,o
59,7,Presentation,1,00070940307fa_sunaaeplwsfslcbtojr.jpg,00996960627fa_sunbpvgllfdejxcpjqp.jpg,00070940307fa.jpg,sunaaeplwsfslcbtojr.jpg,00996960627fa.jpg,sunbpvgllfdejxcpjqp.jpg,,,<,Place,,,,,0,,,,,,,o
60,7,Memory,1,,,,,,,00062931230fb.jpg,,,,,,,,,,,,,,,
61,7,Memory,1,,,,,,,sunabtrnbvpppgczjim.jpg,,,,,,,,,,,,,,,
62,7,Memory,1,,,,,,,00908960530fa.jpg,,,,,,,,,,,,,,,
63,7,Memory,1,,,,,,,sunaipyohrqlwngaqif.jpg,,,,,,,,,,,,,,,
64,7,Memory,1,,,,,,,00730960620fa.jpg,,,,,,,,,,,,,,,
65,7,Memory,1,,,,,,,sunaaelotvjgibjtjhs.jpg,,,,,,,,,,,,,,,
66,7,Memory,1,,,,,,,sunaaeplwsfslcbtojr.jpg,,,,,,,,,,,,,,,
67,7,Memory,1,,,,,,,00554940519fa.jpg,,,,,,,,,,,,,,,
68,7,Memory,1,,,,,,,01207940128fa.jpg,,,,,,,,,,,,,,,
69,7,Memory,1,,,,,,,00967960627fa.jpg,,,,,,,,,,,,,,,
70,7,Memory,1,,,,,,,00787960620fa.jpg,,,,,,,,,,,,,,,
71,7,Memory,1,,,,,,,00705960530fa.jpg,,,,,,,,,,,,,,,
72,7,Memory,1,,,,,,,sunbgklxeqjhdbyfhhy.jpg,,,,,,,,,,,,,,,
73,7,Memory,1,,,,,,,00985960627fa.jpg,,,,,,,,,,,,,,,
74,7,Memory,1,,,,,,,sunaduslxfzlbxlllnz.jpg,,,,,,,,,,,,,,,
75,7,Memory,1,,,,,,,00996960627fa.jpg,,,,,,,,,,,,,,,
76,7,Memory,1,,,,,,,sunbpvgllfdejxcpjqp.jpg,,,,,,,,,,,,,,,
77,7,Memory,1,,,,,,,sunacfdkbsrughwqwtt.jpg,,,,,,,,,,,,,,,
78,7,Memory,1,,,,,,,sunbwtlihsuptkrckid.jpg,,,,,,,,,,,,,,,
79,7,Memory,1,,,,,,,sunacjkmnpawfzbyvae.jpg,,,,,,,,,,,,,,,
80,7,Memory,1,,,,,,,sunagoufulkpsxrmklt.jpg,,,,,,,,,,,,,,,
81,7,Memory,1,,,,,,,00847940307fa.jpg,,,,,,,,,,,,,,,
82,7,Memory,1,,,,,,,sunagrmyoovzukhxmlo.jpg,,,,,,,,,,,,,,,
83,7,Memory,1,,,,,,,00559940519fa.jpg,,,,,,,,,,,,,,,
84,7,Memory,1,,,,,,,00070940307fa.jpg,,,,,,,,,,,,,,,
85,7,Memory,1,,,,,,,sunasnqkkyhilqkxiqm.jpg,,,,,,,,,,,,,,,
86,7,Memory,1,,,,,,,00630940928fa.jpg,,,,,,,,,,,,,,,
87,7,Memory,1,,,,,,,sundbixjudsgeuuehrn.jpg,,,,,,,,,,,,,,,
88,7,Memory,1,,,,,,,sunbaejotfklekvpxcz.jpg,,,,,,,,,,,,,,,
89,7,Memory,1,,,,,,,00482940519fa.jpg,,,,,,,,,,,,,,,
90,7,Memory,1,,,,,,,sunaczwgyukesaajxnx.jpg,,,,,,,,,,,,,,,
91,7,Memory,1,,,,,,,sunanwjjyqqwzqrqagd.jpg,,,,,,,,,,,,,,,
92,7,Memory,1,,,,,,,sunaivdjruhkrfywfed.jpg,,,,,,,,,,,,,,,
93,7,Memory,1,,,,,,,00791941205fa.jpg,,,,,,,,,,,,,,,
94,7,Memory,1,,,,,,,01004960627fa.jpg,,,,,,,,,,,,,,,
95,7,Memory,1,,,,,,,sunaekgzpfilgjxpeyq.jpg,,,,,,,,,,,,,,,
96,7,Memory,1,,,,,,,sunabyfxcxhdebvdyfd.jpg,,,,,,,,,,,,,,,
97,7,Memory,1,,,,,,,00839940307fa.jpg,,,,,,,,,,,,,,,
98,7,Memory,1,,,,,,,00305940422fa.jpg,,,,,,,,,,,,,,,
99,7,Memory,1,,,,,,,00949960627fb.jpg,,,,,,,,,,,,,,,
100,7,Presentation,2,00705941205fa_sunadtlxenqqxsyjvix.jpg,00725941201fa_sunaefgzwiramypjvtd.jpg,00705941205fa.jpg,sunadtlxenqqxsyjvix.jpg,00725941201fa.jpg,sunaefgzwiramypjvtd.jpg,,,<,Face,,,,,1,,,,,,,x
101,7,Presentation,2,00266940128fb_sunabkngeblodihjvbk.jpg,00720960620fa_sunaecpkgfewqqreqwe.jpg,00266940128fb.jpg,sunabkngeblodihjvbk.jpg,00720960620fa.jpg,sunaecpkgfewqqreqwe.jpg,,,<,Face,,,,,0,,,,,,,x
102,7,Presentation,2,00647941031fa_sunadflbrkckmepztql.jpg,00848940307fa_sunaivdylrawbmhryfp.jpg,00647941031fa.jpg,sunadflbrkckmepztql.jpg,00848940307fa.jpg,sunaivdylrawbmhryfp.jpg,,,<,Face,,,,,1,,,,,,,o
103,7,Presentation,2,00982960627fa_sunbesrwkdsffeogeqq.jpg,00937960627fa_sunaqsolmfydodnakub.jpg,00982960627fa.jpg,sunbesrwkdsffeogeqq.jpg,00937960627fa.jpg,sunaqsolmfydodnakub.jpg,,,<,Face,,,,,1,,,,,,,o
104,7,Presentation,2,01003960627fb_sunbwdrdvsweerwsdrj.jpg,00154931230fa_sunaauueuhhvklldjik.jpg,01003960627fb.jpg,sunbwdrdvsweerwsdrj.jpg,00154931230fa.jpg,sunaauueuhhvklldjik.jpg,,,<,Face,,,,,0,,,,,,,x
105,7,Presentation,2,00979960627fa_sunbdycacjfaujxitbw.jpg,00111931230fb_sunaakgekhjklxmvulj.jpg,00979960627fa.jpg,sunbdycacjfaujxitbw.jpg,00111931230fb.jpg,sunaakgekhjklxmvulj.jpg,,,<,Face,,,,,0,,,,,,,x
106,7,Presentation,2,00163931230fb_sunaavodbcpygkggnfp.jpg,00235940128fb_sunabclssnoeuigtawp.jpg,00163931230fb.jpg,sunaavodbcpygkggnfp.jpg,00235940128fb.jpg,sunabclssnoeuigtawp.jpg,,,<,Face,,,,,1,,,,,,,x
107,7,Presentation,2,00280940422fb_sunabohxbskznglnrhv.jpg,00108960530fa_sunaajtnvzzpsjdzres.jpg,00280940422fb.jpg,sunabohxbskznglnrhv.jpg,00108960530fa.jpg,sunaajtnvzzpsjdzres.jpg,,,<,Face,,,,,1,,,,,,,x
108,7,Presentation,2,00775941205fa_sunafvwfsmqkjrutjta.jpg,00700941121fa_sunadsgmtznewzyasnk.jpg,00775941205fa.jpg,sunafvwfsmqkjrutjta.jpg,00700941121fa.jpg,sunadsgmtznewzyasnk.jpg,,,<,Face,,,,,1,,,,,,,o
109,7,Presentation,2,00271940422fa_sunabmbnddafmywtjjj.jpg,00860940307fa_sunaizeyhvjzknwjudw.jpg,00271940422fa.jpg,sunabmbnddafmywtjjj.jpg,00860940307fa.jpg,sunaizeyhvjzknwjudw.jpg,,,<,Face,,,,,1,,,,,,,x
110,7,Memory,2,,,,,,,00775941205fa.jpg,,,,,,,,,,,,,,,
111,7,Memory,2,,,,,,,sunayaepykrqvenaqqy.jpg,,,,,,,,,,,,,,,
112,7,Memory,2,,,,,,,00784941205fb.jpg,,,,,,,,,,,,,,,
113,7,Memory,2,,,,,,,sunagpjzsbltchlwvou.jpg,,,,,,,,,,,,,,,
114,7,Memory,2,,,,,,,sunafvwfsmqkjrutjta.jpg,,,,,,,,,,,,,,,
115,7,Memory,2,,,,,,,00860940307fa.jpg,,,,,,,,,,,,,,,
116,7,Memory,2,,,,,,,00146960620fb.jpg,,,,,,,,,,,,,,,
117,7,Memory,2,,,,,,,sunadsgmtznewzyasnk.jpg,,,,,,,,,,,,,,,
118,7,Memory,2,,,,,,,sunadflbrkckmepztql.jpg,,,,,,,,,,,,,,,
119,7,Memory,2,,,,,,,01003960627fb.jpg,,,,,,,,,,,,,,,
120,7,Memory,2,,,,,,,00271940422fa.jpg,,,,,,,,,,,,,,,
121,7,Memory,2,,,,,,,sunaecpkgfewqqreqwe.jpg,,,,,,,,,,,,,,,
122,7,Memory,2,,,,,,,sunagjzcrjvmxzqzljx.jpg,,,,,,,,,,,,,,,
123,7,Memory,2,,,,,,,00913960530fa.jpg,,,,,,,,,,,,,,,
124,7,Memory,2,,,,,,,00235940128fb.jpg,,,,,,,,,,,,,,,
125,7,Memory,2,,,,,,,sunaaexqbtdswxrqjvz.jpg,,,,,,,,,,,,,,,
126,7,Memory,2,,,,,,,00768941205fa.jpg,,,,,,,,,,,,,,,
127,7,Memory,2,,,,,,,sunaooffzffbhcpirmm.jpg,,,,,,,,,,,,,,,
128,7,Memory,2,,,,,,,00149931230fa.jpg,,,,,,,,,,,,,,,
129,7,Memory,2,,,,,,,sunaatpeezlljqaxlhj.jpg,,,,,,,,,,,,,,,
130,7,Memory,2,,,,,,,00790941205fa.jpg,,,,,,,,,,,,,,,
131,7,Memory,2,,,,,,,sunaauglwmctnkxyird.jpg,,,,,,,,,,,,,,,
132,7,Memory,2,,,,,,,00725941201fa.jpg,,,,,,,,,,,,,,,
133,7,Memory,2,,,,,,,sunadtlxenqqxsyjvix.jpg,,,,,,,,,,,,,,,
134,7,Memory,2,,,,,,,00634940928fa.jpg,,,,,,,,,,,,,,,
135,7,Memory,2,,,,,,,sunabmbnddafmywtjjj.jpg,,,,,,,,,,,,,,,
136,7,Memory,2,,,,,,,00071941031fa.jpg,,,,,,,,,,,,,,,
137,7,Memory,2,,,,,,,sunaizeyhvjzknwjudw.jpg,,,,,,,,,,,,,,,
138,7,Memory,2,,,,,,,sunabclssnoeuigtawp.jpg,,,,,,,,,,,,,,,
139,7,Memory,2,,,,,,,sunadcphrizvfpljiqt.jpg,,,,,,,,,,,,,,,
140,7,Memory,2,,,,,,,00270940422fb.jpg,,,,,,,,,,,,,,,
141,7,Memory,2,,,,,,,sunaefgzwiramypjvtd.jpg,,,,,,,,,,,,,,,
142,7,Memory,2,,,,,,,00963960627fa.jpg,,,,,,,,,,,,,,,
143,7,Memory,2,,,,,,,00705941205fa.jpg,,,,,,,,,,,,,,,
144,7,Memory,2,,,,,,,sunabllobxadqcyttej.jpg,,,,,,,,,,,,,,,
145,7,Memory,2,,,,,,,00720960620fa.jpg,,,,,,,,,,,,,,,
146,7,Memory,2,,,,,,,sunafkmnlytenlsywia.jpg,,,,,,,,,,,,,,,
147,7,Memory,2,,,,,,,00647941031fa.jpg,,,,,,,,,,,,,,,
148,7,Memory,2,,,,,,,00700941121fa.jpg,,,,,,,,,,,,,,,
149,7,Memory,2,,,,,,,sunbwdrdvsweerwsdrj.jpg,,,,,,,,,,,,,,,
150,7,Presentation,3,00968960627fa_sunbagfpovqwbuexqdn.jpg,00562941031fa_sunacjnahdmqfnjfwqx.jpg,00968960627fa.jpg,sunbagfpovqwbuexqdn.jpg,00562941031fa.jpg,sunacjnahdmqfnjfwqx.jpg,,,>,Face,,,,,1,,,,,,,o
151,7,Presentation,3,01011960627fa_sundahdxwmcdluscvot.jpg,00071940128fa_sunaaexpnawiehinlpy.jpg,01011960627fa.jpg,sundahdxwmcdluscvot.jpg,00071940128fa.jpg,sunaaexpnawiehinlpy.jpg,,,>,Face,,,,,1,,,,,,,o
152,7,Presentation,3,00633940928fa_sunadbhmrgrrpyzglxs.jpg,00887960530_sunalcrtwiycqobgelp.jpg,00633940928fa.jpg,sunadbhmrgrrpyzglxs.jpg,00887960530.jpg,sunalcrtwiycqobgelp.jpg,,,>,Face,,,,,1,,,,,,,o
153,7,Presentation,3,00868960307fa_sunajjxttslobudoqbv.jpg,00589940928fa_sunacwggadqsfpovdjv.jpg,00868960307fa.jpg,sunajjxttslobudoqbv.jpg,00589940928fa.jpg,sunacwggadqsfpovdjv.jpg,,,>,Face,,,,,1,,,,,,,x
154,7,Presentation,3,00859940307fa_sunaiycurtqsfkvcaso.jpg,00947960627fa_sunasmmcxdddtmtazwx.jpg,00859940307fa.jpg,sunaiycurtqsfkvcaso.jpg,00947960627fa.jpg,sunasmmcxdddtmtazwx.jpg,,,>,Face,,,,,0,,,,,,,x
155,7,Presentation,3,00895960530fa_sunamczizlzavhzhpay.jpg,01002960627fb_sunbwaafjdebjzttuvq.jpg,00895960530fa.jpg,sunamczizlzavhzhpay.jpg,01002960627fb.jpg,sunbwaafjdebjzttuvq.jpg,,,>,Face,,,,,1,,,,,,,x
156,7,Presentation,3,00543940519fa_sunacepzfrmtkiqonpy.jpg,00763941205fa_sunafhmnhsdurlvddpw.jpg,00543940519fa.jpg,sunacepzfrmtkiqonpy.jpg,00763941205fa.jpg,sunafhmnhsdurlvddpw.jpg,,,>,Face,,,,,1,,,,,,,x
157,7,Presentation,3,00969960627fa_sunbaoizrfijvhpnnjn.jpg,00144931230fb_sunaathajvxrgptwhoj.jpg,00969960627fa.jpg,sunbaoizrfijvhpnnjn.jpg,00144931230fb.jpg,sunaathajvxrgptwhoj.jpg,,,>,Face,,,,,1,,,,,,,x
158,7,Presentation,3,00581940928fa_sunacvzhvcksnwqcqbw.jpg,00719960620fa_sunadzuvtmtmgupotmf.jpg,00581940928fa.jpg,sunacvzhvcksnwqcqbw.jpg,00719960620fa.jpg,sunadzuvtmtmgupotmf.jpg,,,>,Face,,,,,1,,,,,,,x
159,7,Presentation,3,00892960530fa_sunalntxqqadigcletd.jpg,00978960627fa_sunbddbivbptlrlauhy.jpg,00892960530fa.jpg,sunalntxqqadigcletd.jpg,00978960627fa.jpg,sunbddbivbptlrlauhy.jpg,,,>,Face,,,,,1,,,,,,,x
160,7,Memory,3,,,,,,,01011960627fa.jpg,,,,,,,,,,,,,,,
161,7,Memory,3,,,,,,,sunafhmnhsdurlvddpw.jpg,,,,,,,,,,,,,,,
162,7,Memory,3,,,,,,,sunbagfpovqwbuexqdn.jpg,,,,,,,,,,,,,,,
163,7,Memory,3,,,,,,,00968960627fa.jpg,,,,,,,,,,,,,,,
164,7,Memory,3,,,,,,,sunadbdqzigzwipuipr.jpg,,,,,,,,,,,,,,,
165,7,Memory,3,,,,,,,00859940307fa.jpg,,,,,,,,,,,,,,,
166,7,Memory,3,,,,,,,sunacwggadqsfpovdjv.jpg,,,,,,,,,,,,,,,
167,7,Memory,3,,,,,,,00838940307fa.jpg,,,,,,,,,,,,,,,
168,7,Memory,3,,,,,,,sunaathajvxrgptwhoj.jpg,,,,,,,,,,,,,,,
169,7,Memory,3,,,,,,,sunacacflqoyxhsqzhe.jpg,,,,,,,,,,,,,,,
170,7,Memory,3,,,,,,,00989960627fa.jpg,,,,,,,,,,,,,,,
171,7,Memory,3,,,,,,,00265940128fb.jpg,,,,,,,,,,,,,,,
172,7,Memory,3,,,,,,,00747941201fa.jpg,,,,,,,,,,,,,,,
173,7,Memory,3,,,,,,,00862940307fa.jpg,,,,,,,,,,,,,,,
174,7,Memory,3,,,,,,,sunabgfhvifeijihhjw.jpg,,,,,,,,,,,,,,,
175,7,Memory,3,,,,,,,sunabkmdplkdbvxriff.jpg,,,,,,,,,,,,,,,
176,7,Memory,3,,,,,,,sundahdxwmcdluscvot.jpg,,,,,,,,,,,,,,,
177,7,Memory,3,,,,,,,00887960530.jpg,,,,,,,,,,,,,,,
178,7,Memory,3,,,,,,,sunaiycurtqsfkvcaso.jpg,,,,,,,,,,,,,,,
179,7,Memory,3,,,,,,,00812941205fa.jpg,,,,,,,,,,,,,,,
180,7,Memory,3,,,,,,,00543940519fa.jpg,,,,,,,,,,,,,,,
181,7,Memory,3,,,,,,,00997960627fa.jpg,,,,,,,,,,,,,,,
182,7,Memory,3,,,,,,,sunacepzfrmtkiqonpy.jpg,,,,,,,,,,,,,,,
183,7,Memory,3,,,,,,,00631940928fa.jpg,,,,,,,,,,,,,,,
184,7,Memory,3,,,,,,,sunaiozxhxgtfrmoagh.jpg,,,,,,,,,,,,,,,
185,7,Memory,3,,,,,,,sunaeutbrtswvsozxyk.jpg,,,,,,,,,,,,,,,
186,7,Memory,3,,,,,,,00144931230fb.jpg,,,,,,,,,,,,,,,
187,7,Memory,3,,,,,,,00071940128fa.jpg,,,,,,,,,,,,,,,
188,7,Memory,3,,,,,,,00763941205fa.jpg,,,,,,,,,,,,,,,
189,7,Memory,3,,,,,,,sunbaoizrfijvhpnnjn.jpg,,,,,,,,,,,,,,,
190,7,Memory,3,,,,,,,sunalcrtwiycqobgelp.jpg,,,,,,,,,,,,,,,
191,7,Memory,3,,,,,,,00969960627fa.jpg,,,,,,,,,,,,,,,
192,7,Memory,3,,,,,,,00507940519fa.jpg,,,,,,,,,,,,,,,
193,7,Memory,3,,,,,,,sunaaexpnawiehinlpy.jpg,,,,,,,,,,,,,,,
194,7,Memory,3,,,,,,,sunbondbduabvijnmch.jpg,,,,,,,,,,,,,,,
195,7,Memory,3,,,,,,,sunaizgnnplsvajzhkc.jpg,,,,,,,,,,,,,,,
196,7,Memory,3,,,,,,,00589940928fa.jpg,,,,,,,,,,,,,,,
197,7,Memory,3,,,,,,,sunahgtbwgsmtqeodwh.jpg,,,,,,,,,,,,,,,
198,7,Memory,3,,,,,,,sunbtpilbhhbmhmeuzq.jpg,,,,,,,,,,,,,,,
199,7,Memory,3,,,,,,,00260940128fa.jpg,,,,,,,,,,,,,,,
200,7,Presentation,4,00960960627fa_sunawksfbacycuhbrsc.jpg,00129931230fb_sunaamsdyakblkfoydx.jpg,00960960627fa.jpg,sunawksfbacycuhbrsc.jpg,00129931230fb.jpg,sunaamsdyakblkfoydx.jpg,,,<,Face,,,,,1,,,,,,,x
201,7,Presentation,4,00208940128fa_sunaazzyhbvqjpmazjq.jpg,00889960530fa_sunaletopenvvozhpxc.jpg,00208940128fa.jpg,sunaazzyhbvqjpmazjq.jpg,00889960530fa.jpg,sunaletopenvvozhpxc.jpg,,,<,Face,,,,,1,,,,,,,x
202,7,Presentation,4,00876960620fa_sunajwqkfsykceonyig.jpg,00961960627fa_sunawotxrevnqvamsfp.jpg,00876960620fa.jpg,sunajwqkfsykceonyig.jpg,00961960627fa.jpg,sunawotxrevnqvamsfp.jpg,,,<,Face,,,,,1,,,,,,,o
203,7,Presentation,4,00933960627fa_sunapwjkcxdaeqehfql.jpg,00076931230fa_sunaafewhewbxmjiurz.jpg,00933960627fa.jpg,sunapwjkcxdaeqehfql.jpg,00076931230fa.jpg,sunaafewhewbxmjiurz.jpg,,,<,Face,,,,,1,,,,,,,o
204,7,Presentation,4,00662941121fa_sunadkazmlajmohnwfl.jpg,00296940422fa_sunabrwnslxalcohfre.jpg,00662941121fa.jpg,sunadkazmlajmohnwfl.jpg,00296940422fa.jpg,sunabrwnslxalcohfre.jpg,,,<,Face,,,,,1,,,,,,,o
205,7,Presentation,4,00955960627fb_sunauburywlkjszngcq.jpg,00938960627fa_sunaqyylsngywqzwfmx.jpg,00955960627fb.jpg,sunauburywlkjszngcq.jpg,00938960627fa.jpg,sunaqyylsngywqzwfmx.jpg,,,<,Face,,,,,1,,,,,,,x
206,7,Presentation,4,00878960530fa_sunakgbnzxmfohgehnu.jpg,00529940519fa_sunacbeefkxpymwevpk.jpg,00878960530fa.jpg,sunakgbnzxmfohgehnu.jpg,00529940519fa.jpg,sunacbeefkxpymwevpk.jpg,,,<,Face,,,,,1,,,,,,,x
207,7,Presentation,4,00766960620fa_sunafijbgncijwykrnl.jpg,00214940128fa_sunabbafjowbzcvbucc.jpg,00766960620fa.jpg,sunafijbgncijwykrnl.jpg,00214940128fa.jpg,sunabbafjowbzcvbucc.jpg,,,<,Face,,,,,1,,,,,,,o
208,7,Presentation,4,00894960620fa_sunalqmfgeadpqsyzpd.jpg,00288940422fa_sunabppokiyglaxpcha.jpg,00894960620fa.jpg,sunalqmfgeadpqsyzpd.jpg,00288940422fa.jpg,sunabppokiyglaxpcha.jpg,,,<,Face,,,,,1,,,,,,,x
209,7,Presentation,4,00772941201fa_sunafpfpiiujzoesnqg.jpg,00648941031fa_sunadfndyrtqqiasoig.jpg,00772941201fa.jpg,sunafpfpiiujzoesnqg.jpg,00648941031fa.jpg,sunadfndyrtqqiasoig.jpg,,,<,Face,,,,,1,,,,,,,x
210,7,Memory,4,,,,,,,00778941205fa.jpg,,,,,,,,,,,,,,,
211,7,Memory,4,,,,,,,sunagcthdfirrcawoic.jpg,,,,,,,,,,,,,,,
212,7,Memory,4,,,,,,,sunaemcowdozyphwknd.jpg,,,,,,,,,,,,,,,
213,7,Memory,4,,,,,,,00636941031fa.jpg,,,,,,,,,,,,,,,
214,7,Memory,4,,,,,,,00214940128fa.jpg,,,,,,,,,,,,,,,
215,7,Memory,4,,,,,,,sunbvzmgrdvaakxusbu.jpg,,,,,,,,,,,,,,,
216,7,Memory,4,,,,,,,00746941201fa.jpg,,,,,,,,,,,,,,,
217,7,Memory,4,,,,,,,sunabppokiyglaxpcha.jpg,,,,,,,,,,,,,,,
218,7,Memory,4,,,,,,,00288940422fa.jpg,,,,,,,,,,,,,,,
219,7,Memory,4,,,,,,,00807941205fa.jpg,,,,,,,,,,,,,,,
220,7,Memory,4,,,,,,,sunaivflshbyfrfzhqb.jpg,,,,,,,,,,,,,,,
221,7,Memory,4,,,,,,,sunabbafjowbzcvbucc.jpg,,,,,,,,,,,,,,,
222,7,Memory,4,,,,,,,00076931230fa.jpg,,,,,,,,,,,,,,,
223,7,Memory,4,,,,,,,sunaazzyhbvqjpmazjq.jpg,,,,,,,,,,,,,,,
224,7,Memory,4,,,,,,,sunagjeesomrwjsfqie.jpg,,,,,,,,,,,,,,,
225,7,Memory,4,,,,,,,sunaamsdyakblkfoydx.jpg,,,,,,,,,,,,,,,
226,7,Memory,4,,,,,,,sunauburywlkjszngcq.jpg,,,,,,,,,,,,,,,
227,7,Memory,4,,,,,,,sunafijbgncijwykrnl.jpg,,,,,,,,,,,,,,,
228,7,Memory,4,,,,,,,00208940128fa.jpg,,,,,,,,,,,,,,,
229,7,Memory,4,,,,,,,00081941031fa.jpg,,,,,,,,,,,,,,,
230,7,Memory,4,,,,,,,sunahawfngukizslzsd.jpg,,,,,,,,,,,,,,,
231,7,Memory,4,,,,,,,00955960627fb.jpg,,,,,,,,,,,,,,,
232,7,Memory,4,,,,,,,00662941121fa.jpg,,,,,,,,,,,,,,,
233,7,Memory,4,,,,,,,00851940307fa.jpg,,,,,,,,,,,,,,,
234,7,Memory,4,,,,,,,sunawotxrevnqvamsfp.jpg,,,,,,,,,,,,,,,
235,7,Memory,4,,,,,,,sunaloffvbvysigxent.jpg,,,,,,,,,,,,,,,
236,7,Memory,4,,,,,,,00129931230fb.jpg,,,,,,,,,,,,,,,
237,7,Memory,4,,,,,,,00878960530fa.jpg,,,,,,,,,,,,,,,
238,7,Memory,4,,,,,,,00893960530Fa.jpg,,,,,,,,,,,,,,,
239,7,Memory,4,,,,,,,sunaddtdkycxbqlpfqa.jpg,,,,,,,,,,,,,,,
240,7,Memory,4,,,,,,,00766960620fa.jpg,,,,,,,,,,,,,,,
241,7,Memory,4,,,,,,,00783941205fa.jpg,,,,,,,,,,,,,,,
242,7,Memory,4,,,,,,,00741941201fa.jpg,,,,,,,,,,,,,,,
243,7,Memory,4,,,,,,,01000960627fa.jpg,,,,,,,,,,,,,,,
244,7,Memory,4,,,,,,,sunaetydippjxikifsb.jpg,,,,,,,,,,,,,,,
245,7,Memory,4,,,,,,,00961960627fa.jpg,,,,,,,,,,,,,,,
246,7,Memory,4,,,,,,,sunakgbnzxmfohgehnu.jpg,,,,,,,,,,,,,,,
247,7,Memory,4,,,,,,,sunaafewhewbxmjiurz.jpg,,,,,,,,,,,,,,,
248,7,Memory,4,,,,,,,sunaaftlyfudyzuhqzf.jpg,,,,,,,,,,,,,,,
249,7,Memory,4,,,,,,,sunadkazmlajmohnwfl.jpg,,,,,,,,,,,,,,,
250,7,Presentation,5,00882960530fa_sunaknlirqjqiwbbeeg.jpg,00109931230fa_sunaajuzribjrizdshh.jpg,00882960530fa.jpg,sunaknlirqjqiwbbeeg.jpg,00109931230fa.jpg,sunaajuzribjrizdshh.jpg,,,<,Place,,,,,1,,,,,,,o
251,7,Presentation,5,00505960627fa_sunabzuqsrgcsonqlkz.jpg,00540940519fa_sunacdnquypmsshhsbk.jpg,00505960627fa.jpg,sunabzuqsrgcsonqlkz.jpg,00540940519fa.jpg,sunacdnquypmsshhsbk.jpg,,,<,Place,,,,,1,,,,,,,o
252,7,Presentation,5,00743941201fa_sunaeoghzrjarigmwua.jpg,00694941121fa_sunadrmfzmstgdjdcod.jpg,00743941201fa.jpg,sunaeoghzrjarigmwua.jpg,00694941121fa.jpg,sunadrmfzmstgdjdcod.jpg,,,<,Place,,,,,1,,,,,,,o
253,7,Presentation,5,00122931230fa_sunaakxjfbrrequcjmx.jpg,00864940307fa_sunajawzbrlrwafowen.jpg,00122931230fa.jpg,sunaakxjfbrrequcjmx.jpg,00864940307fa.jpg,sunajawzbrlrwafowen.jpg,,,<,Place,,,,,1,,,,,,,x
254,7,Presentation,5,00906960530fa_sunantryfbloeaomfta.jpg,00263940128fb_sunabjuovqvyfuzvqwt.jpg,00906960530fa.jpg,sunantryfbloeaomfta.jpg,00263940128fb.jpg,sunabjuovqvyfuzvqwt.jpg,,,<,Place,,,,,1,,,,,,,o
255,7,Presentation,5,00576941031fa_sunacvjlsylseoghjup.jpg,00836940307fa_sunainqelldeebvxtcz.jpg,00576941031fa.jpg,sunacvjlsylseoghjup.jpg,00836940307fa.jpg,sunainqelldeebvxtcz.jpg,,,<,Place,,,,,1,,,,,,,x
256,7,Presentation,5,00630941031fa_sunadakkdovnuzlycvp.jpg,00986960627fa_sunbgzjryivyczuvkvm.jpg,00630941031fa.jpg,sunadakkdovnuzlycvp.jpg,00986960627fa.jpg,sunbgzjryivyczuvkvm.jpg,,,<,Place,,,,,1,,,,,,,o
257,7,Presentation,5,00650941031fa_sunadikxpvqeabxrvvc.jpg,00914960620fa_sunaozisvwfbmlkfhzv.jpg,00650941031fa.jpg,sunadikxpvqeabxrvvc.jpg,00914960620fa.jpg,sunaozisvwfbmlkfhzv.jpg,,,<,Place,,,,,1,,,,,,,o
258,7,Presentation,5,00819940307fa_sunahqldjibofgsfdgb.jpg,00670941121fa_sunadochqcucscehsgk.jpg,00819940307fa.jpg,sunahqldjibofgsfdgb.jpg,00670941121fa.jpg,sunadochqcucscehsgk.jpg,,,<,Place,,,,,1,,,,,,,o
259,7,Presentation,5,00568940928fa_sunacsdhbbsybcyxnel.jpg,00077931230fb_sunaafgqutfaishsxyu.jpg,00568940928fa.jpg,sunacsdhbbsybcyxnel.jpg,00077931230fb.jpg,sunaafgqutfaishsxyu.jpg,,,<,Place,,,,,1,,,,,,,x
260,7,Memory,5,,,,,,,00882960530fa.jpg,,,,,,,,,,,,,,,
261,7,Memory,5,,,,,,,sunaatpkocdkocwxpkb.jpg,,,,,,,,,,,,,,,
262,7,Memory,5,,,,,,,00819940307fa.jpg,,,,,,,,,,,,,,,
263,7,Memory,5,,,,,,,00906960530fa.jpg,,,,,,,,,,,,,,,
264,7,Memory,5,,,,,,,00782941205fa.jpg,,,,,,,,,,,,,,,
265,7,Memory,5,,,,,,,sunahqldjibofgsfdgb.jpg,,,,,,,,,,,,,,,
266,7,Memory,5,,,,,,,00670941121fa.jpg,,,,,,,,,,,,,,,
267,7,Memory,5,,,,,,,00060931230fa.jpg,,,,,,,,,,,,,,,
268,7,Memory,5,,,,,,,00773960620fa.jpg,,,,,,,,,,,,,,,
269,7,Memory,5,,,,,,,sunaaehaikpckyjsety.jpg,,,,,,,,,,,,,,,
270,7,Memory,5,,,,,,,sunafvsxtzaizojicxx.jpg,,,,,,,,,,,,,,,
271,7,Memory,5,,,,,,,sunacvjlsylseoghjup.jpg,,,,,,,,,,,,,,,
272,7,Memory,5,,,,,,,sunabanoxjtqxamkucc.jpg,,,,,,,,,,,,,,,
273,7,Memory,5,,,,,,,sunadochqcucscehsgk.jpg,,,,,,,,,,,,,,,
274,7,Memory,5,,,,,,,sunadnjjzohjhbohlwq.jpg,,,,,,,,,,,,,,,
275,7,Memory,5,,,,,,,00774941201fa.jpg,,,,,,,,,,,,,,,
276,7,Memory,5,,,,,,,00576941031fa.jpg,,,,,,,,,,,,,,,
277,7,Memory,5,,,,,,,sunabzuqsrgcsonqlkz.jpg,,,,,,,,,,,,,,,
278,7,Memory,5,,,,,,,00836940307fa.jpg,,,,,,,,,,,,,,,
279,7,Memory,5,,,,,,,00986960627fa.jpg,,,,,,,,,,,,,,,
280,7,Memory,5,,,,,,,sunaglqunwuycxydmyu.jpg,,,,,,,,,,,,,,,
281,7,Memory,5,,,,,,,sunaptrqvaooxfvktvw.jpg,,,,,,,,,,,,,,,
282,7,Memory,5,,,,,,,00663941121fa.jpg,,,,,,,,,,,,,,,
283,7,Memory,5,,,,,,,sunbgzjryivyczuvkvm.jpg,,,,,,,,,,,,,,,
284,7,Memory,5,,,,,,,00931960627fa.jpg,,,,,,,,,,,,,,,
285,7,Memory,5,,,,,,,00147931230fb.jpg,,,,,,,,,,,,,,,
286,7,Memory,5,,,,,,,00263940128fb.jpg,,,,,,,,,,,,,,,
287,7,Memory,5,,,,,,,sunadrmfzmstgdjdcod.jpg,,,,,,,,,,,,,,,
288,7,Memory,5,,,,,,,sunabeyhmxodahoieyk.jpg,,,,,,,,,,,,,,,
289,7,Memory,5,,,,,,,sunantryfbloeaomfta.jpg,,,,,,,,,,,,,,,
290,7,Memory,5,,,,,,,00210940128fb.jpg,,,,,,,,,,,,,,,
291,7,Memory,5,,,,,,,00245940128fa.jpg,,,,,,,,,,,,,,,
292,7,Memory,5,,,,,,,sunainqelldeebvxtcz.jpg,,,,,,,,,,,,,,,
293,7,Memory,5,,,,,,,sunaknlirqjqiwbbeeg.jpg,,,,,,,,,,,,,,,
294,7,Memory,5,,,,,,,sunabjuovqvyfuzvqwt.jpg,,,,,,,,,,,,,,,
295,7,Memory,5,,,,,,,00785941205fa.jpg,,,,,,,,,,,,,,,
296,7,Memory,5,,,,,,,sunagfvluwixdsozaql.jpg,,,,,,,,,,,,,,,
297,7,Memory,5,,,,,,,00505960627fa.jpg,,,,,,,,,,,,,,,
298,7,Memory,5,,,,,,,00694941121fa.jpg,,,,,,,,,,,,,,,
299,7,Memory,5,,,,,,,sunafvtpfczkzopbgue.jpg,,,,,,,,,,,,,,,
300,7,Presentation,6,00854940307fa_sunaiwduelojtwaqeyh.jpg,00910960530fa_sunaofikylqtxphvdem.jpg,00854940307fa.jpg,sunaiwduelojtwaqeyh.jpg,00910960530fa.jpg,sunaofikylqtxphvdem.jpg,,,>,Face,,,,,1,,,,,,,x
301,7,Presentation,6,00239940128fa_sunabctlikybqabezjv.jpg,00953960627fa_sunatstrpjxhvtbaczf.jpg,00239940128fa.jpg,sunabctlikybqabezjv.jpg,00953960627fa.jpg,sunatstrpjxhvtbaczf.jpg,,,>,Face,,,,,1,,,,,,,o
302,7,Presentation,6,00909960530_sunaobtizabegtwfwul.jpg,00827940307fa_sunahtfxgsrmkiulnwk.jpg,00909960530.jpg,sunaobtizabegtwfwul.jpg,00827940307fa.jpg,sunahtfxgsrmkiulnwk.jpg,,,>,Face,,,,,1,,,,,,,o
303,7,Presentation,6,00804960530fa_sunagwswhkvnsmuszlz.jpg,00828940307fa_sunahuynahneraqftyz.jpg,00804960530fa.jpg,sunagwswhkvnsmuszlz.jpg,00828940307fa.jpg,sunahuynahneraqftyz.jpg,,,>,Face,,,,,1,,,,,,,o
304,7,Presentation,6,00620940928fa_sunacypmnujalygkunp.jpg,00153931230fa_sunaauhozyxzeeqstxi.jpg,00620940928fa.jpg,sunacypmnujalygkunp.jpg,00153931230fa.jpg,sunaauhozyxzeeqstxi.jpg,,,>,Face,,,,,1,,,,,,,o
305,7,Presentation,6,00498960627fa_sunabzjxlmkwnwzimua.jpg,00857940307fa_sunaiwfobocrruqznsv.jpg,00498960627fa.jpg,sunabzjxlmkwnwzimua.jpg,00857940307fa.jpg,sunaiwfobocrruqznsv.jpg,,,>,Face,,,,,0,,,,,,,x
306,7,Presentation,6,00116931230fa_sunaakqepfoeqomfgxf.jpg,00292940422fb_sunabrjdpmoedcdjbpo.jpg,00116931230fa.jpg,sunaakqepfoeqomfgxf.jpg,00292940422fb.jpg,sunabrjdpmoedcdjbpo.jpg,,,>,Face,,,,,1,,,,,,,x
307,7,Presentation,6,00138931230fa_sunaapfaivxqoynnwwp.jpg,00809960620fa_sunahbvlpavurqoxdeq.jpg,00138931230fa.jpg,sunaapfaivxqoynnwwp.jpg,00809960620fa.jpg,sunahbvlpavurqoxdeq.jpg,,,>,Face,,,,,1,,,,,,,o
308,7,Presentation,6,00841940307fa_sunaisiwfgppimtnmxl.jpg,00966960627fa_sunaygrtwrwfezqjizr.jpg,00841940307fa.jpg,sunaisiwfgppimtnmxl.jpg,00966960627fa.jpg,sunaygrtwrwfezqjizr.jpg,,,>,Face,,,,,1,,,,,,,o
309,7,Presentation,6,00810941205fa_sunahctntqrunhdxhtb.jpg,00302940422fa_sunabtlfmiwtljmoues.jpg,00810941205fa.jpg,sunahctntqrunhdxhtb.jpg,00302940422fa.jpg,sunabtlfmiwtljmoues.jpg,,,>,Face,,,,,0,,,,,,,o
310,7,Memory,6,,,,,,,00138931230fa.jpg,,,,,,,,,,,,,,,
311,7,Memory,6,,,,,,,sunacerqowiaeoqkmsq.jpg,,,,,,,,,,,,,,,
312,7,Memory,6,,,,,,,00130931230fa.jpg,,,,,,,,,,,,,,,
313,7,Memory,6,,,,,,,sunabzjxlmkwnwzimua.jpg,,,,,,,,,,,,,,,
314,7,Memory,6,,,,,,,00953960627fa.jpg,,,,,,,,,,,,,,,
315,7,Memory,6,,,,,,,sunabcuurugvxwparpk.jpg,,,,,,,,,,,,,,,
316,7,Memory,6,,,,,,,sunaisiwfgppimtnmxl.jpg,,,,,,,,,,,,,,,
317,7,Memory,6,,,,,,,00804960530fa.jpg,,,,,,,,,,,,,,,
318,7,Memory,6,,,,,,,sunatstrpjxhvtbaczf.jpg,,,,,,,,,,,,,,,
319,7,Memory,6,,,,,,,sunaauhozyxzeeqstxi.jpg,,,,,,,,,,,,,,,
320,7,Memory,6,,,,,,,00816941205fa.jpg,,,,,,,,,,,,,,,
321,7,Memory,6,,,,,,,00548940519fa.jpg,,,,,,,,,,,,,,,
322,7,Memory,6,,,,,,,sunaamvxnvouicstkjb.jpg,,,,,,,,,,,,,,,
323,7,Memory,6,,,,,,,00302940422fa.jpg,,,,,,,,,,,,,,,
324,7,Memory,6,,,,,,,00498960627fa.jpg,,,,,,,,,,,,,,,
325,7,Memory,6,,,,,,,sunaajpqmulidejvjsr.jpg,,,,,,,,,,,,,,,
326,7,Memory,6,,,,,,,00857940307fa.jpg,,,,,,,,,,,,,,,
327,7,Memory,6,,,,,,,00158931230fb.jpg,,,,,,,,,,,,,,,
328,7,Memory,6,,,,,,,sunajxpkuhbizeveguy.jpg,,,,,,,,,,,,,,,
329,7,Memory,6,,,,,,,sunahtfxgsrmkiulnwk.jpg,,,,,,,,,,,,,,,
330,7,Memory,6,,,,,,,sunaiwfobocrruqznsv.jpg,,,,,,,,,,,,,,,
331,7,Memory,6,,,,,,,00854940307fa.jpg,,,,,,,,,,,,,,,
332,7,Memory,6,,,,,,,00827940307fa.jpg,,,,,,,,,,,,,,,
333,7,Memory,6,,,,,,,sunagwswhkvnsmuszlz.jpg,,,,,,,,,,,,,,,
334,7,Memory,6,,,,,,,sunaapfaivxqoynnwwp.jpg,,,,,,,,,,,,,,,
335,7,Memory,6,,,,,,,00970960627fa.jpg,,,,,,,,,,,,,,,
336,7,Memory,6,,,,,,,00242940128fa.jpg,,,,,,,,,,,,,,,
337,7,Memory,6,,,,,,,sunahmhrncocyhsjpxk.jpg,,,,,,,,,,,,,,,
338,7,Memory,6,,,,,,,sunbasypfgzjtomktmu.jpg,,,,,,,,,,,,,,,
339,7,Memory,6,,,,,,,sunabmytpyhsgigllxu.jpg,,,,,,,,,,,,,,,
340,7,Memory,6,,,,,,,00153931230fa.jpg,,,,,,,,,,,,,,,
341,7,Memory,6,,,,,,,00098931230fa.jpg,,,,,,,,,,,,,,,
342,7,Memory,6,,,,,,,sunagsiwrmuixqgdimb.jpg,,,,,,,,,,,,,,,
343,7,Memory,6,,,,,,,00841940307fa.jpg,,,,,,,,,,,,,,,
344,7,Memory,6,,,,,,,sunaiwduelojtwaqeyh.jpg,,,,,,,,,,,,,,,
345,7,Memory,6,,,,,,,00276940422fa.jpg,,,,,,,,,,,,,,,
346,7,Memory,6,,,,,,,00877960530fa.jpg,,,,,,,,,,,,,,,
347,7,Memory,6,,,,,,,00792941205fa.jpg,,,,,,,,,,,,,,,
348,7,Memory,6,,,,,,,sunabtlfmiwtljmoues.jpg,,,,,,,,,,,,,,,
349,7,Memory,6,,,,,,,sunaavchcbptaerhcfy.jpg,,,,,,,,,,,,,,,
350,7,Presentation,7,00125931230fa_sunaalltyvjhbzhkmvg.jpg,00911960530fa_sunaooaqzputrowwbsw.jpg,00125931230fa.jpg,sunaalltyvjhbzhkmvg.jpg,00911960530fa.jpg,sunaooaqzputrowwbsw.jpg,,,>,Place,,,,,1,,,,,,,o
351,7,Presentation,7,00753941201fa_sunafcofuuzebuadceo.jpg,01007960627fa_sunbxarcshsnqsefemx.jpg,00753941201fa.jpg,sunafcofuuzebuadceo.jpg,01007960627fa.jpg,sunbxarcshsnqsefemx.jpg,,,>,Place,,,,,1,,,,,,,o
352,7,Presentation,7,00131931230fb_sunaangbuylfvckqqoo.jpg,00218940128fa_sunabbwggenhfbftyvi.jpg,00131931230fb.jpg,sunaangbuylfvckqqoo.jpg,00218940128fa.jpg,sunabbwggenhfbftyvi.jpg,,,>,Place,,,,,1,,,,,,,x
353,7,Presentation,7,00102931230fa_sunaajspcoepticvplv.jpg,00227940128fa_sunabckqabszusgcykj.jpg,00102931230fa.jpg,sunaajspcoepticvplv.jpg,00227940128fa.jpg,sunabckqabszusgcykj.jpg,,,>,Place,,,,,1,,,,,,,x
354,7,Presentation,7,00264940128fb_sunabjzyxcjnmztdonj.jpg,00822940307fa_sunahqrxievfeusiqlt.jpg,00264940128fb.jpg,sunabjzyxcjnmztdonj.jpg,00822940307fa.jpg,sunahqrxievfeusiqlt.jpg,,,>,Place,,,,,1,,,,,,,o
355,7,Presentation,7,00142931230fb_sunaapxkpvrhpjplsok.jpg,00885960530fa_sunakwlvxjpddialozd.jpg,00142931230fb.jpg,sunaapxkpvrhpjplsok.jpg,00885960530fa.jpg,sunakwlvxjpddialozd.jpg,,,>,Place,,,,,1,,,,,,,x
356,7,Presentation,7,00194940128fb_sunaayehfdqcyxggsej.jpg,00829940307fa_sunahwgbqkqcrwprgvh.jpg,00194940128fb.jpg,sunaayehfdqcyxggsej.jpg,00829940307fa.jpg,sunahwgbqkqcrwprgvh.jpg,,,>,Place,,,,,1,,,,,,,x
357,7,Presentation,7,00065931230fb_sunaaemixhfquhnxxlm.jpg,00972960627fa_sunbbfqwjpdxniyhies.jpg,00065931230fb.jpg,sunaaemixhfquhnxxlm.jpg,00972960627fa.jpg,sunbbfqwjpdxniyhies.jpg,,,>,Place,,,,,1,,,,,,,x
358,7,Presentation,7,00598941031fa_sunacxtcahkymosigud.jpg,00761960627fa_sunafgdqbclkwfocdhg.jpg,00598941031fa.jpg,sunacxtcahkymosigud.jpg,00761960627fa.jpg,sunafgdqbclkwfocdhg.jpg,,,>,Place,,,,,1,,,,,,,x
359,7,Presentation,7,00983960627fa_sunbfyvfqiimvdaxlqn.jpg,00905960530fa_sunanmoqeyprjjjfxjt.jpg,00983960627fa.jpg,sunbfyvfqiimvdaxlqn.jpg,00905960530fa.jpg,sunanmoqeyprjjjfxjt.jpg,,,>,Place,,,,,0,,,,,,,o
360,7,Memory,7,,,,,,,00905960530fa.jpg,,,,,,,,,,,,,,,
361,7,Memory,7,,,,,,,sunapqkyghktgtosuuk.jpg,,,,,,,,,,,,,,,
362,7,Memory,7,,,,,,,00102931230fa.jpg,,,,,,,,,,,,,,,
363,7,Memory,7,,,,,,,sunbmaiocftdtvnzgap.jpg,,,,,,,,,,,,,,,
364,7,Memory,7,,,,,,,sunaajspcoepticvplv.jpg,,,,,,,,,,,,,,,
365,7,Memory,7,,,,,,,00965960627fa.jpg,,,,,,,,,,,,,,,
366,7,Memory,7,,,,,,,sunbfyvfqiimvdaxlqn.jpg,,,,,,,,,,,,,,,
367,7,Memory,7,,,,,,,00922960627fa.jpg,,,,,,,,,,,,,,,
368,7,Memory,7,,,,,,,00316940422fa.jpg,,,,,,,,,,,,,,,
369,7,Memory,7,,,,,,,00125931230fa.jpg,,,,,,,,,,,,,,,
370,7,Memory,7,,,,,,,00131931230fb.jpg,,,,,,,,,,,,,,,
371,7,Memory,7,,,,,,,00142931230fb.jpg,,,,,,,,,,,,,,,
372,7,Memory,7,,,,,,,00983960627fa.jpg,,,,,,,,,,,,,,,
373,7,Memory,7,,,,,,,00869940307fa.jpg,,,,,,,,,,,,,,,
374,7,Memory,7,,,,,,,00073931230fa.jpg,,,,,,,,,,,,,,,
375,7,Memory,7,,,,,,,sunaapxkpvrhpjplsok.jpg,,,,,,,,,,,,,,,
376,7,Memory,7,,,,,,,sunajoveqhiprwqgoco.jpg,,,,,,,,,,,,,,,
377,7,Memory,7,,,,,,,00061931230fb.jpg,,,,,,,,,,,,,,,
378,7,Memory,7,,,,,,,sunaafbmtoniaasysgu.jpg,,,,,,,,,,,,,,,
379,7,Memory,7,,,,,,,00911960530fa.jpg,,,,,,,,,,,,,,,
380,7,Memory,7,,,,,,,sunabxmguapjekttvwm.jpg,,,,,,,,,,,,,,,
381,7,Memory,7,,,,,,,sunapqkpqdfvxlbqwyo.jpg,,,,,,,,,,,,,,,
382,7,Memory,7,,,,,,,00761960627fa.jpg,,,,,,,,,,,,,,,
383,7,Memory,7,,,,,,,00972960627fa.jpg,,,,,,,,,,,,,,,
384,7,Memory,7,,,,,,,sunaaekxzjzrfgtkwjf.jpg,,,,,,,,,,,,,,,
385,7,Memory,7,,,,,,,sunaangbuylfvckqqoo.jpg,,,,,,,,,,,,,,,
386,7,Memory,7,,,,,,,00943960627fa.jpg,,,,,,,,,,,,,,,
387,7,Memory,7,,,,,,,sunbbegcweqnetpdlrh.jpg,,,,,,,,,,,,,,,
388,7,Memory,7,,,,,,,sunanmoqeyprjjjfxjt.jpg,,,,,,,,,,,,,,,
389,7,Memory,7,,,,,,,sunaydywdmvlfddbxbk.jpg,,,,,,,,,,,,,,,
390,7,Memory,7,,,,,,,sunaooaqzputrowwbsw.jpg,,,,,,,,,,,,,,,
391,7,Memory,7,,,,,,,sunafgdqbclkwfocdhg.jpg,,,,,,,,,,,,,,,
392,7,Memory,7,,,,,,,sunbbfqwjpdxniyhies.jpg,,,,,,,,,,,,,,,
393,7,Memory,7,,,,,,,00988960627fa.jpg,,,,,,,,,,,,,,,
394,7,Memory,7,,,,,,,00971960627fa.jpg,,,,,,,,,,,,,,,
395,7,Memory,7,,,,,,,00921960627fa.jpg,,,,,,,,,,,,,,,
396,7,Memory,7,,,,,,,sunarpsxqkduedrrzyi.jpg,,,,,,,,,,,,,,,
397,7,Memory,7,,,,,,,00822940307fa.jpg,,,,,,,,,,,,,,,
398,7,Memory,7,,,,,,,sunaalltyvjhbzhkmvg.jpg,,,,,,,,,,,,,,,
399,7,Memory,7,,,,,,,sunahqrxievfeusiqlt.jpg,,,,,,,,,,,,,,,
