,Subject,Trial Type,Run,Cued Composite,Uncued Composite,Cued Face,Cued Place,Uncued Face,Uncued Place,Memory Image,Category,Cued Side,Cued Category,Attention Response Time (s),Familiarity Reaction Time (s),Familiarity Rating,Attention Level,Cue Validity,Post Invalid Cue,Pre Invalid Cue,Attention Button,Rating History,Stimulus Onset,Stimulus End,Attention Probe
0,4,Presentation,0,00061931230fb_sunaaekxzjzrfgtkwjf.jpg,00116931230fa_sunaakqepfoeqomfgxf.jpg,00061931230fb.jpg,sunaaekxzjzrfgtkwjf.jpg,00116931230fa.jpg,sunaakqepfoeqomfgxf.jpg,,,>,Place,,,,,1,,,,,,,x
1,4,Presentation,0,00227940128fa_sunabckqabszusgcykj.jpg,00198940128fb_sunaazezcsunmhttzxz.jpg,00227940128fa.jpg,sunabckqabszusgcykj.jpg,00198940128fb.jpg,sunaazezcsunmhttzxz.jpg,,,>,Place,,,,,1,,,,,,,o
2,4,Presentation,0,00785941205fa_sunaglqunwuycxydmyu.jpg,00633940928fa_sunadbhmrgrrpyzglxs.jpg,00785941205fa.jpg,sunaglqunwuycxydmyu.jpg,00633940928fa.jpg,sunadbhmrgrrpyzglxs.jpg,,,>,Place,,,,,1,,,,,,,x
3,4,Presentation,0,00906960530fa_sunantryfbloeaomfta.jpg,00771941205fa_sunafowswglhxcsufpo.jpg,00906960530fa.jpg,sunantryfbloeaomfta.jpg,00771941205fa.jpg,sunafowswglhxcsufpo.jpg,,,>,Place,,,,,1,,,,,,,o
4,4,Presentation,0,00955960627fb_sunauburywlkjszngcq.jpg,00939960627fa_sunarceibpcyacbmfga.jpg,00955960627fb.jpg,sunauburywlkjszngcq.jpg,00939960627fa.jpg,sunarceibpcyacbmfga.jpg,,,>,Place,,,,,1,,,,,,,x
5,4,Presentation,0,01007960627fa_sunbxarcshsnqsefemx.jpg,00753941201fa_sunafcofuuzebuadceo.jpg,01007960627fa.jpg,sunbxarcshsnqsefemx.jpg,00753941201fa.jpg,sunafcofuuzebuadceo.jpg,,,>,Place,,,,,1,,,,,,,o
6,4,Presentation,0,00805941205fa_sunagwzdbtlixdhgolm.jpg,00482940519fa_sunabyfxcxhdebvdyfd.jpg,00805941205fa.jpg,sunagwzdbtlixdhgolm.jpg,00482940519fa.jpg,sunabyfxcxhdebvdyfd.jpg,,,>,Place,,,,,1,,,,,,,x
7,4,Presentation,0,00902960530fa_sunanaacmmosxrfwmvl.jpg,00787941205fa_sunagmwxxwymwojbvgi.jpg,00902960530fa.jpg,sunanaacmmosxrfwmvl.jpg,00787941205fa.jpg,sunagmwxxwymwojbvgi.jpg,,,>,Place,,,,,1,,,,,,,x
8,4,Presentation,0,00799941205fa_sunagutjvdvnhxejerz.jpg,00768941205fa_sunafkmnlytenlsywia.jpg,00799941205fa.jpg,sunagutjvdvnhxejerz.jpg,00768941205fa.jpg,sunafkmnlytenlsywia.jpg,,,>,Place,,,,,1,,,,,,,o
9,4,Presentation,0,00976960627fa_sunbbhqyyzmsxhsbjmp.jpg,00316940422fa_sunabxmguapjekttvwm.jpg,00976960627fa.jpg,sunbbhqyyzmsxhsbjmp.jpg,00316940422fa.jpg,sunabxmguapjekttvwm.jpg,,,>,Place,,,,,1,,,,,,,o
10,4,Memory,0,,,,,,,sunafkmnlytenlsywia.jpg,,,,,,,,,,,,,,,
11,4,Memory,0,,,,,,,00676941121fa.jpg,,,,,,,,,,,,,,,
12,4,Memory,0,,,,,,,00785941205fa.jpg,,,,,,,,,,,,,,,
13,4,Memory,0,,,,,,,sunabyfxcxhdebvdyfd.jpg,,,,,,,,,,,,,,,
14,4,Memory,0,,,,,,,00316940422fa.jpg,,,,,,,,,,,,,,,
15,4,Memory,0,,,,,,,00142931230fb.jpg,,,,,,,,,,,,,,,
16,4,Memory,0,,,,,,,sunaalcrrdbjgdztbiz.jpg,,,,,,,,,,,,,,,
17,4,Memory,0,,,,,,,sunagufzbeteqdjxais.jpg,,,,,,,,,,,,,,,
18,4,Memory,0,,,,,,,00482940519fa.jpg,,,,,,,,,,,,,,,
19,4,Memory,0,,,,,,,00227940128fa.jpg,,,,,,,,,,,,,,,
20,4,Memory,0,,,,,,,01007960627fa.jpg,,,,,,,,,,,,,,,
21,4,Memory,0,,,,,,,sunahawfngukizslzsd.jpg,,,,,,,,,,,,,,,
22,4,Memory,0,,,,,,,sunauburywlkjszngcq.jpg,,,,,,,,,,,,,,,
23,4,Memory,0,,,,,,,sunafijbgncijwykrnl.jpg,,,,,,,,,,,,,,,
24,4,Memory,0,,,,,,,sunaaekxzjzrfgtkwjf.jpg,,,,,,,,,,,,,,,
25,4,Memory,0,,,,,,,00116931230fa.jpg,,,,,,,,,,,,,,,
26,4,Memory,0,,,,,,,00719941201fa.jpg,,,,,,,,,,,,,,,
27,4,Memory,0,,,,,,,sunaijsqpvodplbwxkf.jpg,,,,,,,,,,,,,,,
28,4,Memory,0,,,,,,,sunabckqabszusgcykj.jpg,,,,,,,,,,,,,,,
29,4,Memory,0,,,,,,,sunabxmguapjekttvwm.jpg,,,,,,,,,,,,,,,
30,4,Memory,0,,,,,,,00807941205fa.jpg,,,,,,,,,,,,,,,
31,4,Memory,0,,,,,,,sunbwaafjdebjzttuvq.jpg,,,,,,,,,,,,,,,
32,4,Memory,0,,,,,,,00746941201fa.jpg,,,,,,,,,,,,,,,
33,4,Memory,0,,,,,,,00123931230fb.jpg,,,,,,,,,,,,,,,
34,4,Memory,0,,,,,,,00753941201fa.jpg,,,,,,,,,,,,,,,
35,4,Memory,0,,,,,,,00061931230fb.jpg,,,,,,,,,,,,,,,
36,4,Memory,0,,,,,,,sunadvithllcgmfxsrn.jpg,,,,,,,,,,,,,,,
37,4,Memory,0,,,,,,,00768941205fa.jpg,,,,,,,,,,,,,,,
38,4,Memory,0,,,,,,,sunaetydippjxikifsb.jpg,,,,,,,,,,,,,,,
39,4,Memory,0,,,,,,,00766960620fa.jpg,,,,,,,,,,,,,,,
40,4,Memory,0,,,,,,,00835940307fa.jpg,,,,,,,,,,,,,,,
41,4,Memory,0,,,,,,,sunaapxkpvrhpjplsok.jpg,,,,,,,,,,,,,,,
42,4,Memory,0,,,,,,,sunaakqepfoeqomfgxf.jpg,,,,,,,,,,,,,,,
43,4,Memory,0,,,,,,,01002960627fb.jpg,,,,,,,,,,,,,,,
44,4,Memory,0,,,,,,,00797960620fa.jpg,,,,,,,,,,,,,,,
45,4,Memory,0,,,,,,,00955960627fb.jpg,,,,,,,,,,,,,,,
46,4,Memory,0,,,,,,,sunbxarcshsnqsefemx.jpg,,,,,,,,,,,,,,,
47,4,Memory,0,,,,,,,sunadpnqovzckyikrjo.jpg,,,,,,,,,,,,,,,
48,4,Memory,0,,,,,,,sunafcofuuzebuadceo.jpg,,,,,,,,,,,,,,,
49,4,Memory,0,,,,,,,sunaglqunwuycxydmyu.jpg,,,,,,,,,,,,,,,
50,4,Presentation,1,00790941205fa_sunagpjzsbltchlwvou.jpg,00264940128fb_sunabjzyxcjnmztdonj.jpg,00790941205fa.jpg,sunagpjzsbltchlwvou.jpg,00264940128fb.jpg,sunabjzyxcjnmztdonj.jpg,,,<,Place,,,,,1,,,,,,,o
51,4,Presentation,1,01011960627fa_sundahdxwmcdluscvot.jpg,00958960627fa_sunavspxmxubqaeidjt.jpg,01011960627fa.jpg,sundahdxwmcdluscvot.jpg,00958960627fa.jpg,sunavspxmxubqaeidjt.jpg,,,<,Place,,,,,1,,,,,,,x
52,4,Presentation,1,00836940307fa_sunainqelldeebvxtcz.jpg,00089931230fa_sunaagcpoejbuzyvddd.jpg,00836940307fa.jpg,sunainqelldeebvxtcz.jpg,00089931230fa.jpg,sunaagcpoejbuzyvddd.jpg,,,<,Place,,,,,1,,,,,,,o
53,4,Presentation,1,00112931230fa_sunaakjaacuzulqckgl.jpg,00267940128fb_sunablfqiwfqomjarht.jpg,00112931230fa.jpg,sunaakjaacuzulqckgl.jpg,00267940128fb.jpg,sunablfqiwfqomjarht.jpg,,,<,Place,,,,,0,,,,,,,o
54,4,Presentation,1,00772941201fa_sunafpfpiiujzoesnqg.jpg,00288940422fa_sunabppokiyglaxpcha.jpg,00772941201fa.jpg,sunafpfpiiujzoesnqg.jpg,00288940422fa.jpg,sunabppokiyglaxpcha.jpg,,,<,Place,,,,,1,,,,,,,o
55,4,Presentation,1,00885960530fa_sunakwlvxjpddialozd.jpg,00877960530fa_sunajxpkuhbizeveguy.jpg,00885960530fa.jpg,sunakwlvxjpddialozd.jpg,00877960530fa.jpg,sunajxpkuhbizeveguy.jpg,,,<,Place,,,,,0,,,,,,,o
56,4,Presentation,1,00921960627fa_sunapqkpqdfvxlbqwyo.jpg,00977960627fa_sunbbxkanhzjgbwyxqs.jpg,00921960627fa.jpg,sunapqkpqdfvxlbqwyo.jpg,00977960627fa.jpg,sunbbxkanhzjgbwyxqs.jpg,,,<,Place,,,,,1,,,,,,,x
57,4,Presentation,1,00796941205fa_sunaguchqqnrtodtezq.jpg,00979960627fa_sunbdycacjfaujxitbw.jpg,00796941205fa.jpg,sunaguchqqnrtodtezq.jpg,00979960627fa.jpg,sunbdycacjfaujxitbw.jpg,,,<,Place,,,,,1,,,,,,,o
58,4,Presentation,1,00630941031fa_sunadakkdovnuzlycvp.jpg,00132931230fb_sunaanjcbzdvtvblsdy.jpg,00630941031fa.jpg,sunadakkdovnuzlycvp.jpg,00132931230fb.jpg,sunaanjcbzdvtvblsdy.jpg,,,<,Place,,,,,1,,,,,,,x
59,4,Presentation,1,00779941205fa_sunagdzlvkqtpnfxfcg.jpg,00670941121fa_sunadochqcucscehsgk.jpg,00779941205fa.jpg,sunagdzlvkqtpnfxfcg.jpg,00670941121fa.jpg,sunadochqcucscehsgk.jpg,,,<,Place,,,,,1,,,,,,,x
60,4,Memory,1,,,,,,,00630941031fa.jpg,,,,,,,,,,,,,,,
61,4,Memory,1,,,,,,,sunagdzlvkqtpnfxfcg.jpg,,,,,,,,,,,,,,,
62,4,Memory,1,,,,,,,sunbdycacjfaujxitbw.jpg,,,,,,,,,,,,,,,
63,4,Memory,1,,,,,,,sunapqkpqdfvxlbqwyo.jpg,,,,,,,,,,,,,,,
64,4,Memory,1,,,,,,,sunaddsaeicthrfbkhe.jpg,,,,,,,,,,,,,,,
65,4,Memory,1,,,,,,,sunapqwnqzxlsfvgsjm.jpg,,,,,,,,,,,,,,,
66,4,Memory,1,,,,,,,00313940422fa.jpg,,,,,,,,,,,,,,,
67,4,Memory,1,,,,,,,sunainqelldeebvxtcz.jpg,,,,,,,,,,,,,,,
68,4,Memory,1,,,,,,,00979960627fa.jpg,,,,,,,,,,,,,,,
69,4,Memory,1,,,,,,,sunaguchqqnrtodtezq.jpg,,,,,,,,,,,,,,,
70,4,Memory,1,,,,,,,sunadakkdovnuzlycvp.jpg,,,,,,,,,,,,,,,
71,4,Memory,1,,,,,,,sunavspxmxubqaeidjt.jpg,,,,,,,,,,,,,,,
72,4,Memory,1,,,,,,,00958960627fa.jpg,,,,,,,,,,,,,,,
73,4,Memory,1,,,,,,,sunaenwuebvlpdmntju.jpg,,,,,,,,,,,,,,,
74,4,Memory,1,,,,,,,00777941205fa.jpg,,,,,,,,,,,,,,,
75,4,Memory,1,,,,,,,sunagcinxkccdtrjmlv.jpg,,,,,,,,,,,,,,,
76,4,Memory,1,,,,,,,00977960627fa.jpg,,,,,,,,,,,,,,,
77,4,Memory,1,,,,,,,00779941205fa.jpg,,,,,,,,,,,,,,,
78,4,Memory,1,,,,,,,00742941201fa.jpg,,,,,,,,,,,,,,,
79,4,Memory,1,,,,,,,00836940307fa.jpg,,,,,,,,,,,,,,,
80,4,Memory,1,,,,,,,00921960627fa.jpg,,,,,,,,,,,,,,,
81,4,Memory,1,,,,,,,00296940422fa.jpg,,,,,,,,,,,,,,,
82,4,Memory,1,,,,,,,sunbbxkanhzjgbwyxqs.jpg,,,,,,,,,,,,,,,
83,4,Memory,1,,,,,,,sunaayehfdqcyxggsej.jpg,,,,,,,,,,,,,,,
84,4,Memory,1,,,,,,,sunanainkqdvktzoxyl.jpg,,,,,,,,,,,,,,,
85,4,Memory,1,,,,,,,00796941205fa.jpg,,,,,,,,,,,,,,,
86,4,Memory,1,,,,,,,00877960530fa.jpg,,,,,,,,,,,,,,,
87,4,Memory,1,,,,,,,00571940928fa.jpg,,,,,,,,,,,,,,,
88,4,Memory,1,,,,,,,00905960530fa.jpg,,,,,,,,,,,,,,,
89,4,Memory,1,,,,,,,sunajxpkuhbizeveguy.jpg,,,,,,,,,,,,,,,
90,4,Memory,1,,,,,,,sunabwjvmoaddlyxfjr.jpg,,,,,,,,,,,,,,,
91,4,Memory,1,,,,,,,00194940128fb.jpg,,,,,,,,,,,,,,,
92,4,Memory,1,,,,,,,00903960620fa.jpg,,,,,,,,,,,,,,,
93,4,Memory,1,,,,,,,sunadochqcucscehsgk.jpg,,,,,,,,,,,,,,,
94,4,Memory,1,,,,,,,sunabrwnslxalcohfre.jpg,,,,,,,,,,,,,,,
95,4,Memory,1,,,,,,,00670941121fa.jpg,,,,,,,,,,,,,,,
96,4,Memory,1,,,,,,,00925960627fa.jpg,,,,,,,,,,,,,,,
97,4,Memory,1,,,,,,,sunacuatpqpqhyjhjqk.jpg,,,,,,,,,,,,,,,
98,4,Memory,1,,,,,,,sunanmoqeyprjjjfxjt.jpg,,,,,,,,,,,,,,,
99,4,Memory,1,,,,,,,00635941031fa.jpg,,,,,,,,,,,,,,,
100,4,Presentation,2,00211940128fa_sunabasphceswhwwqvv.jpg,00819940307fa_sunahqldjibofgsfdgb.jpg,00211940128fa.jpg,sunabasphceswhwwqvv.jpg,00819940307fa.jpg,sunahqldjibofgsfdgb.jpg,,,>,Face,,,,,0,,,,,,,o
101,4,Presentation,2,00548940519fa_sunacerqowiaeoqkmsq.jpg,00965960627fa_sunaydywdmvlfddbxbk.jpg,00548940519fa.jpg,sunacerqowiaeoqkmsq.jpg,00965960627fa.jpg,sunaydywdmvlfddbxbk.jpg,,,>,Face,,,,,1,,,,,,,o
102,4,Presentation,2,00559940519fa_sunacjkmnpawfzbyvae.jpg,00265940128fb_sunabkmdplkdbvxriff.jpg,00559940519fa.jpg,sunacjkmnpawfzbyvae.jpg,00265940128fb.jpg,sunabkmdplkdbvxriff.jpg,,,>,Face,,,,,1,,,,,,,x
103,4,Presentation,2,00931960627fa_sunaptrqvaooxfvktvw.jpg,00854940307fa_sunaiwduelojtwaqeyh.jpg,00931960627fa.jpg,sunaptrqvaooxfvktvw.jpg,00854940307fa.jpg,sunaiwduelojtwaqeyh.jpg,,,>,Face,,,,,1,,,,,,,x
104,4,Presentation,2,00294940422fb_sunabrlndkruqokhury.jpg,00909960530_sunaobtizabegtwfwul.jpg,00294940422fb.jpg,sunabrlndkruqokhury.jpg,00909960530.jpg,sunaobtizabegtwfwul.jpg,,,>,Face,,,,,1,,,,,,,o
105,4,Presentation,2,00127931230fa_sunaampvucecsfbdafn.jpg,00818940307fa_sunahpblecxtmuzkmxb.jpg,00127931230fa.jpg,sunaampvucecsfbdafn.jpg,00818940307fa.jpg,sunahpblecxtmuzkmxb.jpg,,,>,Face,,,,,1,,,,,,,x
106,4,Presentation,2,00266940128fb_sunabkngeblodihjvbk.jpg,00953960627fa_sunatstrpjxhvtbaczf.jpg,00266940128fb.jpg,sunabkngeblodihjvbk.jpg,00953960627fa.jpg,sunatstrpjxhvtbaczf.jpg,,,>,Face,,,,,1,,,,,,,x
107,4,Presentation,2,00959960627fa_sunavxokzybtomhbmvm.jpg,00847940307fa_sunaivdjruhkrfywfed.jpg,00959960627fa.jpg,sunavxokzybtomhbmvm.jpg,00847940307fa.jpg,sunaivdjruhkrfywfed.jpg,,,>,Face,,,,,1,,,,,,,x
108,4,Presentation,2,00982960627fa_sunbesrwkdsffeogeqq.jpg,00221940128fa_sunabcfpwlpolnutyju.jpg,00982960627fa.jpg,sunbesrwkdsffeogeqq.jpg,00221940128fa.jpg,sunabcfpwlpolnutyju.jpg,,,>,Face,,,,,1,,,,,,,x
109,4,Presentation,2,00568940928fa_sunacsdhbbsybcyxnel.jpg,00986960627fa_sunbgzjryivyczuvkvm.jpg,00568940928fa.jpg,sunacsdhbbsybcyxnel.jpg,00986960627fa.jpg,sunbgzjryivyczuvkvm.jpg,,,>,Face,,,,,1,,,,,,,x
110,4,Memory,2,,,,,,,00636941031fa.jpg,,,,,,,,,,,,,,,
111,4,Memory,2,,,,,,,sunaampvucecsfbdafn.jpg,,,,,,,,,,,,,,,
112,4,Memory,2,,,,,,,sunabjuovqvyfuzvqwt.jpg,,,,,,,,,,,,,,,
113,4,Memory,2,,,,,,,00959960627fa.jpg,,,,,,,,,,,,,,,
114,4,Memory,2,,,,,,,sunaizeyhvjzknwjudw.jpg,,,,,,,,,,,,,,,
115,4,Memory,2,,,,,,,00829940307fa.jpg,,,,,,,,,,,,,,,
116,4,Memory,2,,,,,,,00909960530.jpg,,,,,,,,,,,,,,,
117,4,Memory,2,,,,,,,sunaddtdkycxbqlpfqa.jpg,,,,,,,,,,,,,,,
118,4,Memory,2,,,,,,,sunacvjlsylseoghjup.jpg,,,,,,,,,,,,,,,
119,4,Memory,2,,,,,,,sunavxokzybtomhbmvm.jpg,,,,,,,,,,,,,,,
120,4,Memory,2,,,,,,,sunbpflsdaxnddnwcqi.jpg,,,,,,,,,,,,,,,
121,4,Memory,2,,,,,,,00209940128fb.jpg,,,,,,,,,,,,,,,
122,4,Memory,2,,,,,,,00568940928fa.jpg,,,,,,,,,,,,,,,
123,4,Memory,2,,,,,,,00263940128fb.jpg,,,,,,,,,,,,,,,
124,4,Memory,2,,,,,,,00265940128fb.jpg,,,,,,,,,,,,,,,
125,4,Memory,2,,,,,,,sunabkmdplkdbvxriff.jpg,,,,,,,,,,,,,,,
126,4,Memory,2,,,,,,,00630940928fa.jpg,,,,,,,,,,,,,,,
127,4,Memory,2,,,,,,,00965960627fa.jpg,,,,,,,,,,,,,,,
128,4,Memory,2,,,,,,,sunabaergayifsgacxt.jpg,,,,,,,,,,,,,,,
129,4,Memory,2,,,,,,,sunaptrqvaooxfvktvw.jpg,,,,,,,,,,,,,,,
130,4,Memory,2,,,,,,,sunahwgbqkqcrwprgvh.jpg,,,,,,,,,,,,,,,
131,4,Memory,2,,,,,,,sunaiwduelojtwaqeyh.jpg,,,,,,,,,,,,,,,
132,4,Memory,2,,,,,,,00576941031fa.jpg,,,,,,,,,,,,,,,
133,4,Memory,2,,,,,,,00109931230fa.jpg,,,,,,,,,,,,,,,
134,4,Memory,2,,,,,,,00294940422fb.jpg,,,,,,,,,,,,,,,
135,4,Memory,2,,,,,,,00990960627fa.jpg,,,,,,,,,,,,,,,
136,4,Memory,2,,,,,,,sunaajuzribjrizdshh.jpg,,,,,,,,,,,,,,,
137,4,Memory,2,,,,,,,sunaydywdmvlfddbxbk.jpg,,,,,,,,,,,,,,,
138,4,Memory,2,,,,,,,00221940128fa.jpg,,,,,,,,,,,,,,,
139,4,Memory,2,,,,,,,00854940307fa.jpg,,,,,,,,,,,,,,,
140,4,Memory,2,,,,,,,00931960627fa.jpg,,,,,,,,,,,,,,,
141,4,Memory,2,,,,,,,sunacsdhbbsybcyxnel.jpg,,,,,,,,,,,,,,,
142,4,Memory,2,,,,,,,00860940307fa.jpg,,,,,,,,,,,,,,,
143,4,Memory,2,,,,,,,00127931230fa.jpg,,,,,,,,,,,,,,,
144,4,Memory,2,,,,,,,sunaczwgyukesaajxnx.jpg,,,,,,,,,,,,,,,
145,4,Memory,2,,,,,,,sunaobtizabegtwfwul.jpg,,,,,,,,,,,,,,,
146,4,Memory,2,,,,,,,sunabrlndkruqokhury.jpg,,,,,,,,,,,,,,,
147,4,Memory,2,,,,,,,sunabcfpwlpolnutyju.jpg,,,,,,,,,,,,,,,
148,4,Memory,2,,,,,,,sunaqgjuuwvdcyiccjt.jpg,,,,,,,,,,,,,,,
149,4,Memory,2,,,,,,,00936960627fa.jpg,,,,,,,,,,,,,,,
150,4,Presentation,3,00557940519fa_sunachtuarilwyqnvjx.jpg,00730960620fa_sunaekgzpfilgjxpeyq.jpg,00557940519fa.jpg,sunachtuarilwyqnvjx.jpg,00730960620fa.jpg,sunaekgzpfilgjxpeyq.jpg,,,<,Face,,,,,1,,,,,,,o
151,4,Presentation,3,00834940307fa_sunaibnpvhkdpdnzcnz.jpg,00985960627fa_sunbgklxeqjhdbyfhhy.jpg,00834940307fa.jpg,sunaibnpvhkdpdnzcnz.jpg,00985960627fa.jpg,sunbgklxeqjhdbyfhhy.jpg,,,<,Face,,,,,1,,,,,,,o
152,4,Presentation,3,00966960627fa_sunaygrtwrwfezqjizr.jpg,00073931230fa_sunaafbmtoniaasysgu.jpg,00966960627fa.jpg,sunaygrtwrwfezqjizr.jpg,00073931230fa.jpg,sunaafbmtoniaasysgu.jpg,,,<,Face,,,,,1,,,,,,,o
153,4,Presentation,3,00097931230fa_sunaajayojuslbbnneg.jpg,00857940307fa_sunaiwfobocrruqznsv.jpg,00097931230fa.jpg,sunaajayojuslbbnneg.jpg,00857940307fa.jpg,sunaiwfobocrruqznsv.jpg,,,<,Face,,,,,1,,,,,,,x
154,4,Presentation,3,00949960627fb_sunasnqkkyhilqkxiqm.jpg,00762941201fa_sunafgzgbisbopcyslr.jpg,00949960627fb.jpg,sunasnqkkyhilqkxiqm.jpg,00762941201fa.jpg,sunafgzgbisbopcyslr.jpg,,,<,Face,,,,,1,,,,,,,x
155,4,Presentation,3,00858940307fa_sunaixpqndlwhwjtjek.jpg,00747941201fa_sunaeutbrtswvsozxyk.jpg,00858940307fa.jpg,sunaixpqndlwhwjtjek.jpg,00747941201fa.jpg,sunaeutbrtswvsozxyk.jpg,,,<,Face,,,,,1,,,,,,,x
156,4,Presentation,3,00800941205fb_sunagvjurcwdbixvnyi.jpg,00662941121fa_sunadkazmlajmohnwfl.jpg,00800941205fb.jpg,sunagvjurcwdbixvnyi.jpg,00662941121fa.jpg,sunadkazmlajmohnwfl.jpg,,,<,Face,,,,,1,,,,,,,o
157,4,Presentation,3,00540940519fa_sunacdnquypmsshhsbk.jpg,00564941031fa_sunacsaovnjezqwbykf.jpg,00540940519fa.jpg,sunacdnquypmsshhsbk.jpg,00564941031fa.jpg,sunacsaovnjezqwbykf.jpg,,,<,Face,,,,,1,,,,,,,x
158,4,Presentation,3,00898960530fa_sunamkmeblgteyggink.jpg,00705960530fa_sunaduslxfzlbxlllnz.jpg,00898960530fa.jpg,sunamkmeblgteyggink.jpg,00705960530fa.jpg,sunaduslxfzlbxlllnz.jpg,,,<,Face,,,,,1,,,,,,,x
159,4,Presentation,3,00193940928fa_sunaaxjpzcnxligjtjq.jpg,00801941205fa_sunagvprlbprarvgdvj.jpg,00193940928fa.jpg,sunaaxjpzcnxligjtjq.jpg,00801941205fa.jpg,sunagvprlbprarvgdvj.jpg,,,<,Face,,,,,0,,,,,,,x
160,4,Memory,3,,,,,,,sunamkmeblgteyggink.jpg,,,,,,,,,,,,,,,
161,4,Memory,3,,,,,,,sunabbafjowbzcvbucc.jpg,,,,,,,,,,,,,,,
162,4,Memory,3,,,,,,,00214940128fa.jpg,,,,,,,,,,,,,,,
163,4,Memory,3,,,,,,,00776941205fa.jpg,,,,,,,,,,,,,,,
164,4,Memory,3,,,,,,,sunafxokyavhgptyfye.jpg,,,,,,,,,,,,,,,
165,4,Memory,3,,,,,,,sunaeutbrtswvsozxyk.jpg,,,,,,,,,,,,,,,
166,4,Memory,3,,,,,,,00750941201fa.jpg,,,,,,,,,,,,,,,
167,4,Memory,3,,,,,,,sunaaemixhfquhnxxlm.jpg,,,,,,,,,,,,,,,
168,4,Memory,3,,,,,,,00705960530fa.jpg,,,,,,,,,,,,,,,
169,4,Memory,3,,,,,,,00065931230fb.jpg,,,,,,,,,,,,,,,
170,4,Memory,3,,,,,,,sunaaelotvjgibjtjhs.jpg,,,,,,,,,,,,,,,
171,4,Memory,3,,,,,,,00898960530fa.jpg,,,,,,,,,,,,,,,
172,4,Memory,3,,,,,,,sunaajayojuslbbnneg.jpg,,,,,,,,,,,,,,,
173,4,Memory,3,,,,,,,sunamlotskmmsjeogby.jpg,,,,,,,,,,,,,,,
174,4,Memory,3,,,,,,,sunaahwnmtqsrhocysw.jpg,,,,,,,,,,,,,,,
175,4,Memory,3,,,,,,,sunaduslxfzlbxlllnz.jpg,,,,,,,,,,,,,,,
176,4,Memory,3,,,,,,,00747941201fa.jpg,,,,,,,,,,,,,,,
177,4,Memory,3,,,,,,,sunaiwfobocrruqznsv.jpg,,,,,,,,,,,,,,,
178,4,Memory,3,,,,,,,00834940307fa.jpg,,,,,,,,,,,,,,,
179,4,Memory,3,,,,,,,sunagvprlbprarvgdvj.jpg,,,,,,,,,,,,,,,
180,4,Memory,3,,,,,,,00574940928fa.jpg,,,,,,,,,,,,,,,
181,4,Memory,3,,,,,,,00801941205fa.jpg,,,,,,,,,,,,,,,
182,4,Memory,3,,,,,,,sunacvbrcejzwmcgnoq.jpg,,,,,,,,,,,,,,,
183,4,Memory,3,,,,,,,00498960627fa.jpg,,,,,,,,,,,,,,,
184,4,Memory,3,,,,,,,00557940519fa.jpg,,,,,,,,,,,,,,,
185,4,Memory,3,,,,,,,sunachtuarilwyqnvjx.jpg,,,,,,,,,,,,,,,
186,4,Memory,3,,,,,,,00971960627fa.jpg,,,,,,,,,,,,,,,
187,4,Memory,3,,,,,,,00857940307fa.jpg,,,,,,,,,,,,,,,
188,4,Memory,3,,,,,,,00858940307fa.jpg,,,,,,,,,,,,,,,
189,4,Memory,3,,,,,,,sunaibnpvhkdpdnzcnz.jpg,,,,,,,,,,,,,,,
190,4,Memory,3,,,,,,,sunaixpqndlwhwjtjek.jpg,,,,,,,,,,,,,,,
191,4,Memory,3,,,,,,,00662941121fa.jpg,,,,,,,,,,,,,,,
192,4,Memory,3,,,,,,,sunabzjxlmkwnwzimua.jpg,,,,,,,,,,,,,,,
193,4,Memory,3,,,,,,,sunaeuzwggvibufclwf.jpg,,,,,,,,,,,,,,,
194,4,Memory,3,,,,,,,00097931230fa.jpg,,,,,,,,,,,,,,,
195,4,Memory,3,,,,,,,sunadkazmlajmohnwfl.jpg,,,,,,,,,,,,,,,
196,4,Memory,3,,,,,,,00062931230fb.jpg,,,,,,,,,,,,,,,
197,4,Memory,3,,,,,,,00900960530fa.jpg,,,,,,,,,,,,,,,
198,4,Memory,3,,,,,,,sunbbegcweqnetpdlrh.jpg,,,,,,,,,,,,,,,
199,4,Memory,3,,,,,,,00093931230fa.jpg,,,,,,,,,,,,,,,
200,4,Presentation,4,00314940422fa_sunabwmcbaxwioksdgw.jpg,00743941201fa_sunaeoghzrjarigmwua.jpg,00314940422fa.jpg,sunabwmcbaxwioksdgw.jpg,00743941201fa.jpg,sunaeoghzrjarigmwua.jpg,,,>,Place,,,,,1,,,,,,,o
201,4,Presentation,4,00950960627fa_sunasrjlmglmjzbmqxb.jpg,00884960530fa_sunakodkcslgqhqlgwl.jpg,00950960627fa.jpg,sunasrjlmglmjzbmqxb.jpg,00884960530fa.jpg,sunakodkcslgqhqlgwl.jpg,,,>,Place,,,,,1,,,,,,,x
202,4,Presentation,4,00146960620fb_sunaatpeezlljqaxlhj.jpg,00589940928fa_sunacwggadqsfpovdjv.jpg,00146960620fb.jpg,sunaatpeezlljqaxlhj.jpg,00589940928fa.jpg,sunacwggadqsfpovdjv.jpg,,,>,Place,,,,,1,,,,,,,x
203,4,Presentation,4,01003960627fb_sunbwdrdvsweerwsdrj.jpg,00245940128fa_sunabeyhmxodahoieyk.jpg,01003960627fb.jpg,sunbwdrdvsweerwsdrj.jpg,00245940128fa.jpg,sunabeyhmxodahoieyk.jpg,,,>,Place,,,,,0,,,,,,,x
204,4,Presentation,4,00648941031fa_sunadfndyrtqqiasoig.jpg,00090931230fa_sunaahedjlmtqekgyvj.jpg,00648941031fa.jpg,sunadfndyrtqqiasoig.jpg,00090931230fa.jpg,sunaahedjlmtqekgyvj.jpg,,,>,Place,,,,,1,,,,,,,o
205,4,Presentation,4,00791941205fa_sunagrmyoovzukhxmlo.jpg,00926960627Fa_sunapqwoeotxshkukbh.jpg,00791941205fa.jpg,sunagrmyoovzukhxmlo.jpg,00926960627Fa.jpg,sunapqwoeotxshkukbh.jpg,,,>,Place,,,,,1,,,,,,,o
206,4,Presentation,4,00889960530fa_sunaletopenvvozhpxc.jpg,00942960627fa_sunarfdklgdnjgeqfjg.jpg,00889960530fa.jpg,sunaletopenvvozhpxc.jpg,00942960627fa.jpg,sunarfdklgdnjgeqfjg.jpg,,,>,Place,,,,,1,,,,,,,o
207,4,Presentation,4,00773960620fa_sunafvsxtzaizojicxx.jpg,00129931230fb_sunaamsdyakblkfoydx.jpg,00773960620fa.jpg,sunafvsxtzaizojicxx.jpg,00129931230fb.jpg,sunaamsdyakblkfoydx.jpg,,,>,Place,,,,,1,,,,,,,x
208,4,Presentation,4,00787960620fa_sunagoufulkpsxrmklt.jpg,01004960627fa_sunbwtlihsuptkrckid.jpg,00787960620fa.jpg,sunagoufulkpsxrmklt.jpg,01004960627fa.jpg,sunbwtlihsuptkrckid.jpg,,,>,Place,,,,,1,,,,,,,o
209,4,Presentation,4,00754941201fa_sunaffgsyyvoqdlkmnk.jpg,00663941121fa_sunadnjjzohjhbohlwq.jpg,00754941201fa.jpg,sunaffgsyyvoqdlkmnk.jpg,00663941121fa.jpg,sunadnjjzohjhbohlwq.jpg,,,>,Place,,,,,1,,,,,,,o
210,4,Memory,4,,,,,,,sunaeoghzrjarigmwua.jpg,,,,,,,,,,,,,,,
211,4,Memory,4,,,,,,,00942960627fa.jpg,,,,,,,,,,,,,,,
212,4,Memory,4,,,,,,,sunasrjlmglmjzbmqxb.jpg,,,,,,,,,,,,,,,
213,4,Memory,4,,,,,,,sunaqsolmfydodnakub.jpg,,,,,,,,,,,,,,,
214,4,Memory,4,,,,,,,00935960627fa.jpg,,,,,,,,,,,,,,,
215,4,Memory,4,,,,,,,sunadfndyrtqqiasoig.jpg,,,,,,,,,,,,,,,
216,4,Memory,4,,,,,,,sunaaehaikpckyjsety.jpg,,,,,,,,,,,,,,,
217,4,Memory,4,,,,,,,sunaanptmsknhirrzed.jpg,,,,,,,,,,,,,,,
218,4,Memory,4,,,,,,,sunaqbmgkgqucajzrkp.jpg,,,,,,,,,,,,,,,
219,4,Memory,4,,,,,,,00663941121fa.jpg,,,,,,,,,,,,,,,
220,4,Memory,4,,,,,,,00060931230fa.jpg,,,,,,,,,,,,,,,
221,4,Memory,4,,,,,,,sunbwdrdvsweerwsdrj.jpg,,,,,,,,,,,,,,,
222,4,Memory,4,,,,,,,00950960627fa.jpg,,,,,,,,,,,,,,,
223,4,Memory,4,,,,,,,00129931230fb.jpg,,,,,,,,,,,,,,,
224,4,Memory,4,,,,,,,sunadnjjzohjhbohlwq.jpg,,,,,,,,,,,,,,,
225,4,Memory,4,,,,,,,sunaatpeezlljqaxlhj.jpg,,,,,,,,,,,,,,,
226,4,Memory,4,,,,,,,00648941031fa.jpg,,,,,,,,,,,,,,,
227,4,Memory,4,,,,,,,01004960627fa.jpg,,,,,,,,,,,,,,,
228,4,Memory,4,,,,,,,00937960627fa.jpg,,,,,,,,,,,,,,,
229,4,Memory,4,,,,,,,sunaedtgwjvvziytspa.jpg,,,,,,,,,,,,,,,
230,4,Memory,4,,,,,,,sunagrmyoovzukhxmlo.jpg,,,,,,,,,,,,,,,
231,4,Memory,4,,,,,,,00723941201fa.jpg,,,,,,,,,,,,,,,
232,4,Memory,4,,,,,,,sunarfdklgdnjgeqfjg.jpg,,,,,,,,,,,,,,,
233,4,Memory,4,,,,,,,00210940128fb.jpg,,,,,,,,,,,,,,,
234,4,Memory,4,,,,,,,00146960620fb.jpg,,,,,,,,,,,,,,,
235,4,Memory,4,,,,,,,00119931230fb.jpg,,,,,,,,,,,,,,,
236,4,Memory,4,,,,,,,sunabanoxjtqxamkucc.jpg,,,,,,,,,,,,,,,
237,4,Memory,4,,,,,,,00910960530fa.jpg,,,,,,,,,,,,,,,
238,4,Memory,4,,,,,,,01003960627fb.jpg,,,,,,,,,,,,,,,
239,4,Memory,4,,,,,,,sunaakvmbftkrgqhjun.jpg,,,,,,,,,,,,,,,
240,4,Memory,4,,,,,,,00647941031fa.jpg,,,,,,,,,,,,,,,
241,4,Memory,4,,,,,,,sunaafynehyrzpsoaml.jpg,,,,,,,,,,,,,,,
242,4,Memory,4,,,,,,,00136931230fb.jpg,,,,,,,,,,,,,,,
243,4,Memory,4,,,,,,,sunaofikylqtxphvdem.jpg,,,,,,,,,,,,,,,
244,4,Memory,4,,,,,,,sunadflbrkckmepztql.jpg,,,,,,,,,,,,,,,
245,4,Memory,4,,,,,,,sunbwtlihsuptkrckid.jpg,,,,,,,,,,,,,,,
246,4,Memory,4,,,,,,,sunaamsdyakblkfoydx.jpg,,,,,,,,,,,,,,,
247,4,Memory,4,,,,,,,00791941205fa.jpg,,,,,,,,,,,,,,,
248,4,Memory,4,,,,,,,00086931230fa.jpg,,,,,,,,,,,,,,,
249,4,Memory,4,,,,,,,00743941201fa.jpg,,,,,,,,,,,,,,,
250,4,Presentation,5,00784941205fb_sunagjzcrjvmxzqzljx.jpg,00961960627fa_sunawotxrevnqvamsfp.jpg,00784941205fb.jpg,sunagjzcrjvmxzqzljx.jpg,00961960627fa.jpg,sunawotxrevnqvamsfp.jpg,,,<,Face,,,,,1,,,,,,,o
251,4,Presentation,5,00822940307fa_sunahqrxievfeusiqlt.jpg,01010960627fa_suncnkvbhypnivcohyx.jpg,00822940307fa.jpg,sunahqrxievfeusiqlt.jpg,01010960627fa.jpg,suncnkvbhypnivcohyx.jpg,,,<,Face,,,,,1,,,,,,,o
252,4,Presentation,5,00859940307fa_sunaiycurtqsfkvcaso.jpg,00825940307fa_sunahrltmuwbiehihpe.jpg,00859940307fa.jpg,sunaiycurtqsfkvcaso.jpg,00825940307fa.jpg,sunahrltmuwbiehihpe.jpg,,,<,Face,,,,,0,,,,,,,x
253,4,Presentation,5,00973960627fa_sunbbgtoeuzierkkajt.jpg,00914960620fa_sunaozisvwfbmlkfhzv.jpg,00973960627fa.jpg,sunbbgtoeuzierkkajt.jpg,00914960620fa.jpg,sunaozisvwfbmlkfhzv.jpg,,,<,Face,,,,,1,,,,,,,o
254,4,Presentation,5,00895960530fa_sunamczizlzavhzhpay.jpg,00242940128fa_sunabcuurugvxwparpk.jpg,00895960530fa.jpg,sunamczizlzavhzhpay.jpg,00242940128fa.jpg,sunabcuurugvxwparpk.jpg,,,<,Face,,,,,1,,,,,,,o
255,4,Presentation,5,00598941031fa_sunacxtcahkymosigud.jpg,01000960627fa_sunbvzmgrdvaakxusbu.jpg,00598941031fa.jpg,sunacxtcahkymosigud.jpg,01000960627fa.jpg,sunbvzmgrdvaakxusbu.jpg,,,<,Face,,,,,1,,,,,,,x
256,4,Presentation,5,00102931230fa_sunaajspcoepticvplv.jpg,00153931230fa_sunaauhozyxzeeqstxi.jpg,00102931230fa.jpg,sunaajspcoepticvplv.jpg,00153931230fa.jpg,sunaauhozyxzeeqstxi.jpg,,,<,Face,,,,,1,,,,,,,o
257,4,Presentation,5,00786941205fa_sunagmhildamktmqjss.jpg,00081941031fa_sunaaftlyfudyzuhqzf.jpg,00786941205fa.jpg,sunagmhildamktmqjss.jpg,00081941031fa.jpg,sunaaftlyfudyzuhqzf.jpg,,,<,Face,,,,,1,,,,,,,o
258,4,Presentation,5,00911960530fa_sunaooaqzputrowwbsw.jpg,00967960627fa_sunbaejotfklekvpxcz.jpg,00911960530fa.jpg,sunaooaqzputrowwbsw.jpg,00967960627fa.jpg,sunbaejotfklekvpxcz.jpg,,,<,Face,,,,,1,,,,,,,x
259,4,Presentation,5,00101931230fb_sunaajqmsaavkmgbsth.jpg,00968960627fa_sunbagfpovqwbuexqdn.jpg,00101931230fb.jpg,sunaajqmsaavkmgbsth.jpg,00968960627fa.jpg,sunbagfpovqwbuexqdn.jpg,,,<,Face,,,,,1,,,,,,,x
260,4,Memory,5,,,,,,,01000960627fa.jpg,,,,,,,,,,,,,,,
261,4,Memory,5,,,,,,,00914960620fa.jpg,,,,,,,,,,,,,,,
262,4,Memory,5,,,,,,,00968960627fa.jpg,,,,,,,,,,,,,,,
263,4,Memory,5,,,,,,,sunafhmnhsdurlvddpw.jpg,,,,,,,,,,,,,,,
264,4,Memory,5,,,,,,,00694941121fa.jpg,,,,,,,,,,,,,,,
265,4,Memory,5,,,,,,,00773941201fa.jpg,,,,,,,,,,,,,,,
266,4,Memory,5,,,,,,,00719960620fa.jpg,,,,,,,,,,,,,,,
267,4,Memory,5,,,,,,,sunaaexqbtdswxrqjvz.jpg,,,,,,,,,,,,,,,
268,4,Memory,5,,,,,,,sunaaftlyfudyzuhqzf.jpg,,,,,,,,,,,,,,,
269,4,Memory,5,,,,,,,sunaajspcoepticvplv.jpg,,,,,,,,,,,,,,,
270,4,Memory,5,,,,,,,sunamczizlzavhzhpay.jpg,,,,,,,,,,,,,,,
271,4,Memory,5,,,,,,,sunawksfbacycuhbrsc.jpg,,,,,,,,,,,,,,,
272,4,Memory,5,,,,,,,00895960530fa.jpg,,,,,,,,,,,,,,,
273,4,Memory,5,,,,,,,00302940422fa.jpg,,,,,,,,,,,,,,,
274,4,Memory,5,,,,,,,00081941031fa.jpg,,,,,,,,,,,,,,,
275,4,Memory,5,,,,,,,00859940307fa.jpg,,,,,,,,,,,,,,,
276,4,Memory,5,,,,,,,00869940307fa.jpg,,,,,,,,,,,,,,,
277,4,Memory,5,,,,,,,00973960627fa.jpg,,,,,,,,,,,,,,,
278,4,Memory,5,,,,,,,00960960627fa.jpg,,,,,,,,,,,,,,,
279,4,Memory,5,,,,,,,00782941205fa.jpg,,,,,,,,,,,,,,,
280,4,Memory,5,,,,,,,00961960627fa.jpg,,,,,,,,,,,,,,,
281,4,Memory,5,,,,,,,sunadzuvtmtmgupotmf.jpg,,,,,,,,,,,,,,,
282,4,Memory,5,,,,,,,00893960530Fa.jpg,,,,,,,,,,,,,,,
283,4,Memory,5,,,,,,,sunajoveqhiprwqgoco.jpg,,,,,,,,,,,,,,,
284,4,Memory,5,,,,,,,sunabtlfmiwtljmoues.jpg,,,,,,,,,,,,,,,
285,4,Memory,5,,,,,,,00784941205fb.jpg,,,,,,,,,,,,,,,
286,4,Memory,5,,,,,,,00102931230fa.jpg,,,,,,,,,,,,,,,
287,4,Memory,5,,,,,,,sunadrmfzmstgdjdcod.jpg,,,,,,,,,,,,,,,
288,4,Memory,5,,,,,,,00071941031fa.jpg,,,,,,,,,,,,,,,
289,4,Memory,5,,,,,,,sunaiycurtqsfkvcaso.jpg,,,,,,,,,,,,,,,
290,4,Memory,5,,,,,,,sunbvzmgrdvaakxusbu.jpg,,,,,,,,,,,,,,,
291,4,Memory,5,,,,,,,sunafvcflzhlqloapyo.jpg,,,,,,,,,,,,,,,
292,4,Memory,5,,,,,,,00763941205fa.jpg,,,,,,,,,,,,,,,
293,4,Memory,5,,,,,,,sunagfvluwixdsozaql.jpg,,,,,,,,,,,,,,,
294,4,Memory,5,,,,,,,sunaozisvwfbmlkfhzv.jpg,,,,,,,,,,,,,,,
295,4,Memory,5,,,,,,,sunaloffvbvysigxent.jpg,,,,,,,,,,,,,,,
296,4,Memory,5,,,,,,,sunbagfpovqwbuexqdn.jpg,,,,,,,,,,,,,,,
297,4,Memory,5,,,,,,,sunagjzcrjvmxzqzljx.jpg,,,,,,,,,,,,,,,
298,4,Memory,5,,,,,,,sunbbgtoeuzierkkajt.jpg,,,,,,,,,,,,,,,
299,4,Memory,5,,,,,,,sunawotxrevnqvamsfp.jpg,,,,,,,,,,,,,,,
300,4,Presentation,6,00063931230fa_sunaaelyvurpntclgau.jpg,00913960530fa_sunaooffzffbhcpirmm.jpg,00063931230fa.jpg,sunaaelyvurpntclgau.jpg,00913960530fa.jpg,sunaooffzffbhcpirmm.jpg,,,>,Face,,,,,1,,,,,,,o
301,4,Presentation,6,00851940307fa_sunaivflshbyfrfzhqb.jpg,00815941205fa_sunahiphsekjihkafsl.jpg,00851940307fa.jpg,sunaivflshbyfrfzhqb.jpg,00815941205fa.jpg,sunahiphsekjihkafsl.jpg,,,>,Face,,,,,1,,,,,,,o
302,4,Presentation,6,00774941201fa_sunafvtpfczkzopbgue.jpg,00752960620fa_sunafbwnojpqeyzssoe.jpg,00774941201fa.jpg,sunafvtpfczkzopbgue.jpg,00752960620fa.jpg,sunafbwnojpqeyzssoe.jpg,,,>,Face,,,,,1,,,,,,,o
303,4,Presentation,6,00838940307fa_sunaiozxhxgtfrmoagh.jpg,00705941205fa_sunadtlxenqqxsyjvix.jpg,00838940307fa.jpg,sunaiozxhxgtfrmoagh.jpg,00705941205fa.jpg,sunadtlxenqqxsyjvix.jpg,,,>,Face,,,,,1,,,,,,,o
304,4,Presentation,6,00650941031fa_sunadikxpvqeabxrvvc.jpg,00096931230fa_sunaaiqiqcggrskoqgy.jpg,00650941031fa.jpg,sunadikxpvqeabxrvvc.jpg,00096931230fa.jpg,sunaaiqiqcggrskoqgy.jpg,,,>,Face,,,,,1,,,,,,,x
305,4,Presentation,6,00789960620fa_sunagpancjmxqfazssf.jpg,00876960620fa_sunajwqkfsykceonyig.jpg,00789960620fa.jpg,sunagpancjmxqfazssf.jpg,00876960620fa.jpg,sunajwqkfsykceonyig.jpg,,,>,Face,,,,,1,,,,,,,x
306,4,Presentation,6,00783941205fa_sunagjeesomrwjsfqie.jpg,00761960627fa_sunafgdqbclkwfocdhg.jpg,00783941205fa.jpg,sunagjeesomrwjsfqie.jpg,00761960627fa.jpg,sunafgdqbclkwfocdhg.jpg,,,>,Face,,,,,0,,,,,,,o
307,4,Presentation,6,00681941121fa_sunadqmjrhfjyuzyvdd.jpg,00154931230fa_sunaauueuhhvklldjik.jpg,00681941121fa.jpg,sunadqmjrhfjyuzyvdd.jpg,00154931230fa.jpg,sunaauueuhhvklldjik.jpg,,,>,Face,,,,,1,,,,,,,o
308,4,Presentation,6,00147931230fb_sunaatpkocdkocwxpkb.jpg,00988960627fa_sunbmaiocftdtvnzgap.jpg,00147931230fb.jpg,sunaatpkocdkocwxpkb.jpg,00988960627fa.jpg,sunbmaiocftdtvnzgap.jpg,,,>,Face,,,,,0,,,,,,,x
309,4,Presentation,6,00741941201fa_sunaemcowdozyphwknd.jpg,00158931230fb_sunaavchcbptaerhcfy.jpg,00741941201fa.jpg,sunaemcowdozyphwknd.jpg,00158931230fb.jpg,sunaavchcbptaerhcfy.jpg,,,>,Face,,,,,1,,,,,,,x
310,4,Memory,6,,,,,,,sunaooffzffbhcpirmm.jpg,,,,,,,,,,,,,,,
311,4,Memory,6,,,,,,,00876960620fa.jpg,,,,,,,,,,,,,,,
312,4,Memory,6,,,,,,,00887960530.jpg,,,,,,,,,,,,,,,
313,4,Memory,6,,,,,,,sunadcphrizvfpljiqt.jpg,,,,,,,,,,,,,,,
314,4,Memory,6,,,,,,,sunadbdqzigzwipuipr.jpg,,,,,,,,,,,,,,,
315,4,Memory,6,,,,,,,00063931230fa.jpg,,,,,,,,,,,,,,,
316,4,Memory,6,,,,,,,00803941205fa.jpg,,,,,,,,,,,,,,,
317,4,Memory,6,,,,,,,00789960620fa.jpg,,,,,,,,,,,,,,,
318,4,Memory,6,,,,,,,00809960620fa.jpg,,,,,,,,,,,,,,,
319,4,Memory,6,,,,,,,00969960627fa.jpg,,,,,,,,,,,,,,,
320,4,Memory,6,,,,,,,sunahiphsekjihkafsl.jpg,,,,,,,,,,,,,,,
321,4,Memory,6,,,,,,,sunabmbnddafmywtjjj.jpg,,,,,,,,,,,,,,,
322,4,Memory,6,,,,,,,00815941205fa.jpg,,,,,,,,,,,,,,,
323,4,Memory,6,,,,,,,sunbaoizrfijvhpnnjn.jpg,,,,,,,,,,,,,,,
324,4,Memory,6,,,,,,,sunadikxpvqeabxrvvc.jpg,,,,,,,,,,,,,,,
325,4,Memory,6,,,,,,,sunaaelyvurpntclgau.jpg,,,,,,,,,,,,,,,
326,4,Memory,6,,,,,,,00650941031fa.jpg,,,,,,,,,,,,,,,
327,4,Memory,6,,,,,,,00147931230fb.jpg,,,,,,,,,,,,,,,
328,4,Memory,6,,,,,,,sunaauueuhhvklldjik.jpg,,,,,,,,,,,,,,,
329,4,Memory,6,,,,,,,00913960530fa.jpg,,,,,,,,,,,,,,,
330,4,Memory,6,,,,,,,00271940422fa.jpg,,,,,,,,,,,,,,,
331,4,Memory,6,,,,,,,sunaakmxzhuceuiryah.jpg,,,,,,,,,,,,,,,
332,4,Memory,6,,,,,,,sunaafjszryxyavjzln.jpg,,,,,,,,,,,,,,,
333,4,Memory,6,,,,,,,sunajwqkfsykceonyig.jpg,,,,,,,,,,,,,,,
334,4,Memory,6,,,,,,,00096931230fa.jpg,,,,,,,,,,,,,,,
335,4,Memory,6,,,,,,,sunagvxkjokqimstxpe.jpg,,,,,,,,,,,,,,,
336,4,Memory,6,,,,,,,00634940928fa.jpg,,,,,,,,,,,,,,,
337,4,Memory,6,,,,,,,00929960627fa.jpg,,,,,,,,,,,,,,,
338,4,Memory,6,,,,,,,00631940928fa.jpg,,,,,,,,,,,,,,,
339,4,Memory,6,,,,,,,sunaprnrbmgkomdbchr.jpg,,,,,,,,,,,,,,,
340,4,Memory,6,,,,,,,00838940307fa.jpg,,,,,,,,,,,,,,,
341,4,Memory,6,,,,,,,sunahbvlpavurqoxdeq.jpg,,,,,,,,,,,,,,,
342,4,Memory,6,,,,,,,00080931230fb.jpg,,,,,,,,,,,,,,,
343,4,Memory,6,,,,,,,sunaatpkocdkocwxpkb.jpg,,,,,,,,,,,,,,,
344,4,Memory,6,,,,,,,00154931230fa.jpg,,,,,,,,,,,,,,,
345,4,Memory,6,,,,,,,00115931230fa.jpg,,,,,,,,,,,,,,,
346,4,Memory,6,,,,,,,sunaiozxhxgtfrmoagh.jpg,,,,,,,,,,,,,,,
347,4,Memory,6,,,,,,,sunaaiqiqcggrskoqgy.jpg,,,,,,,,,,,,,,,
348,4,Memory,6,,,,,,,sunalcrtwiycqobgelp.jpg,,,,,,,,,,,,,,,
349,4,Memory,6,,,,,,,sunagpancjmxqfazssf.jpg,,,,,,,,,,,,,,,
350,4,Presentation,7,00235940128fb_sunabclssnoeuigtawp.jpg,00082931230fa_sunaafvitpexrpvumsa.jpg,00235940128fb.jpg,sunabclssnoeuigtawp.jpg,00082931230fa.jpg,sunaafvitpexrpvumsa.jpg,,,<,Place,,,,,1,,,,,,,x
351,4,Presentation,7,00543940519fa_sunacepzfrmtkiqonpy.jpg,00479940519fa_sunabxsbfwjccqxxzxq.jpg,00543940519fa.jpg,sunacepzfrmtkiqonpy.jpg,00479940519fa.jpg,sunabxsbfwjccqxxzxq.jpg,,,<,Place,,,,,1,,,,,,,o
352,4,Presentation,7,00306940422fa_sunabueyoajufbkraki.jpg,00280940422fb_sunabohxbskznglnrhv.jpg,00306940422fa.jpg,sunabueyoajufbkraki.jpg,00280940422fb.jpg,sunabohxbskznglnrhv.jpg,,,<,Place,,,,,1,,,,,,,x
353,4,Presentation,7,00290940422fa_sunabqowuarvqqcnipn.jpg,00069931230fb_sunaaeowapdkwzqpgqr.jpg,00290940422fa.jpg,sunabqowuarvqqcnipn.jpg,00069931230fb.jpg,sunaaeowapdkwzqpgqr.jpg,,,<,Place,,,,,1,,,,,,,x
354,4,Presentation,7,00098931230fa_sunaajpqmulidejvjsr.jpg,00983960627fa_sunbfyvfqiimvdaxlqn.jpg,00098931230fa.jpg,sunaajpqmulidejvjsr.jpg,00983960627fa.jpg,sunbfyvfqiimvdaxlqn.jpg,,,<,Place,,,,,1,,,,,,,o
355,4,Presentation,7,00989960627fa_sunbondbduabvijnmch.jpg,00922960627fa_sunapqkyghktgtosuuk.jpg,00989960627fa.jpg,sunbondbduabvijnmch.jpg,00922960627fa.jpg,sunapqkyghktgtosuuk.jpg,,,<,Place,,,,,1,,,,,,,o
356,4,Presentation,7,00811960530fa_sunahedfrhtcwpneund.jpg,00794960620fa_sunagtqhhwxjeuxdebe.jpg,00811960530fa.jpg,sunahedfrhtcwpneund.jpg,00794960620fa.jpg,sunagtqhhwxjeuxdebe.jpg,,,<,Place,,,,,1,,,,,,,x
357,4,Presentation,7,00598940928fa_sunacxeheuiigkcgquf.jpg,00144931230fb_sunaathajvxrgptwhoj.jpg,00598940928fa.jpg,sunacxeheuiigkcgquf.jpg,00144931230fb.jpg,sunaathajvxrgptwhoj.jpg,,,<,Place,,,,,1,,,,,,,x
358,4,Presentation,7,00270940422fb_sunabllobxadqcyttej.jpg,01009960627fa_sunbxzweleltykebgan.jpg,00270940422fb.jpg,sunabllobxadqcyttej.jpg,01009960627fa.jpg,sunbxzweleltykebgan.jpg,,,<,Place,,,,,1,,,,,,,x
359,4,Presentation,7,00828940307fa_sunahuynahneraqftyz.jpg,01005960627fa_sunbwyuesflwdpqtgoy.jpg,00828940307fa.jpg,sunahuynahneraqftyz.jpg,01005960627fa.jpg,sunbwyuesflwdpqtgoy.jpg,,,<,Place,,,,,1,,,,,,,o
360,4,Memory,7,,,,,,,sunasbbntuiheekqyaq.jpg,,,,,,,,,,,,,,,
361,4,Memory,7,,,,,,,00922960627fa.jpg,,,,,,,,,,,,,,,
362,4,Memory,7,,,,,,,sunagtjwilqjvxohypn.jpg,,,,,,,,,,,,,,,
363,4,Memory,7,,,,,,,00700941121fa.jpg,,,,,,,,,,,,,,,
364,4,Memory,7,,,,,,,sunaazzyhbvqjpmazjq.jpg,,,,,,,,,,,,,,,
365,4,Memory,7,,,,,,,sunapileznnbbmrwoei.jpg,,,,,,,,,,,,,,,
366,4,Memory,7,,,,,,,sunbxzweleltykebgan.jpg,,,,,,,,,,,,,,,
367,4,Memory,7,,,,,,,01207940128fa.jpg,,,,,,,,,,,,,,,
368,4,Memory,7,,,,,,,sundbixjudsgeuuehrn.jpg,,,,,,,,,,,,,,,
369,4,Memory,7,,,,,,,00811960530fa.jpg,,,,,,,,,,,,,,,
370,4,Memory,7,,,,,,,00149931230fa.jpg,,,,,,,,,,,,,,,
371,4,Memory,7,,,,,,,sunapqkyghktgtosuuk.jpg,,,,,,,,,,,,,,,
372,4,Memory,7,,,,,,,00952960627fa.jpg,,,,,,,,,,,,,,,
373,4,Memory,7,,,,,,,sunahedfrhtcwpneund.jpg,,,,,,,,,,,,,,,
374,4,Memory,7,,,,,,,00306940422fa.jpg,,,,,,,,,,,,,,,
375,4,Memory,7,,,,,,,sunahuynahneraqftyz.jpg,,,,,,,,,,,,,,,
376,4,Memory,7,,,,,,,sunagtqhhwxjeuxdebe.jpg,,,,,,,,,,,,,,,
377,4,Memory,7,,,,,,,sunaafvitpexrpvumsa.jpg,,,,,,,,,,,,,,,
378,4,Memory,7,,,,,,,01009960627fa.jpg,,,,,,,,,,,,,,,
379,4,Memory,7,,,,,,,00793941205fa.jpg,,,,,,,,,,,,,,,
380,4,Memory,7,,,,,,,00915960620fa.jpg,,,,,,,,,,,,,,,
381,4,Memory,7,,,,,,,sunabueyoajufbkraki.jpg,,,,,,,,,,,,,,,
382,4,Memory,7,,,,,,,sunaauglwmctnkxyird.jpg,,,,,,,,,,,,,,,
383,4,Memory,7,,,,,,,00944960627fa.jpg,,,,,,,,,,,,,,,
384,4,Memory,7,,,,,,,00208940128fa.jpg,,,,,,,,,,,,,,,
385,4,Memory,7,,,,,,,sunaajpqmulidejvjsr.jpg,,,,,,,,,,,,,,,
386,4,Memory,7,,,,,,,sunadsgmtznewzyasnk.jpg,,,,,,,,,,,,,,,
387,4,Memory,7,,,,,,,00780960530fa.jpg,,,,,,,,,,,,,,,
388,4,Memory,7,,,,,,,sunathzzbcwjykldrem.jpg,,,,,,,,,,,,,,,
389,4,Memory,7,,,,,,,sunaathajvxrgptwhoj.jpg,,,,,,,,,,,,,,,
390,4,Memory,7,,,,,,,00098931230fa.jpg,,,,,,,,,,,,,,,
391,4,Memory,7,,,,,,,00082931230fa.jpg,,,,,,,,,,,,,,,
392,4,Memory,7,,,,,,,00794960620fa.jpg,,,,,,,,,,,,,,,
393,4,Memory,7,,,,,,,00290940422fa.jpg,,,,,,,,,,,,,,,
394,4,Memory,7,,,,,,,sunaapllqyqlykszopd.jpg,,,,,,,,,,,,,,,
395,4,Memory,7,,,,,,,sunagetqixeypsysbpn.jpg,,,,,,,,,,,,,,,
396,4,Memory,7,,,,,,,sunabqowuarvqqcnipn.jpg,,,,,,,,,,,,,,,
397,4,Memory,7,,,,,,,00828940307fa.jpg,,,,,,,,,,,,,,,
398,4,Memory,7,,,,,,,00144931230fb.jpg,,,,,,,,,,,,,,,
399,4,Memory,7,,,,,,,00140931230fb.jpg,,,,,,,,,,,,,,,
