,Subject,Trial Type,Run,Cued Composite,Uncued Composite,Cued Face,Cued Place,Uncued Face,Uncued Place,Memory Image,Category,Cued Side,Cued Category,Attention Reaction Time (s),Familiarity Reaction Time (s),Familiarity Rating,Attention Level,Cue Validity,Post Invalid Cue,Pre Invalid Cue,Attention Button,Rating History,Stimulus Onset,Stimulus End,Attention Probe
210,17,Memory,4,,,,,,,sunaaxjpzcnxligjtjq.jpg,,,,,1.016,4.0,,,,,,,1554143638.401918,1554143640.448417,
211,17,Memory,4,,,,,,,00895960530fa.jpg,,,,,1.002,2.0,,,,,,,1554143641.715175,1554143643.7,
212,17,Memory,4,,,,,,,00147931230fb.jpg,,,,,1.467,3.0,,,,,,,1554143644.988064,1554143647.055165,
213,17,Memory,4,,,,,,,sunbbfqwjpdxniyhies.jpg,,,,,0.968,2.0,,,,,,,1554143648.337796,1554143650.319386,
214,17,Memory,4,,,,,,,00133931230fa.jpg,,,,,1.149,2.0,,,,,,,1554143651.606763,1554143653.735323,
215,17,Memory,4,,,,,,,sunasbbntuiheekqyaq.jpg,,,,,1.399,2.0,,,,,,,1554143655.041056,1554143657.145581,
216,17,Memory,4,,,,,,,sunadpnqovzckyikrjo.jpg,,,,,1.225,3.0,,,,,,,1554143658.458873,1554143660.524388,
217,17,Memory,4,,,,,,,sunbbxkanhzjgbwyxqs.jpg,,,,,1.691,2.0,,,,,,,1554143661.810336,1554143663.996842,
218,17,Memory,4,,,,,,,00730960620fa.jpg,,,,,1.308,3.0,,,,,,,1554143665.27744,1554143667.557872,
219,17,Memory,4,,,,,,,00979960627fa.jpg,,,,,1.258,2.0,,,,,,,1554143668.860877,1554143670.975393,
220,17,Memory,4,,,,,,,00742941201fa.jpg,,,,,1.206,3.0,,,,,,,1554143672.26203,1554143674.279275,
221,17,Memory,4,,,,,,,sunbdycacjfaujxitbw.jpg,,,,,1.074,3.0,,,,,,,1554143675.531371,1554143677.626408,
222,17,Memory,4,,,,,,,sunaanlwnpqndclffxt.jpg,,,,,1.054,4.0,,,,,,,1554143678.898254,1554143680.949873,
223,17,Memory,4,,,,,,,sunamczizlzavhzhpay.jpg,,,,,1.392,4.0,,,,,,,1554143682.23288,1554143684.32907,
224,17,Memory,4,,,,,,,00062931230fb.jpg,,,,,1.325,2.0,,,,,,,1554143685.600992,1554143687.713675,
225,17,Memory,4,,,,,,,00773960620fa.jpg,,,,,0.949,3.0,,,,,,,1554143689.001635,1554143691.088515,
226,17,Memory,4,,,,,,,00193940928fa.jpg,,,,,1.224,2.0,,,,,,,1554143692.368896,1554143694.415401,
227,17,Memory,4,,,,,,,sunaatpkocdkocwxpkb.jpg,,,,,1.407,2.0,,,,,,,1554143695.688255,1554143697.901386,
228,17,Memory,4,,,,,,,sunabkmdplkdbvxriff.jpg,,,,,1.676,2.0,,,,,,,1554143699.171552,1554143701.254589,
229,17,Memory,4,,,,,,,00972960627fa.jpg,,,,,1.303,3.0,,,,,,,1554143702.57244,1554143704.570101,
230,17,Memory,4,,,,,,,sunaaelotvjgibjtjhs.jpg,,,,,1.317,4.0,,,,,,,1554143705.820573,1554143707.804133,
231,17,Memory,4,,,,,,,sunaenwuebvlpdmntju.jpg,,,,,1.053,2.0,,,,,,,1554143709.17477,1554143711.159186,
232,17,Memory,4,,,,,,,00944960627fa.jpg,,,,,1.44,3.0,,,,,,,1554143712.504866,1554143714.574289,
233,17,Memory,4,,,,,,,00676941121fa.jpg,,,,,0.0,,,,,,,,1554143715.860645,1554143717.973462,
234,17,Memory,4,,,,,,,00885960530fa.jpg,,,,,1.415,2.0,,,,,,,1554143719.223509,1554143721.216468,
235,17,Memory,4,,,,,,,sunakwlvxjpddialozd.jpg,,,,,1.224,1.0,,,,,,,1554143722.513414,1554143724.542979,
236,17,Memory,4,,,,,,,sunaeouogqolxvggaoq.jpg,,,,,1.124,4.0,,,,,,,1554143725.81404,1554143727.910105,
237,17,Memory,4,,,,,,,00900960530fa.jpg,,,,,1.108,1.0,,,,,,,1554143729.181002,1554143731.234908,
238,17,Memory,4,,,,,,,00210940128fb.jpg,,,,,1.292,4.0,,,,,,,1554143732.532512,1554143734.714037,
239,17,Memory,4,,,,,,,00265940128fb.jpg,,,,,1.024,2.0,,,,,,,1554143735.984338,1554143738.088694,
240,17,Memory,4,,,,,,,sunabkngeblodihjvbk.jpg,,,,,1.109,4.0,,,,,,,1554143739.417877,1554143741.539708,
241,17,Memory,4,,,,,,,sunafvsxtzaizojicxx.jpg,,,,,1.17,4.0,,,,,,,1554143742.819591,1554143744.908883,
242,17,Memory,4,,,,,,,sundbixjudsgeuuehrn.jpg,,,,,1.241,1.0,,,,,,,1554143746.170139,1554143748.216426,
243,17,Memory,4,,,,,,,00977960627fa.jpg,,,,,0.908,2.0,,,,,,,1554143749.488453,1554143751.601055,
244,17,Memory,4,,,,,,,sunabanoxjtqxamkucc.jpg,,,,,1.357,4.0,,,,,,,1554143752.873038,1554143754.953063,
245,17,Memory,4,,,,,,,01207940128fa.jpg,,,,,0.881,3.0,,,,,,,1554143756.241231,1554143758.257524,
246,17,Memory,4,,,,,,,00266940128fb.jpg,,,,,1.025,2.0,,,,,,,1554143759.541863,1554143761.67123,
247,17,Memory,4,,,,,,,00745941205fa.jpg,,,,,1.29,2.0,,,,,,,1554143762.94226,1554143765.05615,
248,17,Memory,4,,,,,,,sunamlotskmmsjeogby.jpg,,,,,1.108,4.0,,,,,,,1554143766.305567,1554143768.411117,
249,17,Memory,4,,,,,,,sunaekgzpfilgjxpeyq.jpg,,,,,1.44,1.0,,,,,,,1554143769.711461,1554143771.691241,
