,Subject,Trial Type,Run,Cued Composite,Uncued Composite,Cued Face,Cued Place,Uncued Face,Uncued Place,Memory Image,Category,Cued Side,Cued Category,Attention Reaction Time (s),Familiarity Reaction Time (s),Familiarity Rating,Attention Level,Cue Validity,Post Invalid Cue,Pre Invalid Cue,Attention Button,Rating History,Stimulus Onset,Stimulus End,Attention Probe
110,23,Memory,2,,,,,,,sunaloffvbvysigxent.jpg,,,,,1.293,1.0,,,,,,,1554920914.586323,1554920918.486418,
111,23,Memory,2,,,,,,,00481940519fa.jpg,,,,,0.709,3.0,,,,,,,1554920919.804659,1554920923.655123,
112,23,Memory,2,,,,,,,sunagsiwrmuixqgdimb.jpg,,,,,1.394,3.0,,,,,,,1554920924.98915,1554920928.806281,
113,23,Memory,2,,,,,,,00265940128fb.jpg,,,,,1.877,2.0,,,,,,,1554920930.107195,1554920933.958654,
114,23,Memory,2,,,,,,,00969960627fa.jpg,,,,,3.001,2.0,,,,,,,1554920935.275588,1554920939.227067,
115,23,Memory,2,,,,,,,00144931230fb.jpg,,,,,0.843,1.0,,,,,,,1554920940.543903,1554920944.212148,
116,23,Memory,2,,,,,,,sunaakgekhjklxmvulj.jpg,,,,,1.56,3.0,,,,,,,1554920945.529369,1554920949.2473,
117,23,Memory,2,,,,,,,00111931230fb.jpg,,,,,1.394,4.0,,,,,,,1554920950.548364,1554920954.349067,
118,23,Memory,2,,,,,,,sunabcuurugvxwparpk.jpg,,,,,0.826,1.0,,,,,,,1554920955.665705,1554920959.484778,
119,23,Memory,2,,,,,,,00242940128fa.jpg,,,,,0.777,2.0,,,,,,,1554920960.784155,1554920964.586236,
120,23,Memory,2,,,,,,,sunabkmdplkdbvxriff.jpg,,,,,2.191,2.0,,,,,,,1554920965.903289,1554920969.787416,
121,23,Memory,2,,,,,,,00792941205fa.jpg,,,,,0.676,1.0,,,,,,,1554920971.103962,1554920974.688939,
122,23,Memory,2,,,,,,,00893960530Fa.jpg,,,,,0.009,2.0,,,,,,,1554920975.989123,1554920979.791004,
123,23,Memory,2,,,,,,,00938960627fa.jpg,,,,,1.01,1.0,,,,,,,1554920981.157236,1554920984.976376,
124,23,Memory,2,,,,,,,00785941205fa.jpg,,,,,0.943,1.0,,,,,,,1554920986.292496,1554920989.83944,
125,23,Memory,2,,,,,,,sunaatpeezlljqaxlhj.jpg,,,,,0.865,4.0,,,,,,,1554920991.127664,1554920993.2094,
126,23,Memory,2,,,,,,,sunaeisnjeetzmkbuad.jpg,,,,,0.92,4.0,,,,,,,1554920994.761952,1554920996.744828,
127,23,Memory,2,,,,,,,sunaathajvxrgptwhoj.jpg,,,,,1.282,3.0,,,,,,,1554920998.029816,1554921000.010055,
128,23,Memory,2,,,,,,,00093931230fa.jpg,,,,,0.793,1.0,,,,,,,1554921001.279888,1554921004.698608,
129,23,Memory,2,,,,,,,00810941205fa.jpg,,,,,0.644,1.0,,,,,,,1554921006.015535,1554921008.900068,
130,23,Memory,2,,,,,,,sunaahwnmtqsrhocysw.jpg,,,,,1.6,2.0,,,,,,,1554921010.200813,1554921012.895597,
131,23,Memory,2,,,,,,,00146960620fb.jpg,,,,,0.91,1.0,,,,,,,1554921014.185222,1554921018.019216,
132,23,Memory,2,,,,,,,sunaalcrrdbjgdztbiz.jpg,,,,,1.209,2.0,,,,,,,1554921019.320499,1554921023.154525,
133,23,Memory,2,,,,,,,00876960620fa.jpg,,,,,0.676,1.0,,,,,,,1554921024.588589,1554921028.339755,
134,23,Memory,2,,,,,,,sunajwqkfsykceonyig.jpg,,,,,0.008,3.0,,,,,,,1554921029.65611,1554921033.37392,
135,23,Memory,2,,,,,,,sunaglqunwuycxydmyu.jpg,,,,,1.21,3.0,,,,,,,1554921034.708325,1554921038.575548,
136,23,Memory,2,,,,,,,sunbasypfgzjtomktmu.jpg,,,,,1.011,2.0,,,,,,,1554921039.877581,1554921043.660093,
137,23,Memory,2,,,,,,,sunaqyylsngywqzwfmx.jpg,,,,,1.81,3.0,,,,,,,1554921044.979097,1554921048.862706,
138,23,Memory,2,,,,,,,sunathzzbcwjykldrem.jpg,,,,,0.775,4.0,,,,,,,1554921050.163942,1554921053.982107,
139,23,Memory,2,,,,,,,sunahctntqrunhdxhtb.jpg,,,,,1.609,2.0,,,,,,,1554921055.299019,1554921059.117404,
140,23,Memory,2,,,,,,,sunagufzbeteqdjxais.jpg,,,,,1.132,4.0,,,,,,,1554921060.395078,1554921062.379995,
141,23,Memory,2,,,,,,,00797960620fa.jpg,,,,,0.75,1.0,,,,,,,1554921063.645568,1554921065.630912,
142,23,Memory,2,,,,,,,sunabxsuqbleluwczoy.jpg,,,,,0.931,4.0,,,,,,,1554921066.880787,1554921068.863841,
143,23,Memory,2,,,,,,,00952960627fa.jpg,,,,,0.536,1.0,,,,,,,1554921070.203149,1554921072.185269,
144,23,Memory,2,,,,,,,00970960627fa.jpg,,,,,0.483,1.0,,,,,,,1554921073.448889,1554921075.433195,
145,23,Memory,2,,,,,,,00727941205fa.jpg,,,,,0.951,3.0,,,,,,,1554921076.688676,1554921078.670653,
146,23,Memory,2,,,,,,,sunbaoizrfijvhpnnjn.jpg,,,,,0.832,4.0,,,,,,,1554921079.952146,1554921082.086935,
147,23,Memory,2,,,,,,,00123931230fb.jpg,,,,,1.362,2.0,,,,,,,1554921083.440865,1554921086.742031,
148,23,Memory,2,,,,,,,sunabckqabszusgcykj.jpg,,,,,1.444,2.0,,,,,,,1554921088.05911,1554921091.809592,
149,23,Memory,2,,,,,,,00227940128fa.jpg,,,,,1.01,2.0,,,,,,,1554921093.127301,1554921097.011815,
