,Subject,Trial Type,Run,Cued Composite,Uncued Composite,Cued Face,Cued Place,Uncued Face,Uncued Place,Memory Image,Category,Cued Side,Cued Category,Attention Reaction Time (s),Familiarity Reaction Time (s),Familiarity Rating,Attention Level,Cue Validity,Post Invalid Cue,Pre Invalid Cue,Attention Button,Rating History,Stimulus Onset,Stimulus End,Attention Probe
0,10,Presentation,0,00766960620fa_sunafijbgncijwykrnl.jpg,00884960530fa_sunakodkcslgqhqlgwl.jpg,00766960620fa.jpg,sunafijbgncijwykrnl.jpg,00884960530fa.jpg,sunakodkcslgqhqlgwl.jpg,,,>,Face,,,,,1,,,,,,,x
1,10,Presentation,0,00793941205fa_sunagtjwilqjvxohypn.jpg,00742941201fa_sunaenwuebvlpdmntju.jpg,00793941205fa.jpg,sunagtjwilqjvxohypn.jpg,00742941201fa.jpg,sunaenwuebvlpdmntju.jpg,,,>,Face,,,,,1,,,,,,,o
2,10,Presentation,0,00754941201fa_sunaffgsyyvoqdlkmnk.jpg,00090931230fa_sunaahedjlmtqekgyvj.jpg,00754941201fa.jpg,sunaffgsyyvoqdlkmnk.jpg,00090931230fa.jpg,sunaahedjlmtqekgyvj.jpg,,,>,Face,,,,,1,,,,,,,o
3,10,Presentation,0,00620940928fa_sunacypmnujalygkunp.jpg,00093931230fa_sunaahwnmtqsrhocysw.jpg,00620940928fa.jpg,sunacypmnujalygkunp.jpg,00093931230fa.jpg,sunaahwnmtqsrhocysw.jpg,,,>,Face,,,,,1,,,,,,,x
4,10,Presentation,0,00799941205fa_sunagutjvdvnhxejerz.jpg,00727941205fa_sunaeisnjeetzmkbuad.jpg,00799941205fa.jpg,sunagutjvdvnhxejerz.jpg,00727941205fa.jpg,sunaeisnjeetzmkbuad.jpg,,,>,Face,,,,,1,,,,,,,o
5,10,Presentation,0,00851940307fa_sunaivflshbyfrfzhqb.jpg,00747941201fa_sunaeutbrtswvsozxyk.jpg,00851940307fa.jpg,sunaivflshbyfrfzhqb.jpg,00747941201fa.jpg,sunaeutbrtswvsozxyk.jpg,,,>,Face,,,,,1,,,,,,,o
6,10,Presentation,0,00775941205fa_sunafvwfsmqkjrutjta.jpg,00634940928fa_sunadcphrizvfpljiqt.jpg,00775941205fa.jpg,sunafvwfsmqkjrutjta.jpg,00634940928fa.jpg,sunadcphrizvfpljiqt.jpg,,,>,Face,,,,,1,,,,,,,x
7,10,Presentation,0,00795941205fa_sunagtumacdlmciqamz.jpg,00800941205fb_sunagvjurcwdbixvnyi.jpg,00795941205fa.jpg,sunagtumacdlmciqamz.jpg,00800941205fb.jpg,sunagvjurcwdbixvnyi.jpg,,,>,Face,,,,,1,,,,,,,x
8,10,Presentation,0,00957960627fa_sunavhxgmgrqsaptynb.jpg,00140931230fb_sunaapllqyqlykszopd.jpg,00957960627fa.jpg,sunavhxgmgrqsaptynb.jpg,00140931230fb.jpg,sunaapllqyqlykszopd.jpg,,,>,Face,,,,,1,,,,,,,o
9,10,Presentation,0,00882960530fa_sunaknlirqjqiwbbeeg.jpg,00218940128fa_sunabbwggenhfbftyvi.jpg,00882960530fa.jpg,sunaknlirqjqiwbbeeg.jpg,00218940128fa.jpg,sunabbwggenhfbftyvi.jpg,,,>,Face,,,,,1,,,,,,,o
10,10,Memory,0,,,,,,,00130931230fa.jpg,,,,,,,,,,,,,,,
11,10,Memory,0,,,,,,,00140931230fb.jpg,,,,,,,,,,,,,,,
12,10,Memory,0,,,,,,,00827940307fa.jpg,,,,,,,,,,,,,,,
13,10,Memory,0,,,,,,,00882960530fa.jpg,,,,,,,,,,,,,,,
14,10,Memory,0,,,,,,,sunagtumacdlmciqamz.jpg,,,,,,,,,,,,,,,
15,10,Memory,0,,,,,,,sunabqowuarvqqcnipn.jpg,,,,,,,,,,,,,,,
16,10,Memory,0,,,,,,,00290940422fa.jpg,,,,,,,,,,,,,,,
17,10,Memory,0,,,,,,,sunaamvxnvouicstkjb.jpg,,,,,,,,,,,,,,,
18,10,Memory,0,,,,,,,00749941201fa.jpg,,,,,,,,,,,,,,,
19,10,Memory,0,,,,,,,sunaeuvjbmdpknaqqaj.jpg,,,,,,,,,,,,,,,
20,10,Memory,0,,,,,,,00947960627fa.jpg,,,,,,,,,,,,,,,
21,10,Memory,0,,,,,,,sunaknlirqjqiwbbeeg.jpg,,,,,,,,,,,,,,,
22,10,Memory,0,,,,,,,sunbagfpovqwbuexqdn.jpg,,,,,,,,,,,,,,,
23,10,Memory,0,,,,,,,sunaathajvxrgptwhoj.jpg,,,,,,,,,,,,,,,
24,10,Memory,0,,,,,,,sunaapllqyqlykszopd.jpg,,,,,,,,,,,,,,,
25,10,Memory,0,,,,,,,00763941205fa.jpg,,,,,,,,,,,,,,,
26,10,Memory,0,,,,,,,sunahtfxgsrmkiulnwk.jpg,,,,,,,,,,,,,,,
27,10,Memory,0,,,,,,,00793941205fa.jpg,,,,,,,,,,,,,,,
28,10,Memory,0,,,,,,,00775941205fa.jpg,,,,,,,,,,,,,,,
29,10,Memory,0,,,,,,,00795941205fa.jpg,,,,,,,,,,,,,,,
30,10,Memory,0,,,,,,,sunagutjvdvnhxejerz.jpg,,,,,,,,,,,,,,,
31,10,Memory,0,,,,,,,sunafhmnhsdurlvddpw.jpg,,,,,,,,,,,,,,,
32,10,Memory,0,,,,,,,sunalcrtwiycqobgelp.jpg,,,,,,,,,,,,,,,
33,10,Memory,0,,,,,,,sunakodkcslgqhqlgwl.jpg,,,,,,,,,,,,,,,
34,10,Memory,0,,,,,,,sunasmmcxdddtmtazwx.jpg,,,,,,,,,,,,,,,
35,10,Memory,0,,,,,,,00973960627fa.jpg,,,,,,,,,,,,,,,
36,10,Memory,0,,,,,,,sunadcphrizvfpljiqt.jpg,,,,,,,,,,,,,,,
37,10,Memory,0,,,,,,,00968960627fa.jpg,,,,,,,,,,,,,,,
38,10,Memory,0,,,,,,,00144931230fb.jpg,,,,,,,,,,,,,,,
39,10,Memory,0,,,,,,,sunafvwfsmqkjrutjta.jpg,,,,,,,,,,,,,,,
40,10,Memory,0,,,,,,,00887960530.jpg,,,,,,,,,,,,,,,
41,10,Memory,0,,,,,,,sunaeisnjeetzmkbuad.jpg,,,,,,,,,,,,,,,
42,10,Memory,0,,,,,,,00800941205fb.jpg,,,,,,,,,,,,,,,
43,10,Memory,0,,,,,,,00727941205fa.jpg,,,,,,,,,,,,,,,
44,10,Memory,0,,,,,,,00634940928fa.jpg,,,,,,,,,,,,,,,
45,10,Memory,0,,,,,,,sunbbgtoeuzierkkajt.jpg,,,,,,,,,,,,,,,
46,10,Memory,0,,,,,,,sunagvjurcwdbixvnyi.jpg,,,,,,,,,,,,,,,
47,10,Memory,0,,,,,,,00884960530fa.jpg,,,,,,,,,,,,,,,
48,10,Memory,0,,,,,,,00799941205fa.jpg,,,,,,,,,,,,,,,
49,10,Memory,0,,,,,,,sunagtjwilqjvxohypn.jpg,,,,,,,,,,,,,,,
50,10,Presentation,1,00783941205fa_sunagjeesomrwjsfqie.jpg,00776941205fa_sunafxokyavhgptyfye.jpg,00783941205fa.jpg,sunagjeesomrwjsfqie.jpg,00776941205fa.jpg,sunafxokyavhgptyfye.jpg,,,<,Place,,,,,1,,,,,,,x
51,10,Presentation,1,00096931230fa_sunaaiqiqcggrskoqgy.jpg,00136931230fb_sunaanptmsknhirrzed.jpg,00096931230fa.jpg,sunaaiqiqcggrskoqgy.jpg,00136931230fb.jpg,sunaanptmsknhirrzed.jpg,,,<,Place,,,,,0,,,,,,,x
52,10,Presentation,1,00138931230fa_sunaapfaivxqoynnwwp.jpg,00069931230fb_sunaaeowapdkwzqpgqr.jpg,00138931230fa.jpg,sunaapfaivxqoynnwwp.jpg,00069931230fb.jpg,sunaaeowapdkwzqpgqr.jpg,,,<,Place,,,,,0,,,,,,,x
53,10,Presentation,1,00670941121fa_sunadochqcucscehsgk.jpg,00108960530fa_sunaajtnvzzpsjdzres.jpg,00670941121fa.jpg,sunadochqcucscehsgk.jpg,00108960530fa.jpg,sunaajtnvzzpsjdzres.jpg,,,<,Place,,,,,1,,,,,,,o
54,10,Presentation,1,00869940307fa_sunajoveqhiprwqgoco.jpg,00481940519fa_sunabxsuqbleluwczoy.jpg,00869940307fa.jpg,sunajoveqhiprwqgoco.jpg,00481940519fa.jpg,sunabxsuqbleluwczoy.jpg,,,<,Place,,,,,1,,,,,,,x
55,10,Presentation,1,00098931230fa_sunaajpqmulidejvjsr.jpg,00860940307fa_sunaizeyhvjzknwjudw.jpg,00098931230fa.jpg,sunaajpqmulidejvjsr.jpg,00860940307fa.jpg,sunaizeyhvjzknwjudw.jpg,,,<,Place,,,,,1,,,,,,,x
56,10,Presentation,1,00811960530fa_sunahedfrhtcwpneund.jpg,00878960530fa_sunakgbnzxmfohgehnu.jpg,00811960530fa.jpg,sunahedfrhtcwpneund.jpg,00878960530fa.jpg,sunakgbnzxmfohgehnu.jpg,,,<,Place,,,,,1,,,,,,,o
57,10,Presentation,1,00825940307fa_sunahrltmuwbiehihpe.jpg,00543940519fa_sunacepzfrmtkiqonpy.jpg,00825940307fa.jpg,sunahrltmuwbiehihpe.jpg,00543940519fa.jpg,sunacepzfrmtkiqonpy.jpg,,,<,Place,,,,,1,,,,,,,o
58,10,Presentation,1,00752960620fa_sunafbwnojpqeyzssoe.jpg,00979960627fa_sunbdycacjfaujxitbw.jpg,00752960620fa.jpg,sunafbwnojpqeyzssoe.jpg,00979960627fa.jpg,sunbdycacjfaujxitbw.jpg,,,<,Place,,,,,1,,,,,,,o
59,10,Presentation,1,00854940307fa_sunaiwduelojtwaqeyh.jpg,00559940519fa_sunacjkmnpawfzbyvae.jpg,00854940307fa.jpg,sunaiwduelojtwaqeyh.jpg,00559940519fa.jpg,sunacjkmnpawfzbyvae.jpg,,,<,Place,,,,,1,,,,,,,x
60,10,Memory,1,,,,,,,sunaeoghzrjarigmwua.jpg,,,,,,,,,,,,,,,
61,10,Memory,1,,,,,,,sunahrltmuwbiehihpe.jpg,,,,,,,,,,,,,,,
62,10,Memory,1,,,,,,,00854940307fa.jpg,,,,,,,,,,,,,,,
63,10,Memory,1,,,,,,,sunbbfqwjpdxniyhies.jpg,,,,,,,,,,,,,,,
64,10,Memory,1,,,,,,,00481940519fa.jpg,,,,,,,,,,,,,,,
65,10,Memory,1,,,,,,,sunaajqmsaavkmgbsth.jpg,,,,,,,,,,,,,,,
66,10,Memory,1,,,,,,,sunbxarcshsnqsefemx.jpg,,,,,,,,,,,,,,,
67,10,Memory,1,,,,,,,00543940519fa.jpg,,,,,,,,,,,,,,,
68,10,Memory,1,,,,,,,00743941201fa.jpg,,,,,,,,,,,,,,,
69,10,Memory,1,,,,,,,sunabyvpwkgsjtijdwj.jpg,,,,,,,,,,,,,,,
70,10,Memory,1,,,,,,,sunahedfrhtcwpneund.jpg,,,,,,,,,,,,,,,
71,10,Memory,1,,,,,,,00839940307fa.jpg,,,,,,,,,,,,,,,
72,10,Memory,1,,,,,,,sunaipyohrqlwngaqif.jpg,,,,,,,,,,,,,,,
73,10,Memory,1,,,,,,,00972960627fa.jpg,,,,,,,,,,,,,,,
74,10,Memory,1,,,,,,,sunaiwduelojtwaqeyh.jpg,,,,,,,,,,,,,,,
75,10,Memory,1,,,,,,,00483940519fa.jpg,,,,,,,,,,,,,,,
76,10,Memory,1,,,,,,,00811960530fa.jpg,,,,,,,,,,,,,,,
77,10,Memory,1,,,,,,,sunacxtcahkymosigud.jpg,,,,,,,,,,,,,,,
78,10,Memory,1,,,,,,,00878960530fa.jpg,,,,,,,,,,,,,,,
79,10,Memory,1,,,,,,,00096931230fa.jpg,,,,,,,,,,,,,,,
80,10,Memory,1,,,,,,,00101931230fb.jpg,,,,,,,,,,,,,,,
81,10,Memory,1,,,,,,,sunbmaiocftdtvnzgap.jpg,,,,,,,,,,,,,,,
82,10,Memory,1,,,,,,,sunaajpqmulidejvjsr.jpg,,,,,,,,,,,,,,,
83,10,Memory,1,,,,,,,sunacepzfrmtkiqonpy.jpg,,,,,,,,,,,,,,,
84,10,Memory,1,,,,,,,sunabxsuqbleluwczoy.jpg,,,,,,,,,,,,,,,
85,10,Memory,1,,,,,,,sunaavtbadenwnzeutj.jpg,,,,,,,,,,,,,,,
86,10,Memory,1,,,,,,,00184940128fa.jpg,,,,,,,,,,,,,,,
87,10,Memory,1,,,,,,,00098931230fa.jpg,,,,,,,,,,,,,,,
88,10,Memory,1,,,,,,,00825940307fa.jpg,,,,,,,,,,,,,,,
89,10,Memory,1,,,,,,,00598941031fa.jpg,,,,,,,,,,,,,,,
90,10,Memory,1,,,,,,,sunakgbnzxmfohgehnu.jpg,,,,,,,,,,,,,,,
91,10,Memory,1,,,,,,,00791941205fa.jpg,,,,,,,,,,,,,,,
92,10,Memory,1,,,,,,,sunagrmyoovzukhxmlo.jpg,,,,,,,,,,,,,,,
93,10,Memory,1,,,,,,,sunaaeowapdkwzqpgqr.jpg,,,,,,,,,,,,,,,
94,10,Memory,1,,,,,,,00988960627fa.jpg,,,,,,,,,,,,,,,
95,10,Memory,1,,,,,,,00776941205fa.jpg,,,,,,,,,,,,,,,
96,10,Memory,1,,,,,,,sunafxokyavhgptyfye.jpg,,,,,,,,,,,,,,,
97,10,Memory,1,,,,,,,00069931230fb.jpg,,,,,,,,,,,,,,,
98,10,Memory,1,,,,,,,sunaaiqiqcggrskoqgy.jpg,,,,,,,,,,,,,,,
99,10,Memory,1,,,,,,,01007960627fa.jpg,,,,,,,,,,,,,,,
100,10,Presentation,2,00262940128fa_sunabizydfotqddlnjp.jpg,00989960627fa_sunbondbduabvijnmch.jpg,00262940128fa.jpg,sunabizydfotqddlnjp.jpg,00989960627fa.jpg,sunbondbduabvijnmch.jpg,,,>,Face,,,,,1,,,,,,,o
101,10,Presentation,2,00197940128fa_sunaaylzyqlqrsmfwif.jpg,00938960627fa_sunaqyylsngywqzwfmx.jpg,00197940128fa.jpg,sunaaylzyqlqrsmfwif.jpg,00938960627fa.jpg,sunaqyylsngywqzwfmx.jpg,,,>,Face,,,,,1,,,,,,,x
102,10,Presentation,2,00681941121fa_sunadqmjrhfjyuzyvdd.jpg,00245940128fa_sunabeyhmxodahoieyk.jpg,00681941121fa.jpg,sunadqmjrhfjyuzyvdd.jpg,00245940128fa.jpg,sunabeyhmxodahoieyk.jpg,,,>,Face,,,,,1,,,,,,,o
103,10,Presentation,2,00191940128fb_sunaawsdjisukbbginm.jpg,01005960627fa_sunbwyuesflwdpqtgoy.jpg,00191940128fb.jpg,sunaawsdjisukbbginm.jpg,01005960627fa.jpg,sunbwyuesflwdpqtgoy.jpg,,,>,Face,,,,,1,,,,,,,x
104,10,Presentation,2,00294940422fb_sunabrlndkruqokhury.jpg,00482940519fa_sunabyfxcxhdebvdyfd.jpg,00294940422fb.jpg,sunabrlndkruqokhury.jpg,00482940519fa.jpg,sunabyfxcxhdebvdyfd.jpg,,,>,Face,,,,,1,,,,,,,x
105,10,Presentation,2,00970960627fa_sunbasypfgzjtomktmu.jpg,00210940128fb_sunabanoxjtqxamkucc.jpg,00970960627fa.jpg,sunbasypfgzjtomktmu.jpg,00210940128fb.jpg,sunabanoxjtqxamkucc.jpg,,,>,Face,,,,,0,,,,,,,o
106,10,Presentation,2,00969960627fa_sunbaoizrfijvhpnnjn.jpg,00557940519fa_sunachtuarilwyqnvjx.jpg,00969960627fa.jpg,sunbaoizrfijvhpnnjn.jpg,00557940519fa.jpg,sunachtuarilwyqnvjx.jpg,,,>,Face,,,,,1,,,,,,,o
107,10,Presentation,2,00848940307fa_sunaivdylrawbmhryfp.jpg,00816941205fa_sunahmhrncocyhsjpxk.jpg,00848940307fa.jpg,sunaivdylrawbmhryfp.jpg,00816941205fa.jpg,sunahmhrncocyhsjpxk.jpg,,,>,Face,,,,,1,,,,,,,x
108,10,Presentation,2,00910960530fa_sunaofikylqtxphvdem.jpg,00097931230fa_sunaajayojuslbbnneg.jpg,00910960530fa.jpg,sunaofikylqtxphvdem.jpg,00097931230fa.jpg,sunaajayojuslbbnneg.jpg,,,>,Face,,,,,1,,,,,,,o
109,10,Presentation,2,00829940307fa_sunahwgbqkqcrwprgvh.jpg,00993960627fa_sunbprywzqxjcezkbch.jpg,00829940307fa.jpg,sunahwgbqkqcrwprgvh.jpg,00993960627fa.jpg,sunbprywzqxjcezkbch.jpg,,,>,Face,,,,,0,,,,,,,o
110,10,Memory,2,,,,,,,sunabizydfotqddlnjp.jpg,,,,,,,,,,,,,,,
111,10,Memory,2,,,,,,,00990960627fa.jpg,,,,,,,,,,,,,,,
112,10,Memory,2,,,,,,,00784941205fb.jpg,,,,,,,,,,,,,,,
113,10,Memory,2,,,,,,,sunaatpkocdkocwxpkb.jpg,,,,,,,,,,,,,,,
114,10,Memory,2,,,,,,,00970960627fa.jpg,,,,,,,,,,,,,,,
115,10,Memory,2,,,,,,,sunaqyylsngywqzwfmx.jpg,,,,,,,,,,,,,,,
116,10,Memory,2,,,,,,,sunagfvluwixdsozaql.jpg,,,,,,,,,,,,,,,
117,10,Memory,2,,,,,,,sunbpflsdaxnddnwcqi.jpg,,,,,,,,,,,,,,,
118,10,Memory,2,,,,,,,sunaecpkgfewqqreqwe.jpg,,,,,,,,,,,,,,,
119,10,Memory,2,,,,,,,sunahwgbqkqcrwprgvh.jpg,,,,,,,,,,,,,,,
120,10,Memory,2,,,,,,,sunaakxgygjfqrzpyoz.jpg,,,,,,,,,,,,,,,
121,10,Memory,2,,,,,,,sunathzzbcwjykldrem.jpg,,,,,,,,,,,,,,,
122,10,Memory,2,,,,,,,00829940307fa.jpg,,,,,,,,,,,,,,,
123,10,Memory,2,,,,,,,00185940422fb.jpg,,,,,,,,,,,,,,,
124,10,Memory,2,,,,,,,00262940128fa.jpg,,,,,,,,,,,,,,,
125,10,Memory,2,,,,,,,00147931230fb.jpg,,,,,,,,,,,,,,,
126,10,Memory,2,,,,,,,00938960627fa.jpg,,,,,,,,,,,,,,,
127,10,Memory,2,,,,,,,sunacvjlsylseoghjup.jpg,,,,,,,,,,,,,,,
128,10,Memory,2,,,,,,,00720960620fa.jpg,,,,,,,,,,,,,,,
129,10,Memory,2,,,,,,,sunagjzcrjvmxzqzljx.jpg,,,,,,,,,,,,,,,
130,10,Memory,2,,,,,,,sunbaoizrfijvhpnnjn.jpg,,,,,,,,,,,,,,,
131,10,Memory,2,,,,,,,sunbasypfgzjtomktmu.jpg,,,,,,,,,,,,,,,
132,10,Memory,2,,,,,,,sunaivdylrawbmhryfp.jpg,,,,,,,,,,,,,,,
133,10,Memory,2,,,,,,,sunagpjzsbltchlwvou.jpg,,,,,,,,,,,,,,,
134,10,Memory,2,,,,,,,sunaajayojuslbbnneg.jpg,,,,,,,,,,,,,,,
135,10,Memory,2,,,,,,,00097931230fa.jpg,,,,,,,,,,,,,,,
136,10,Memory,2,,,,,,,00816941205fa.jpg,,,,,,,,,,,,,,,
137,10,Memory,2,,,,,,,sunahmhrncocyhsjpxk.jpg,,,,,,,,,,,,,,,
138,10,Memory,2,,,,,,,sunabanoxjtqxamkucc.jpg,,,,,,,,,,,,,,,
139,10,Memory,2,,,,,,,sunaawqdbpihmlbwyyn.jpg,,,,,,,,,,,,,,,
140,10,Memory,2,,,,,,,00782941205fa.jpg,,,,,,,,,,,,,,,
141,10,Memory,2,,,,,,,sunabyfxcxhdebvdyfd.jpg,,,,,,,,,,,,,,,
142,10,Memory,2,,,,,,,00848940307fa.jpg,,,,,,,,,,,,,,,
143,10,Memory,2,,,,,,,00482940519fa.jpg,,,,,,,,,,,,,,,
144,10,Memory,2,,,,,,,00576941031fa.jpg,,,,,,,,,,,,,,,
145,10,Memory,2,,,,,,,00969960627fa.jpg,,,,,,,,,,,,,,,
146,10,Memory,2,,,,,,,00952960627fa.jpg,,,,,,,,,,,,,,,
147,10,Memory,2,,,,,,,00790941205fa.jpg,,,,,,,,,,,,,,,
148,10,Memory,2,,,,,,,00120931230fa.jpg,,,,,,,,,,,,,,,
149,10,Memory,2,,,,,,,00210940128fb.jpg,,,,,,,,,,,,,,,
150,10,Presentation,3,00926960627Fa_sunapqwoeotxshkukbh.jpg,00076931230fa_sunaafewhewbxmjiurz.jpg,00926960627Fa.jpg,sunapqwoeotxshkukbh.jpg,00076931230fa.jpg,sunaafewhewbxmjiurz.jpg,,,<,Face,,,,,1,,,,,,,x
151,10,Presentation,3,00725941201fa_sunaefgzwiramypjvtd.jpg,00828940307fa_sunahuynahneraqftyz.jpg,00725941201fa.jpg,sunaefgzwiramypjvtd.jpg,00828940307fa.jpg,sunahuynahneraqftyz.jpg,,,<,Face,,,,,0,,,,,,,o
152,10,Presentation,3,00089931230fa_sunaagcpoejbuzyvddd.jpg,00730960620fa_sunaekgzpfilgjxpeyq.jpg,00089931230fa.jpg,sunaagcpoejbuzyvddd.jpg,00730960620fa.jpg,sunaekgzpfilgjxpeyq.jpg,,,<,Face,,,,,1,,,,,,,x
153,10,Presentation,3,00978960627fa_sunbddbivbptlrlauhy.jpg,00265940128fb_sunabkmdplkdbvxriff.jpg,00978960627fa.jpg,sunbddbivbptlrlauhy.jpg,00265940128fb.jpg,sunabkmdplkdbvxriff.jpg,,,<,Face,,,,,1,,,,,,,o
154,10,Presentation,3,00937960627fa_sunaqsolmfydodnakub.jpg,00788941205fa_sunagountlxpzkytsmp.jpg,00937960627fa.jpg,sunaqsolmfydodnakub.jpg,00788941205fa.jpg,sunagountlxpzkytsmp.jpg,,,<,Face,,,,,1,,,,,,,x
155,10,Presentation,3,00650941031fa_sunadikxpvqeabxrvvc.jpg,00810941205fa_sunahctntqrunhdxhtb.jpg,00650941031fa.jpg,sunadikxpvqeabxrvvc.jpg,00810941205fa.jpg,sunahctntqrunhdxhtb.jpg,,,<,Face,,,,,1,,,,,,,x
156,10,Presentation,3,00796941205fa_sunaguchqqnrtodtezq.jpg,00751960620fa_sunaezuszgtxnmsxdbk.jpg,00796941205fa.jpg,sunaguchqqnrtodtezq.jpg,00751960620fa.jpg,sunaezuszgtxnmsxdbk.jpg,,,<,Face,,,,,1,,,,,,,x
157,10,Presentation,3,00700941121fa_sunadsgmtznewzyasnk.jpg,00061931230fb_sunaaekxzjzrfgtkwjf.jpg,00700941121fa.jpg,sunadsgmtznewzyasnk.jpg,00061931230fb.jpg,sunaaekxzjzrfgtkwjf.jpg,,,<,Face,,,,,1,,,,,,,o
158,10,Presentation,3,00950960627fa_sunasrjlmglmjzbmqxb.jpg,00809960620fa_sunahbvlpavurqoxdeq.jpg,00950960627fa.jpg,sunasrjlmglmjzbmqxb.jpg,00809960620fa.jpg,sunahbvlpavurqoxdeq.jpg,,,<,Face,,,,,1,,,,,,,x
159,10,Presentation,3,00963960627fa_sunayaepykrqvenaqqy.jpg,00939960627fa_sunarceibpcyacbmfga.jpg,00963960627fa.jpg,sunayaepykrqvenaqqy.jpg,00939960627fa.jpg,sunarceibpcyacbmfga.jpg,,,<,Face,,,,,1,,,,,,,o
160,10,Memory,3,,,,,,,00828940307fa.jpg,,,,,,,,,,,,,,,
161,10,Memory,3,,,,,,,sunaaeplwsfslcbtojr.jpg,,,,,,,,,,,,,,,
162,10,Memory,3,,,,,,,00111931230fb.jpg,,,,,,,,,,,,,,,
163,10,Memory,3,,,,,,,00700941121fa.jpg,,,,,,,,,,,,,,,
164,10,Memory,3,,,,,,,00076931230fa.jpg,,,,,,,,,,,,,,,
165,10,Memory,3,,,,,,,sunasrjlmglmjzbmqxb.jpg,,,,,,,,,,,,,,,
166,10,Memory,3,,,,,,,sunarceibpcyacbmfga.jpg,,,,,,,,,,,,,,,
167,10,Memory,3,,,,,,,sunaefgzwiramypjvtd.jpg,,,,,,,,,,,,,,,
168,10,Memory,3,,,,,,,sunagountlxpzkytsmp.jpg,,,,,,,,,,,,,,,
169,10,Memory,3,,,,,,,00070940307fa.jpg,,,,,,,,,,,,,,,
170,10,Memory,3,,,,,,,00926960627Fa.jpg,,,,,,,,,,,,,,,
171,10,Memory,3,,,,,,,00773960620fa.jpg,,,,,,,,,,,,,,,
172,10,Memory,3,,,,,,,sunagpancjmxqfazssf.jpg,,,,,,,,,,,,,,,
173,10,Memory,3,,,,,,,00788941205fa.jpg,,,,,,,,,,,,,,,
174,10,Memory,3,,,,,,,sunbbegcweqnetpdlrh.jpg,,,,,,,,,,,,,,,
175,10,Memory,3,,,,,,,00939960627fa.jpg,,,,,,,,,,,,,,,
176,10,Memory,3,,,,,,,sunaamsdyakblkfoydx.jpg,,,,,,,,,,,,,,,
177,10,Memory,3,,,,,,,00127931230fa.jpg,,,,,,,,,,,,,,,
178,10,Memory,3,,,,,,,sunadikxpvqeabxrvvc.jpg,,,,,,,,,,,,,,,
179,10,Memory,3,,,,,,,sunapqwoeotxshkukbh.jpg,,,,,,,,,,,,,,,
180,10,Memory,3,,,,,,,00942960627fa.jpg,,,,,,,,,,,,,,,
181,10,Memory,3,,,,,,,sunahbvlpavurqoxdeq.jpg,,,,,,,,,,,,,,,
182,10,Memory,3,,,,,,,00809960620fa.jpg,,,,,,,,,,,,,,,
183,10,Memory,3,,,,,,,sunaafewhewbxmjiurz.jpg,,,,,,,,,,,,,,,
184,10,Memory,3,,,,,,,00971960627fa.jpg,,,,,,,,,,,,,,,
185,10,Memory,3,,,,,,,00725941201fa.jpg,,,,,,,,,,,,,,,
186,10,Memory,3,,,,,,,00129931230fb.jpg,,,,,,,,,,,,,,,
187,10,Memory,3,,,,,,,sunafvsxtzaizojicxx.jpg,,,,,,,,,,,,,,,
188,10,Memory,3,,,,,,,00950960627fa.jpg,,,,,,,,,,,,,,,
189,10,Memory,3,,,,,,,00719960620fa.jpg,,,,,,,,,,,,,,,
190,10,Memory,3,,,,,,,sunaakqepfoeqomfgxf.jpg,,,,,,,,,,,,,,,
191,10,Memory,3,,,,,,,sunadzuvtmtmgupotmf.jpg,,,,,,,,,,,,,,,
192,10,Memory,3,,,,,,,00116931230fa.jpg,,,,,,,,,,,,,,,
193,10,Memory,3,,,,,,,sunarfdklgdnjgeqfjg.jpg,,,,,,,,,,,,,,,
194,10,Memory,3,,,,,,,00789960620fa.jpg,,,,,,,,,,,,,,,
195,10,Memory,3,,,,,,,sunaampvucecsfbdafn.jpg,,,,,,,,,,,,,,,
196,10,Memory,3,,,,,,,sunadsgmtznewzyasnk.jpg,,,,,,,,,,,,,,,
197,10,Memory,3,,,,,,,sunaakgekhjklxmvulj.jpg,,,,,,,,,,,,,,,
198,10,Memory,3,,,,,,,00650941031fa.jpg,,,,,,,,,,,,,,,
199,10,Memory,3,,,,,,,sunahuynahneraqftyz.jpg,,,,,,,,,,,,,,,
200,10,Presentation,4,00847940307fa_sunaivdjruhkrfywfed.jpg,00753941201fa_sunafcofuuzebuadceo.jpg,00847940307fa.jpg,sunaivdjruhkrfywfed.jpg,00753941201fa.jpg,sunafcofuuzebuadceo.jpg,,,>,Place,,,,,1,,,,,,,x
201,10,Presentation,4,00965960627fa_sunaydywdmvlfddbxbk.jpg,00794960620fa_sunagtqhhwxjeuxdebe.jpg,00965960627fa.jpg,sunaydywdmvlfddbxbk.jpg,00794960620fa.jpg,sunagtqhhwxjeuxdebe.jpg,,,>,Place,,,,,1,,,,,,,o
202,10,Presentation,4,00804960530fa_sunagwswhkvnsmuszlz.jpg,00564941031fa_sunacsaovnjezqwbykf.jpg,00804960530fa.jpg,sunagwswhkvnsmuszlz.jpg,00564941031fa.jpg,sunacsaovnjezqwbykf.jpg,,,>,Place,,,,,1,,,,,,,o
203,10,Presentation,4,01011960627fa_sundahdxwmcdluscvot.jpg,00893960530Fa_sunaloffvbvysigxent.jpg,01011960627fa.jpg,sundahdxwmcdluscvot.jpg,00893960530Fa.jpg,sunaloffvbvysigxent.jpg,,,>,Place,,,,,1,,,,,,,o
204,10,Presentation,4,00638941031fa_sunadfktsqjthoglcsm.jpg,00082931230fa_sunaafvitpexrpvumsa.jpg,00638941031fa.jpg,sunadfktsqjthoglcsm.jpg,00082931230fa.jpg,sunaafvitpexrpvumsa.jpg,,,>,Place,,,,,1,,,,,,,x
205,10,Presentation,4,00787941205fa_sunagmwxxwymwojbvgi.jpg,00158931230fb_sunaavchcbptaerhcfy.jpg,00787941205fa.jpg,sunagmwxxwymwojbvgi.jpg,00158931230fb.jpg,sunaavchcbptaerhcfy.jpg,,,>,Place,,,,,1,,,,,,,o
206,10,Presentation,4,00086931230fa_sunaafynehyrzpsoaml.jpg,00959960627fa_sunavxokzybtomhbmvm.jpg,00086931230fa.jpg,sunaafynehyrzpsoaml.jpg,00959960627fa.jpg,sunavxokzybtomhbmvm.jpg,,,>,Place,,,,,1,,,,,,,o
207,10,Presentation,4,00929960627fa_sunaprnrbmgkomdbchr.jpg,00803941205fa_sunagvxkjokqimstxpe.jpg,00929960627fa.jpg,sunaprnrbmgkomdbchr.jpg,00803941205fa.jpg,sunagvxkjokqimstxpe.jpg,,,>,Place,,,,,1,,,,,,,x
208,10,Presentation,4,00153931230fa_sunaauhozyxzeeqstxi.jpg,00987960627fa_sunbloeoiozwjjsiamp.jpg,00153931230fa.jpg,sunaauhozyxzeeqstxi.jpg,00987960627fa.jpg,sunbloeoiozwjjsiamp.jpg,,,>,Place,,,,,1,,,,,,,x
209,10,Presentation,4,00949960627fb_sunasnqkkyhilqkxiqm.jpg,00858940307fa_sunaixpqndlwhwjtjek.jpg,00949960627fb.jpg,sunasnqkkyhilqkxiqm.jpg,00858940307fa.jpg,sunaixpqndlwhwjtjek.jpg,,,>,Place,,,,,1,,,,,,,x
210,10,Memory,4,,,,,,,sunabueyoajufbkraki.jpg,,,,,,,,,,,,,,,
211,10,Memory,4,,,,,,,00306940422fa.jpg,,,,,,,,,,,,,,,
212,10,Memory,4,,,,,,,00122931230fa.jpg,,,,,,,,,,,,,,,
213,10,Memory,4,,,,,,,sunacvbrcejzwmcgnoq.jpg,,,,,,,,,,,,,,,
214,10,Memory,4,,,,,,,sunagmwxxwymwojbvgi.jpg,,,,,,,,,,,,,,,
215,10,Memory,4,,,,,,,00787941205fa.jpg,,,,,,,,,,,,,,,
216,10,Memory,4,,,,,,,00794960620fa.jpg,,,,,,,,,,,,,,,
217,10,Memory,4,,,,,,,sunauburywlkjszngcq.jpg,,,,,,,,,,,,,,,
218,10,Memory,4,,,,,,,00984960627fa.jpg,,,,,,,,,,,,,,,
219,10,Memory,4,,,,,,,00316940422fa.jpg,,,,,,,,,,,,,,,
220,10,Memory,4,,,,,,,sunadflbrkckmepztql.jpg,,,,,,,,,,,,,,,
221,10,Memory,4,,,,,,,00705960530fa.jpg,,,,,,,,,,,,,,,
222,10,Memory,4,,,,,,,sunavxokzybtomhbmvm.jpg,,,,,,,,,,,,,,,
223,10,Memory,4,,,,,,,00929960627fa.jpg,,,,,,,,,,,,,,,
224,10,Memory,4,,,,,,,00774941201fa.jpg,,,,,,,,,,,,,,,
225,10,Memory,4,,,,,,,sunacsaovnjezqwbykf.jpg,,,,,,,,,,,,,,,
226,10,Memory,4,,,,,,,00638941031fa.jpg,,,,,,,,,,,,,,,
227,10,Memory,4,,,,,,,00124931230fa.jpg,,,,,,,,,,,,,,,
228,10,Memory,4,,,,,,,00959960627fa.jpg,,,,,,,,,,,,,,,
229,10,Memory,4,,,,,,,sunaduslxfzlbxlllnz.jpg,,,,,,,,,,,,,,,
230,10,Memory,4,,,,,,,sunaivdjruhkrfywfed.jpg,,,,,,,,,,,,,,,
231,10,Memory,4,,,,,,,sunaixpqndlwhwjtjek.jpg,,,,,,,,,,,,,,,
232,10,Memory,4,,,,,,,sunaakxjfbrrequcjmx.jpg,,,,,,,,,,,,,,,
233,10,Memory,4,,,,,,,00847940307fa.jpg,,,,,,,,,,,,,,,
234,10,Memory,4,,,,,,,00574940928fa.jpg,,,,,,,,,,,,,,,
235,10,Memory,4,,,,,,,sunaprnrbmgkomdbchr.jpg,,,,,,,,,,,,,,,
236,10,Memory,4,,,,,,,00647941031fa.jpg,,,,,,,,,,,,,,,
237,10,Memory,4,,,,,,,00858940307fa.jpg,,,,,,,,,,,,,,,
238,10,Memory,4,,,,,,,sunafvtpfczkzopbgue.jpg,,,,,,,,,,,,,,,
239,10,Memory,4,,,,,,,sunaavchcbptaerhcfy.jpg,,,,,,,,,,,,,,,
240,10,Memory,4,,,,,,,sunabxmguapjekttvwm.jpg,,,,,,,,,,,,,,,
241,10,Memory,4,,,,,,,00804960530fa.jpg,,,,,,,,,,,,,,,
242,10,Memory,4,,,,,,,sunagwswhkvnsmuszlz.jpg,,,,,,,,,,,,,,,
243,10,Memory,4,,,,,,,00564941031fa.jpg,,,,,,,,,,,,,,,
244,10,Memory,4,,,,,,,00955960627fb.jpg,,,,,,,,,,,,,,,
245,10,Memory,4,,,,,,,sunagtqhhwxjeuxdebe.jpg,,,,,,,,,,,,,,,
246,10,Memory,4,,,,,,,sunaalhlvzmjmitybdn.jpg,,,,,,,,,,,,,,,
247,10,Memory,4,,,,,,,00158931230fb.jpg,,,,,,,,,,,,,,,
248,10,Memory,4,,,,,,,sunbfzchmomnvzhbxdg.jpg,,,,,,,,,,,,,,,
249,10,Memory,4,,,,,,,sunadfktsqjthoglcsm.jpg,,,,,,,,,,,,,,,
250,10,Presentation,5,00819940307fa_sunahqldjibofgsfdgb.jpg,00953960627fa_sunatstrpjxhvtbaczf.jpg,00819940307fa.jpg,sunahqldjibofgsfdgb.jpg,00953960627fa.jpg,sunatstrpjxhvtbaczf.jpg,,,<,Face,,,,,1,,,,,,,o
251,10,Presentation,5,00771941205fa_sunafowswglhxcsufpo.jpg,00943960627fa_sunarpsxqkduedrrzyi.jpg,00771941205fa.jpg,sunafowswglhxcsufpo.jpg,00943960627fa.jpg,sunarpsxqkduedrrzyi.jpg,,,<,Face,,,,,1,,,,,,,o
252,10,Presentation,5,00598940928fa_sunacxeheuiigkcgquf.jpg,00112931230fa_sunaakjaacuzulqckgl.jpg,00598940928fa.jpg,sunacxeheuiigkcgquf.jpg,00112931230fa.jpg,sunaakjaacuzulqckgl.jpg,,,<,Face,,,,,0,,,,,,,o
253,10,Presentation,5,00985960627fa_sunbgklxeqjhdbyfhhy.jpg,00648941031fa_sunadfndyrtqqiasoig.jpg,00985960627fa.jpg,sunbgklxeqjhdbyfhhy.jpg,00648941031fa.jpg,sunadfndyrtqqiasoig.jpg,,,<,Face,,,,,1,,,,,,,o
254,10,Presentation,5,00958960627fa_sunavspxmxubqaeidjt.jpg,00889960530fa_sunaletopenvvozhpxc.jpg,00958960627fa.jpg,sunavspxmxubqaeidjt.jpg,00889960530fa.jpg,sunaletopenvvozhpxc.jpg,,,<,Face,,,,,1,,,,,,,x
255,10,Presentation,5,00288940422fa_sunabppokiyglaxpcha.jpg,01002960627fb_sunbwaafjdebjzttuvq.jpg,00288940422fa.jpg,sunabppokiyglaxpcha.jpg,01002960627fb.jpg,sunbwaafjdebjzttuvq.jpg,,,<,Face,,,,,1,,,,,,,o
256,10,Presentation,5,00109931230fa_sunaajuzribjrizdshh.jpg,00505960627fa_sunabzuqsrgcsonqlkz.jpg,00109931230fa.jpg,sunaajuzribjrizdshh.jpg,00505960627fa.jpg,sunabzuqsrgcsonqlkz.jpg,,,<,Face,,,,,1,,,,,,,o
257,10,Presentation,5,01207940128fa_sundbixjudsgeuuehrn.jpg,00905960530fa_sunanmoqeyprjjjfxjt.jpg,01207940128fa.jpg,sundbixjudsgeuuehrn.jpg,00905960530fa.jpg,sunanmoqeyprjjjfxjt.jpg,,,<,Face,,,,,1,,,,,,,o
258,10,Presentation,5,00885960530fa_sunakwlvxjpddialozd.jpg,00077931230fb_sunaafgqutfaishsxyu.jpg,00885960530fa.jpg,sunakwlvxjpddialozd.jpg,00077931230fb.jpg,sunaafgqutfaishsxyu.jpg,,,<,Face,,,,,1,,,,,,,x
259,10,Presentation,5,00891960530fa_sunalkiibhqpxfamlll.jpg,00662941121fa_sunadkazmlajmohnwfl.jpg,00891960530fa.jpg,sunalkiibhqpxfamlll.jpg,00662941121fa.jpg,sunadkazmlajmohnwfl.jpg,,,<,Face,,,,,1,,,,,,,x
260,10,Memory,5,,,,,,,00822940307fa.jpg,,,,,,,,,,,,,,,
261,10,Memory,5,,,,,,,sunahqrxievfeusiqlt.jpg,,,,,,,,,,,,,,,
262,10,Memory,5,,,,,,,sunalkiibhqpxfamlll.jpg,,,,,,,,,,,,,,,
263,10,Memory,5,,,,,,,sunbvzmgrdvaakxusbu.jpg,,,,,,,,,,,,,,,
264,10,Memory,5,,,,,,,00505960627fa.jpg,,,,,,,,,,,,,,,
265,10,Memory,5,,,,,,,sunaletopenvvozhpxc.jpg,,,,,,,,,,,,,,,
266,10,Memory,5,,,,,,,00889960530fa.jpg,,,,,,,,,,,,,,,
267,10,Memory,5,,,,,,,sunaffstbkappprzxnv.jpg,,,,,,,,,,,,,,,
268,10,Memory,5,,,,,,,sunapqkyghktgtosuuk.jpg,,,,,,,,,,,,,,,
269,10,Memory,5,,,,,,,00771941205fa.jpg,,,,,,,,,,,,,,,
270,10,Memory,5,,,,,,,sunaafgqutfaishsxyu.jpg,,,,,,,,,,,,,,,
271,10,Memory,5,,,,,,,sunahqldjibofgsfdgb.jpg,,,,,,,,,,,,,,,
272,10,Memory,5,,,,,,,sunanaacmmosxrfwmvl.jpg,,,,,,,,,,,,,,,
273,10,Memory,5,,,,,,,00060931230fa.jpg,,,,,,,,,,,,,,,
274,10,Memory,5,,,,,,,00728941205fa.jpg,,,,,,,,,,,,,,,
275,10,Memory,5,,,,,,,sunaajuzribjrizdshh.jpg,,,,,,,,,,,,,,,
276,10,Memory,5,,,,,,,00662941121fa.jpg,,,,,,,,,,,,,,,
277,10,Memory,5,,,,,,,00288940422fa.jpg,,,,,,,,,,,,,,,
278,10,Memory,5,,,,,,,00760960620fa.jpg,,,,,,,,,,,,,,,
279,10,Memory,5,,,,,,,sunaaehaikpckyjsety.jpg,,,,,,,,,,,,,,,
280,10,Memory,5,,,,,,,sunabzuqsrgcsonqlkz.jpg,,,,,,,,,,,,,,,
281,10,Memory,5,,,,,,,00636941031fa.jpg,,,,,,,,,,,,,,,
282,10,Memory,5,,,,,,,00891960530fa.jpg,,,,,,,,,,,,,,,
283,10,Memory,5,,,,,,,00922960627fa.jpg,,,,,,,,,,,,,,,
284,10,Memory,5,,,,,,,sunaejnvnpltdmhbcsi.jpg,,,,,,,,,,,,,,,
285,10,Memory,5,,,,,,,sunabppokiyglaxpcha.jpg,,,,,,,,,,,,,,,
286,10,Memory,5,,,,,,,00819940307fa.jpg,,,,,,,,,,,,,,,
287,10,Memory,5,,,,,,,00109931230fa.jpg,,,,,,,,,,,,,,,
288,10,Memory,5,,,,,,,sunafowswglhxcsufpo.jpg,,,,,,,,,,,,,,,
289,10,Memory,5,,,,,,,sunaddtdkycxbqlpfqa.jpg,,,,,,,,,,,,,,,
290,10,Memory,5,,,,,,,00631940928fa.jpg,,,,,,,,,,,,,,,
291,10,Memory,5,,,,,,,00902960530fa.jpg,,,,,,,,,,,,,,,
292,10,Memory,5,,,,,,,00943960627fa.jpg,,,,,,,,,,,,,,,
293,10,Memory,5,,,,,,,sunadkazmlajmohnwfl.jpg,,,,,,,,,,,,,,,
294,10,Memory,5,,,,,,,sunawksfbacycuhbrsc.jpg,,,,,,,,,,,,,,,
295,10,Memory,5,,,,,,,01000960627fa.jpg,,,,,,,,,,,,,,,
296,10,Memory,5,,,,,,,00960960627fa.jpg,,,,,,,,,,,,,,,
297,10,Memory,5,,,,,,,sunarpsxqkduedrrzyi.jpg,,,,,,,,,,,,,,,
298,10,Memory,5,,,,,,,00077931230fb.jpg,,,,,,,,,,,,,,,
299,10,Memory,5,,,,,,,sunadbdqzigzwipuipr.jpg,,,,,,,,,,,,,,,
300,10,Presentation,6,00548940519fa_sunacerqowiaeoqkmsq.jpg,00149931230fa_sunaauglwmctnkxyird.jpg,00548940519fa.jpg,sunacerqowiaeoqkmsq.jpg,00149931230fa.jpg,sunaauglwmctnkxyird.jpg,,,<,Place,,,,,1,,,,,,,o
301,10,Presentation,6,00812941205fa_sunahgtbwgsmtqeodwh.jpg,00779941205fa_sunagdzlvkqtpnfxfcg.jpg,00812941205fa.jpg,sunahgtbwgsmtqeodwh.jpg,00779941205fa.jpg,sunagdzlvkqtpnfxfcg.jpg,,,<,Place,,,,,1,,,,,,,o
302,10,Presentation,6,00080931230fb_sunaafjszryxyavjzln.jpg,00933960627fa_sunapwjkcxdaeqehfql.jpg,00080931230fb.jpg,sunaafjszryxyavjzln.jpg,00933960627fa.jpg,sunapwjkcxdaeqehfql.jpg,,,<,Place,,,,,1,,,,,,,x
303,10,Presentation,6,01010960627fa_suncnkvbhypnivcohyx.jpg,00892960530fa_sunalntxqqadigcletd.jpg,01010960627fa.jpg,suncnkvbhypnivcohyx.jpg,00892960530fa.jpg,sunalntxqqadigcletd.jpg,,,<,Place,,,,,1,,,,,,,x
304,10,Presentation,6,00880960530fa_sunakmnfgklupjijsgf.jpg,00931960627fa_sunaptrqvaooxfvktvw.jpg,00880960530fa.jpg,sunakmnfgklupjijsgf.jpg,00931960627fa.jpg,sunaptrqvaooxfvktvw.jpg,,,<,Place,,,,,1,,,,,,,x
305,10,Presentation,6,00876960620fa_sunajwqkfsykceonyig.jpg,00554940519fa_sunacfdkbsrughwqwtt.jpg,00876960620fa.jpg,sunajwqkfsykceonyig.jpg,00554940519fa.jpg,sunacfdkbsrughwqwtt.jpg,,,<,Place,,,,,1,,,,,,,o
306,10,Presentation,6,00221940128fa_sunabcfpwlpolnutyju.jpg,00977960627fa_sunbbxkanhzjgbwyxqs.jpg,00221940128fa.jpg,sunabcfpwlpolnutyju.jpg,00977960627fa.jpg,sunbbxkanhzjgbwyxqs.jpg,,,<,Place,,,,,1,,,,,,,x
307,10,Presentation,6,00909960530_sunaobtizabegtwfwul.jpg,00507940519fa_sunacacflqoyxhsqzhe.jpg,00909960530.jpg,sunaobtizabegtwfwul.jpg,00507940519fa.jpg,sunacacflqoyxhsqzhe.jpg,,,<,Place,,,,,1,,,,,,,x
308,10,Presentation,6,00785941205fa_sunaglqunwuycxydmyu.jpg,00815941205fa_sunahiphsekjihkafsl.jpg,00785941205fa.jpg,sunaglqunwuycxydmyu.jpg,00815941205fa.jpg,sunahiphsekjihkafsl.jpg,,,<,Place,,,,,1,,,,,,,x
309,10,Presentation,6,00857940307fa_sunaiwfobocrruqznsv.jpg,00966960627fa_sunaygrtwrwfezqjizr.jpg,00857940307fa.jpg,sunaiwfobocrruqznsv.jpg,00966960627fa.jpg,sunaygrtwrwfezqjizr.jpg,,,<,Place,,,,,1,,,,,,,x
310,10,Memory,6,,,,,,,sunaafbmtoniaasysgu.jpg,,,,,,,,,,,,,,,
311,10,Memory,6,,,,,,,00892960530fa.jpg,,,,,,,,,,,,,,,
312,10,Memory,6,,,,,,,suncnkvbhypnivcohyx.jpg,,,,,,,,,,,,,,,
313,10,Memory,6,,,,,,,00931960627fa.jpg,,,,,,,,,,,,,,,
314,10,Memory,6,,,,,,,00880960530fa.jpg,,,,,,,,,,,,,,,
315,10,Memory,6,,,,,,,sunaglqunwuycxydmyu.jpg,,,,,,,,,,,,,,,
316,10,Memory,6,,,,,,,sunaajspcoepticvplv.jpg,,,,,,,,,,,,,,,
317,10,Memory,6,,,,,,,sunalntxqqadigcletd.jpg,,,,,,,,,,,,,,,
318,10,Memory,6,,,,,,,00876960620fa.jpg,,,,,,,,,,,,,,,
319,10,Memory,6,,,,,,,00834940307fa.jpg,,,,,,,,,,,,,,,
320,10,Memory,6,,,,,,,00906960530fa.jpg,,,,,,,,,,,,,,,
321,10,Memory,6,,,,,,,sunaibnpvhkdpdnzcnz.jpg,,,,,,,,,,,,,,,
322,10,Memory,6,,,,,,,00073931230fa.jpg,,,,,,,,,,,,,,,
323,10,Memory,6,,,,,,,00305940422fa.jpg,,,,,,,,,,,,,,,
324,10,Memory,6,,,,,,,sunaozisvwfbmlkfhzv.jpg,,,,,,,,,,,,,,,
325,10,Memory,6,,,,,,,sunajjxttslobudoqbv.jpg,,,,,,,,,,,,,,,
326,10,Memory,6,,,,,,,sunabtrnbvpppgczjim.jpg,,,,,,,,,,,,,,,
327,10,Memory,6,,,,,,,sunbbxkanhzjgbwyxqs.jpg,,,,,,,,,,,,,,,
328,10,Memory,6,,,,,,,00967960627fa.jpg,,,,,,,,,,,,,,,
329,10,Memory,6,,,,,,,sunantryfbloeaomfta.jpg,,,,,,,,,,,,,,,
330,10,Memory,6,,,,,,,00914960620fa.jpg,,,,,,,,,,,,,,,
331,10,Memory,6,,,,,,,00785941205fa.jpg,,,,,,,,,,,,,,,
332,10,Memory,6,,,,,,,sunaygrtwrwfezqjizr.jpg,,,,,,,,,,,,,,,
333,10,Memory,6,,,,,,,sunaaelyvurpntclgau.jpg,,,,,,,,,,,,,,,
334,10,Memory,6,,,,,,,sunaptrqvaooxfvktvw.jpg,,,,,,,,,,,,,,,
335,10,Memory,6,,,,,,,01010960627fa.jpg,,,,,,,,,,,,,,,
336,10,Memory,6,,,,,,,00868960307fa.jpg,,,,,,,,,,,,,,,
337,10,Memory,6,,,,,,,00966960627fa.jpg,,,,,,,,,,,,,,,
338,10,Memory,6,,,,,,,sunakmnfgklupjijsgf.jpg,,,,,,,,,,,,,,,
339,10,Memory,6,,,,,,,00977960627fa.jpg,,,,,,,,,,,,,,,
340,10,Memory,6,,,,,,,00102931230fa.jpg,,,,,,,,,,,,,,,
341,10,Memory,6,,,,,,,00142931230fb.jpg,,,,,,,,,,,,,,,
342,10,Memory,6,,,,,,,sunaapxkpvrhpjplsok.jpg,,,,,,,,,,,,,,,
343,10,Memory,6,,,,,,,sunacacflqoyxhsqzhe.jpg,,,,,,,,,,,,,,,
344,10,Memory,6,,,,,,,sunajwqkfsykceonyig.jpg,,,,,,,,,,,,,,,
345,10,Memory,6,,,,,,,sunacerqowiaeoqkmsq.jpg,,,,,,,,,,,,,,,
346,10,Memory,6,,,,,,,00548940519fa.jpg,,,,,,,,,,,,,,,
347,10,Memory,6,,,,,,,sunbaejotfklekvpxcz.jpg,,,,,,,,,,,,,,,
348,10,Memory,6,,,,,,,00507940519fa.jpg,,,,,,,,,,,,,,,
349,10,Memory,6,,,,,,,00063931230fa.jpg,,,,,,,,,,,,,,,
350,10,Presentation,7,00996960627fa_sunbpvgllfdejxcpjqp.jpg,00818940307fa_sunahpblecxtmuzkmxb.jpg,00996960627fa.jpg,sunbpvgllfdejxcpjqp.jpg,00818940307fa.jpg,sunahpblecxtmuzkmxb.jpg,,,>,Place,,,,,0,,,,,,,x
351,10,Presentation,7,00911960530fa_sunaooaqzputrowwbsw.jpg,00264940128fb_sunabjzyxcjnmztdonj.jpg,00911960530fa.jpg,sunaooaqzputrowwbsw.jpg,00264940128fb.jpg,sunabjzyxcjnmztdonj.jpg,,,>,Place,,,,,1,,,,,,,o
352,10,Presentation,7,00999960627fa_sunbvbrvgbpanfrawft.jpg,00770941201fa_sunaflojskatpeqyzqp.jpg,00999960627fa.jpg,sunbvbrvgbpanfrawft.jpg,00770941201fa.jpg,sunaflojskatpeqyzqp.jpg,,,>,Place,,,,,1,,,,,,,x
353,10,Presentation,7,00208940128fa_sunaazzyhbvqjpmazjq.jpg,00123931230fb_sunaalcrrdbjgdztbiz.jpg,00208940128fa.jpg,sunaazzyhbvqjpmazjq.jpg,00123931230fb.jpg,sunaalcrrdbjgdztbiz.jpg,,,>,Place,,,,,1,,,,,,,o
354,10,Presentation,7,00807941205fa_sunahawfngukizslzsd.jpg,00925960627fa_sunapqwnqzxlsfvgsjm.jpg,00807941205fa.jpg,sunahawfngukizslzsd.jpg,00925960627fa.jpg,sunapqwnqzxlsfvgsjm.jpg,,,>,Place,,,,,1,,,,,,,x
355,10,Presentation,7,00154931230fa_sunaauueuhhvklldjik.jpg,00898960530fa_sunamkmeblgteyggink.jpg,00154931230fa.jpg,sunaauueuhhvklldjik.jpg,00898960530fa.jpg,sunamkmeblgteyggink.jpg,,,>,Place,,,,,1,,,,,,,x
356,10,Presentation,7,01003960627fb_sunbwdrdvsweerwsdrj.jpg,00663941121fa_sunadnjjzohjhbohlwq.jpg,01003960627fb.jpg,sunbwdrdvsweerwsdrj.jpg,00663941121fa.jpg,sunadnjjzohjhbohlwq.jpg,,,>,Place,,,,,1,,,,,,,o
357,10,Presentation,7,00866940307fa_sunajbwkywmsqkldfml.jpg,00746941201fa_sunaetydippjxikifsb.jpg,00866940307fa.jpg,sunajbwkywmsqkldfml.jpg,00746941201fa.jpg,sunaetydippjxikifsb.jpg,,,>,Place,,,,,1,,,,,,,x
358,10,Presentation,7,00903960620fa_sunanainkqdvktzoxyl.jpg,01004960627fa_sunbwtlihsuptkrckid.jpg,00903960620fa.jpg,sunanainkqdvktzoxyl.jpg,01004960627fa.jpg,sunbwtlihsuptkrckid.jpg,,,>,Place,,,,,0,,,,,,,o
359,10,Presentation,7,00762941201fa_sunafgzgbisbopcyslr.jpg,00786941205fa_sunagmhildamktmqjss.jpg,00762941201fa.jpg,sunafgzgbisbopcyslr.jpg,00786941205fa.jpg,sunagmhildamktmqjss.jpg,,,>,Place,,,,,1,,,,,,,o
360,10,Memory,7,,,,,,,sunaauueuhhvklldjik.jpg,,,,,,,,,,,,,,,
361,10,Memory,7,,,,,,,sunafpfpiiujzoesnqg.jpg,,,,,,,,,,,,,,,
362,10,Memory,7,,,,,,,00314940422fa.jpg,,,,,,,,,,,,,,,
363,10,Memory,7,,,,,,,sunaizgnnplsvajzhkc.jpg,,,,,,,,,,,,,,,
364,10,Memory,7,,,,,,,sunafkmnlytenlsywia.jpg,,,,,,,,,,,,,,,
365,10,Memory,7,,,,,,,00903960620fa.jpg,,,,,,,,,,,,,,,
366,10,Memory,7,,,,,,,sunafvcflzhlqloapyo.jpg,,,,,,,,,,,,,,,
367,10,Memory,7,,,,,,,00264940128fb.jpg,,,,,,,,,,,,,,,
368,10,Memory,7,,,,,,,sunagmhildamktmqjss.jpg,,,,,,,,,,,,,,,
369,10,Memory,7,,,,,,,00123931230fb.jpg,,,,,,,,,,,,,,,
370,10,Memory,7,,,,,,,sunafgzgbisbopcyslr.jpg,,,,,,,,,,,,,,,
371,10,Memory,7,,,,,,,00983960627fa.jpg,,,,,,,,,,,,,,,
372,10,Memory,7,,,,,,,00862940307fa.jpg,,,,,,,,,,,,,,,
373,10,Memory,7,,,,,,,00786941205fa.jpg,,,,,,,,,,,,,,,
374,10,Memory,7,,,,,,,00609940928fa.jpg,,,,,,,,,,,,,,,
375,10,Memory,7,,,,,,,sunabwmcbaxwioksdgw.jpg,,,,,,,,,,,,,,,
376,10,Memory,7,,,,,,,00762941201fa.jpg,,,,,,,,,,,,,,,
377,10,Memory,7,,,,,,,00154931230fa.jpg,,,,,,,,,,,,,,,
378,10,Memory,7,,,,,,,sunablfqiwfqomjarht.jpg,,,,,,,,,,,,,,,
379,10,Memory,7,,,,,,,00925960627fa.jpg,,,,,,,,,,,,,,,
380,10,Memory,7,,,,,,,00267940128fb.jpg,,,,,,,,,,,,,,,
381,10,Memory,7,,,,,,,00911960530fa.jpg,,,,,,,,,,,,,,,
382,10,Memory,7,,,,,,,sunacycdoztxoluxjyk.jpg,,,,,,,,,,,,,,,
383,10,Memory,7,,,,,,,sunabbafjowbzcvbucc.jpg,,,,,,,,,,,,,,,
384,10,Memory,7,,,,,,,00772941201fa.jpg,,,,,,,,,,,,,,,
385,10,Memory,7,,,,,,,sunaooaqzputrowwbsw.jpg,,,,,,,,,,,,,,,
386,10,Memory,7,,,,,,,00214940128fa.jpg,,,,,,,,,,,,,,,
387,10,Memory,7,,,,,,,sunahpblecxtmuzkmxb.jpg,,,,,,,,,,,,,,,
388,10,Memory,7,,,,,,,sunabkngeblodihjvbk.jpg,,,,,,,,,,,,,,,
389,10,Memory,7,,,,,,,sunahawfngukizslzsd.jpg,,,,,,,,,,,,,,,
390,10,Memory,7,,,,,,,sunabjzyxcjnmztdonj.jpg,,,,,,,,,,,,,,,
391,10,Memory,7,,,,,,,sunbfyvfqiimvdaxlqn.jpg,,,,,,,,,,,,,,,
392,10,Memory,7,,,,,,,sunanainkqdvktzoxyl.jpg,,,,,,,,,,,,,,,
393,10,Memory,7,,,,,,,sunaalcrrdbjgdztbiz.jpg,,,,,,,,,,,,,,,
394,10,Memory,7,,,,,,,sunapqwnqzxlsfvgsjm.jpg,,,,,,,,,,,,,,,
395,10,Memory,7,,,,,,,00807941205fa.jpg,,,,,,,,,,,,,,,
396,10,Memory,7,,,,,,,00773941201fa.jpg,,,,,,,,,,,,,,,
397,10,Memory,7,,,,,,,00768941205fa.jpg,,,,,,,,,,,,,,,
398,10,Memory,7,,,,,,,00818940307fa.jpg,,,,,,,,,,,,,,,
399,10,Memory,7,,,,,,,00266940128fb.jpg,,,,,,,,,,,,,,,
