,Subject,Trial Type,Run,Cued Composite,Uncued Composite,Cued Face,Cued Place,Uncued Face,Uncued Place,Memory Image,Category,Cued Side,Cued Category,Attention Reaction Time (s),Familiarity Reaction Time (s),Familiarity Rating,Attention Level,Cue Validity,Post Invalid Cue,Pre Invalid Cue,Attention Button,Rating History,Stimulus Onset,Stimulus End,Attention Probe
310,327,Memory,6,,,,,,,00774941201fa.jpg,,,,,1.403,1.0,,,,,,,1553720972.365895,1553720974.415757,
311,327,Memory,6,,,,,,,sunadikxpvqeabxrvvc.jpg,,,,,1.87,3.0,,,,,,,1553720975.681805,1553720977.666909,
312,327,Memory,6,,,,,,,sunabzjxlmkwnwzimua.jpg,,,,,1.436,2.0,,,,,,,1553720978.933721,1553720980.9169,
313,327,Memory,6,,,,,,,sunachtuarilwyqnvjx.jpg,,,,,1.337,4.0,,,,,,,1553720982.169021,1553720984.151995,
314,327,Memory,6,,,,,,,sunbdycacjfaujxitbw.jpg,,,,,1.954,2.0,,,,,,,1553720985.419172,1553720987.404085,
315,327,Memory,6,,,,,,,sunavspxmxubqaeidjt.jpg,,,,,0.769,1.0,,,,,,,1553720988.669699,1553720990.653511,
316,327,Memory,6,,,,,,,sundahdxwmcdluscvot.jpg,,,,,1.254,3.0,,,,,,,1553720991.904994,1553720993.88892,
317,327,Memory,6,,,,,,,00290940422fa.jpg,,,,,1.055,1.0,,,,,,,1553720995.154965,1553720997.139728,
318,327,Memory,6,,,,,,,sunadsgmtznewzyasnk.jpg,,,,,1.252,1.0,,,,,,,1553720998.406966,1553721000.390282,
319,327,Memory,6,,,,,,,00958960627fa.jpg,,,,,1.42,4.0,,,,,,,1553721001.658963,1553721003.64121,
320,327,Memory,6,,,,,,,00557940519fa.jpg,,,,,1.988,3.0,,,,,,,1553721004.891352,1553721006.876449,
321,327,Memory,6,,,,,,,00498960627fa.jpg,,,,,1.853,1.0,,,,,,,1553721008.127333,1553721010.110497,
322,327,Memory,6,,,,,,,00124931230fa.jpg,,,,,1.72,1.0,,,,,,,1553721011.377618,1553721013.361579,
323,327,Memory,6,,,,,,,sunadkazmlajmohnwfl.jpg,,,,,1.804,2.0,,,,,,,1553721014.628676,1553721016.612836,
324,327,Memory,6,,,,,,,01011960627fa.jpg,,,,,1.669,2.0,,,,,,,1553721017.863098,1553721019.847121,
325,327,Memory,6,,,,,,,00144931230fb.jpg,,,,,1.136,1.0,,,,,,,1553721021.114403,1553721023.098296,
326,327,Memory,6,,,,,,,00961960627fa.jpg,,,,,0.985,1.0,,,,,,,1553721024.348398,1553721026.332453,
327,327,Memory,6,,,,,,,00967960627fa.jpg,,,,,0.571,1.0,,,,,,,1553721027.58321,1553721029.56665,
328,327,Memory,6,,,,,,,sunaahwnmtqsrhocysw.jpg,,,,,1.987,4.0,,,,,,,1553721030.833638,1553721032.81791,
329,327,Memory,6,,,,,,,sunabqowuarvqqcnipn.jpg,,,,,0.0,,,,,,,,1553721034.068587,1553721036.053038,
330,327,Memory,6,,,,,,,sunaalhlvzmjmitybdn.jpg,,,,,1.087,1.0,,,,,,,1553721037.302974,1553721039.286231,
331,327,Memory,6,,,,,,,00130931230fa.jpg,,,,,1.22,1.0,,,,,,,1553721040.537167,1553721042.521376,
332,327,Memory,6,,,,,,,sunawotxrevnqvamsfp.jpg,,,,,1.136,3.0,,,,,,,1553721043.78815,1553721045.771456,
333,327,Memory,6,,,,,,,sunaamvxnvouicstkjb.jpg,,,,,1.802,2.0,,,,,,,1553721047.023384,1553721049.006664,
334,327,Memory,6,,,,,,,sunbaejotfklekvpxcz.jpg,,,,,0.805,1.0,,,,,,,1553721050.255698,1553721052.24104,
335,327,Memory,6,,,,,,,sunafvtpfczkzopbgue.jpg,,,,,0.686,1.0,,,,,,,1553721053.490788,1553721055.474023,
336,327,Memory,6,,,,,,,00111931230fb.jpg,,,,,1.202,1.0,,,,,,,1553721056.74299,1553721058.725912,
337,327,Memory,6,,,,,,,00968960627fa.jpg,,,,,1.103,1.0,,,,,,,1553721059.976338,1553721061.960421,
338,327,Memory,6,,,,,,,sunaakgekhjklxmvulj.jpg,,,,,1.37,1.0,,,,,,,1553721063.211376,1553721065.194354,
339,327,Memory,6,,,,,,,sunaathajvxrgptwhoj.jpg,,,,,0.652,1.0,,,,,,,1553721066.478647,1553721068.462844,
340,327,Memory,6,,,,,,,sunaajqmsaavkmgbsth.jpg,,,,,0.553,1.0,,,,,,,1553721069.71301,1553721071.697009,
341,327,Memory,6,,,,,,,00662941121fa.jpg,,,,,0.685,1.0,,,,,,,1553721072.947682,1553721074.930927,
342,327,Memory,6,,,,,,,00979960627fa.jpg,,,,,0.669,1.0,,,,,,,1553721076.182055,1553721078.166081,
343,327,Memory,6,,,,,,,sunbagfpovqwbuexqdn.jpg,,,,,0.0,,,,,,,,1553721079.416235,1553721081.400193,
344,327,Memory,6,,,,,,,00101931230fb.jpg,,,,,0.92,1.0,,,,,,,1553721082.684497,1553721084.667443,
345,327,Memory,6,,,,,,,00093931230fa.jpg,,,,,0.704,1.0,,,,,,,1553721085.934606,1553721087.919686,
346,327,Memory,6,,,,,,,00919960620fa.jpg,,,,,1.169,2.0,,,,,,,1553721089.185598,1553721091.1709,
347,327,Memory,6,,,,,,,sunapmfmzadmosuogaz.jpg,,,,,1.286,3.0,,,,,,,1553721092.42087,1553721094.404121,
348,327,Memory,6,,,,,,,00700941121fa.jpg,,,,,0.92,1.0,,,,,,,1553721095.671967,1553721097.672286,
349,327,Memory,6,,,,,,,00650941031fa.jpg,,,,,0.535,1.0,,,,,,,1553721098.922459,1553721100.906087,
