,Subject,Trial Type,Run,Cued Composite,Uncued Composite,Cued Face,Cued Place,Uncued Face,Uncued Place,Memory Image,Category,Cued Side,Cued Category,Attention Reaction Time (s),Familiarity Reaction Time (s),Familiarity Rating,Attention Level,Cue Validity,Post Invalid Cue,Pre Invalid Cue,Attention Button,Rating History,Stimulus Onset,Stimulus End,Attention Probe
0,25,Presentation,0,00983960627fa_sunbfyvfqiimvdaxlqn.jpg,00943960627fa_sunarpsxqkduedrrzyi.jpg,00983960627fa.jpg,sunbfyvfqiimvdaxlqn.jpg,00943960627fa.jpg,sunarpsxqkduedrrzyi.jpg,,,>,Face,,,,,1,,,,,,,o
1,25,Presentation,0,00815941205fa_sunahiphsekjihkafsl.jpg,00891960530fa_sunalkiibhqpxfamlll.jpg,00815941205fa.jpg,sunahiphsekjihkafsl.jpg,00891960530fa.jpg,sunalkiibhqpxfamlll.jpg,,,>,Face,,,,,1,,,,,,,o
2,25,Presentation,0,00925960627fa_sunapqwnqzxlsfvgsjm.jpg,01207940128fa_sundbixjudsgeuuehrn.jpg,00925960627fa.jpg,sunapqwnqzxlsfvgsjm.jpg,01207940128fa.jpg,sundbixjudsgeuuehrn.jpg,,,>,Face,,,,,1,,,,,,,o
3,25,Presentation,0,00540940519fa_sunacdnquypmsshhsbk.jpg,00775941205fa_sunafvwfsmqkjrutjta.jpg,00540940519fa.jpg,sunacdnquypmsshhsbk.jpg,00775941205fa.jpg,sunafvwfsmqkjrutjta.jpg,,,>,Face,,,,,0,,,,,,,x
4,25,Presentation,0,00065931230fb_sunaaemixhfquhnxxlm.jpg,01002960627fb_sunbwaafjdebjzttuvq.jpg,00065931230fb.jpg,sunaaemixhfquhnxxlm.jpg,01002960627fb.jpg,sunbwaafjdebjzttuvq.jpg,,,>,Face,,,,,1,,,,,,,o
5,25,Presentation,0,00082931230fa_sunaafvitpexrpvumsa.jpg,00811960530fa_sunahedfrhtcwpneund.jpg,00082931230fa.jpg,sunaafvitpexrpvumsa.jpg,00811960530fa.jpg,sunahedfrhtcwpneund.jpg,,,>,Face,,,,,1,,,,,,,o
6,25,Presentation,0,00620940928fa_sunacypmnujalygkunp.jpg,00807941205fa_sunahawfngukizslzsd.jpg,00620940928fa.jpg,sunacypmnujalygkunp.jpg,00807941205fa.jpg,sunahawfngukizslzsd.jpg,,,>,Face,,,,,1,,,,,,,o
7,25,Presentation,0,00481940519fa_sunabxsuqbleluwczoy.jpg,00239940128fa_sunabctlikybqabezjv.jpg,00481940519fa.jpg,sunabxsuqbleluwczoy.jpg,00239940128fa.jpg,sunabctlikybqabezjv.jpg,,,>,Face,,,,,0,,,,,,,o
8,25,Presentation,0,00829940307fa_sunahwgbqkqcrwprgvh.jpg,00903960620fa_sunanainkqdvktzoxyl.jpg,00829940307fa.jpg,sunahwgbqkqcrwprgvh.jpg,00903960620fa.jpg,sunanainkqdvktzoxyl.jpg,,,>,Face,,,,,1,,,,,,,o
9,25,Presentation,0,00483940519fa_sunabyvpwkgsjtijdwj.jpg,00288940422fa_sunabppokiyglaxpcha.jpg,00483940519fa.jpg,sunabyvpwkgsjtijdwj.jpg,00288940422fa.jpg,sunabppokiyglaxpcha.jpg,,,>,Face,,,,,1,,,,,,,x
10,25,Memory,0,,,,,,,sunadpnqovzckyikrjo.jpg,,,,,,,,,,,,,,,
11,25,Memory,0,,,,,,,sunafhmnhsdurlvddpw.jpg,,,,,,,,,,,,,,,
12,25,Memory,0,,,,,,,00807941205fa.jpg,,,,,,,,,,,,,,,
13,25,Memory,0,,,,,,,00483940519fa.jpg,,,,,,,,,,,,,,,
14,25,Memory,0,,,,,,,sunahawfngukizslzsd.jpg,,,,,,,,,,,,,,,
15,25,Memory,0,,,,,,,sunacuatpqpqhyjhjqk.jpg,,,,,,,,,,,,,,,
16,25,Memory,0,,,,,,,sunacdnquypmsshhsbk.jpg,,,,,,,,,,,,,,,
17,25,Memory,0,,,,,,,00763941205fa.jpg,,,,,,,,,,,,,,,
18,25,Memory,0,,,,,,,sunabctlikybqabezjv.jpg,,,,,,,,,,,,,,,
19,25,Memory,0,,,,,,,00791941205fa.jpg,,,,,,,,,,,,,,,
20,25,Memory,0,,,,,,,sunahiphsekjihkafsl.jpg,,,,,,,,,,,,,,,
21,25,Memory,0,,,,,,,sundbixjudsgeuuehrn.jpg,,,,,,,,,,,,,,,
22,25,Memory,0,,,,,,,sunaafvitpexrpvumsa.jpg,,,,,,,,,,,,,,,
23,25,Memory,0,,,,,,,00829940307fa.jpg,,,,,,,,,,,,,,,
24,25,Memory,0,,,,,,,00676941121fa.jpg,,,,,,,,,,,,,,,
25,25,Memory,0,,,,,,,00933960627fa.jpg,,,,,,,,,,,,,,,
26,25,Memory,0,,,,,,,sunajxpkuhbizeveguy.jpg,,,,,,,,,,,,,,,
27,25,Memory,0,,,,,,,00076931230fa.jpg,,,,,,,,,,,,,,,
28,25,Memory,0,,,,,,,00877960530fa.jpg,,,,,,,,,,,,,,,
29,25,Memory,0,,,,,,,sunanainkqdvktzoxyl.jpg,,,,,,,,,,,,,,,
30,25,Memory,0,,,,,,,00815941205fa.jpg,,,,,,,,,,,,,,,
31,25,Memory,0,,,,,,,00239940128fa.jpg,,,,,,,,,,,,,,,
32,25,Memory,0,,,,,,,00761960627fa.jpg,,,,,,,,,,,,,,,
33,25,Memory,0,,,,,,,sunagrmyoovzukhxmlo.jpg,,,,,,,,,,,,,,,
34,25,Memory,0,,,,,,,00741941201fa.jpg,,,,,,,,,,,,,,,
35,25,Memory,0,,,,,,,sunabyvpwkgsjtijdwj.jpg,,,,,,,,,,,,,,,
36,25,Memory,0,,,,,,,00540940519fa.jpg,,,,,,,,,,,,,,,
37,25,Memory,0,,,,,,,sunafgdqbclkwfocdhg.jpg,,,,,,,,,,,,,,,
38,25,Memory,0,,,,,,,00571940928fa.jpg,,,,,,,,,,,,,,,
39,25,Memory,0,,,,,,,01207940128fa.jpg,,,,,,,,,,,,,,,
40,25,Memory,0,,,,,,,01002960627fb.jpg,,,,,,,,,,,,,,,
41,25,Memory,0,,,,,,,sunbwaafjdebjzttuvq.jpg,,,,,,,,,,,,,,,
42,25,Memory,0,,,,,,,00082931230fa.jpg,,,,,,,,,,,,,,,
43,25,Memory,0,,,,,,,00149931230fa.jpg,,,,,,,,,,,,,,,
44,25,Memory,0,,,,,,,sunapwjkcxdaeqehfql.jpg,,,,,,,,,,,,,,,
45,25,Memory,0,,,,,,,sunaauglwmctnkxyird.jpg,,,,,,,,,,,,,,,
46,25,Memory,0,,,,,,,sunaafewhewbxmjiurz.jpg,,,,,,,,,,,,,,,
47,25,Memory,0,,,,,,,00903960620fa.jpg,,,,,,,,,,,,,,,
48,25,Memory,0,,,,,,,sunaemcowdozyphwknd.jpg,,,,,,,,,,,,,,,
49,25,Memory,0,,,,,,,sunahwgbqkqcrwprgvh.jpg,,,,,,,,,,,,,,,
50,25,Presentation,1,00747941201fa_sunaeutbrtswvsozxyk.jpg,00857940307fa_sunaiwfobocrruqznsv.jpg,00747941201fa.jpg,sunaeutbrtswvsozxyk.jpg,00857940307fa.jpg,sunaiwfobocrruqznsv.jpg,,,>,Face,,,,,0,,,,,,,x
51,25,Presentation,1,00926960627Fa_sunapqwoeotxshkukbh.jpg,00947960627fa_sunasmmcxdddtmtazwx.jpg,00926960627Fa.jpg,sunapqwoeotxshkukbh.jpg,00947960627fa.jpg,sunasmmcxdddtmtazwx.jpg,,,>,Face,,,,,1,,,,,,,o
52,25,Presentation,1,01003960627fb_sunbwdrdvsweerwsdrj.jpg,00965960627fa_sunaydywdmvlfddbxbk.jpg,01003960627fb.jpg,sunbwdrdvsweerwsdrj.jpg,00965960627fa.jpg,sunaydywdmvlfddbxbk.jpg,,,>,Face,,,,,1,,,,,,,x
53,25,Presentation,1,00581940928fa_sunacvzhvcksnwqcqbw.jpg,00984960627fa_sunbfzchmomnvzhbxdg.jpg,00581940928fa.jpg,sunacvzhvcksnwqcqbw.jpg,00984960627fa.jpg,sunbfzchmomnvzhbxdg.jpg,,,>,Face,,,,,1,,,,,,,x
54,25,Presentation,1,00970960627fa_sunbasypfgzjtomktmu.jpg,00822940307fa_sunahqrxievfeusiqlt.jpg,00970960627fa.jpg,sunbasypfgzjtomktmu.jpg,00822940307fa.jpg,sunahqrxievfeusiqlt.jpg,,,>,Face,,,,,0,,,,,,,o
55,25,Presentation,1,00305940422fa_sunabtrnbvpppgczjim.jpg,00316940422fa_sunabxmguapjekttvwm.jpg,00305940422fa.jpg,sunabtrnbvpppgczjim.jpg,00316940422fa.jpg,sunabxmguapjekttvwm.jpg,,,>,Face,,,,,1,,,,,,,o
56,25,Presentation,1,00086931230fa_sunaafynehyrzpsoaml.jpg,00132931230fb_sunaanjcbzdvtvblsdy.jpg,00086931230fa.jpg,sunaafynehyrzpsoaml.jpg,00132931230fb.jpg,sunaanjcbzdvtvblsdy.jpg,,,>,Face,,,,,1,,,,,,,x
57,25,Presentation,1,00294940422fb_sunabrlndkruqokhury.jpg,00290940422fa_sunabqowuarvqqcnipn.jpg,00294940422fb.jpg,sunabrlndkruqokhury.jpg,00290940422fa.jpg,sunabqowuarvqqcnipn.jpg,,,>,Face,,,,,1,,,,,,,x
58,25,Presentation,1,00985960627fa_sunbgklxeqjhdbyfhhy.jpg,00952960627fa_sunathzzbcwjykldrem.jpg,00985960627fa.jpg,sunbgklxeqjhdbyfhhy.jpg,00952960627fa.jpg,sunathzzbcwjykldrem.jpg,,,>,Face,,,,,1,,,,,,,x
59,25,Presentation,1,00880960530fa_sunakmnfgklupjijsgf.jpg,00694941121fa_sunadrmfzmstgdjdcod.jpg,00880960530fa.jpg,sunakmnfgklupjijsgf.jpg,00694941121fa.jpg,sunadrmfzmstgdjdcod.jpg,,,>,Face,,,,,1,,,,,,,x
60,25,Memory,1,,,,,,,sunbmaiocftdtvnzgap.jpg,,,,,,,,,,,,,,,
61,25,Memory,1,,,,,,,sunakmnfgklupjijsgf.jpg,,,,,,,,,,,,,,,
62,25,Memory,1,,,,,,,sunbasypfgzjtomktmu.jpg,,,,,,,,,,,,,,,
63,25,Memory,1,,,,,,,sunadtlxenqqxsyjvix.jpg,,,,,,,,,,,,,,,
64,25,Memory,1,,,,,,,sunabrjdpmoedcdjbpo.jpg,,,,,,,,,,,,,,,
65,25,Memory,1,,,,,,,00770941201fa.jpg,,,,,,,,,,,,,,,
66,25,Memory,1,,,,,,,sunaafynehyrzpsoaml.jpg,,,,,,,,,,,,,,,
67,25,Memory,1,,,,,,,sunajtrfunvzdfticna.jpg,,,,,,,,,,,,,,,
68,25,Memory,1,,,,,,,00878960530fa.jpg,,,,,,,,,,,,,,,
69,25,Memory,1,,,,,,,sunathzzbcwjykldrem.jpg,,,,,,,,,,,,,,,
70,25,Memory,1,,,,,,,sunabqowuarvqqcnipn.jpg,,,,,,,,,,,,,,,
71,25,Memory,1,,,,,,,00988960627fa.jpg,,,,,,,,,,,,,,,
72,25,Memory,1,,,,,,,00119931230fb.jpg,,,,,,,,,,,,,,,
73,25,Memory,1,,,,,,,00184940128fa.jpg,,,,,,,,,,,,,,,
74,25,Memory,1,,,,,,,sunaavtbadenwnzeutj.jpg,,,,,,,,,,,,,,,
75,25,Memory,1,,,,,,,00952960627fa.jpg,,,,,,,,,,,,,,,
76,25,Memory,1,,,,,,,00313940422fa.jpg,,,,,,,,,,,,,,,
77,25,Memory,1,,,,,,,00111931230fb.jpg,,,,,,,,,,,,,,,
78,25,Memory,1,,,,,,,00985960627fa.jpg,,,,,,,,,,,,,,,
79,25,Memory,1,,,,,,,00290940422fa.jpg,,,,,,,,,,,,,,,
80,25,Memory,1,,,,,,,sunaakgekhjklxmvulj.jpg,,,,,,,,,,,,,,,
81,25,Memory,1,,,,,,,sunaflojskatpeqyzqp.jpg,,,,,,,,,,,,,,,
82,25,Memory,1,,,,,,,sunaydywdmvlfddbxbk.jpg,,,,,,,,,,,,,,,
83,25,Memory,1,,,,,,,00294940422fb.jpg,,,,,,,,,,,,,,,
84,25,Memory,1,,,,,,,00292940422fb.jpg,,,,,,,,,,,,,,,
85,25,Memory,1,,,,,,,sunbfzchmomnvzhbxdg.jpg,,,,,,,,,,,,,,,
86,25,Memory,1,,,,,,,sunabwjvmoaddlyxfjr.jpg,,,,,,,,,,,,,,,
87,25,Memory,1,,,,,,,00705941205fa.jpg,,,,,,,,,,,,,,,
88,25,Memory,1,,,,,,,00874940307fa.jpg,,,,,,,,,,,,,,,
89,25,Memory,1,,,,,,,sunbgklxeqjhdbyfhhy.jpg,,,,,,,,,,,,,,,
90,25,Memory,1,,,,,,,sunaakvmbftkrgqhjun.jpg,,,,,,,,,,,,,,,
91,25,Memory,1,,,,,,,00970960627fa.jpg,,,,,,,,,,,,,,,
92,25,Memory,1,,,,,,,00880960530fa.jpg,,,,,,,,,,,,,,,
93,25,Memory,1,,,,,,,00965960627fa.jpg,,,,,,,,,,,,,,,
94,25,Memory,1,,,,,,,00086931230fa.jpg,,,,,,,,,,,,,,,
95,25,Memory,1,,,,,,,sunasmmcxdddtmtazwx.jpg,,,,,,,,,,,,,,,
96,25,Memory,1,,,,,,,00984960627fa.jpg,,,,,,,,,,,,,,,
97,25,Memory,1,,,,,,,sunakgbnzxmfohgehnu.jpg,,,,,,,,,,,,,,,
98,25,Memory,1,,,,,,,00947960627fa.jpg,,,,,,,,,,,,,,,
99,25,Memory,1,,,,,,,sunabrlndkruqokhury.jpg,,,,,,,,,,,,,,,
100,25,Presentation,2,00795941205fa_sunagtumacdlmciqamz.jpg,00851940307fa_sunaivflshbyfrfzhqb.jpg,00795941205fa.jpg,sunagtumacdlmciqamz.jpg,00851940307fa.jpg,sunaivflshbyfrfzhqb.jpg,,,<,Face,,,,,1,,,,,,,x
101,25,Presentation,2,00914960620fa_sunaozisvwfbmlkfhzv.jpg,00967960627fa_sunbaejotfklekvpxcz.jpg,00914960620fa.jpg,sunaozisvwfbmlkfhzv.jpg,00967960627fa.jpg,sunbaejotfklekvpxcz.jpg,,,<,Face,,,,,1,,,,,,,o
102,25,Presentation,2,00650941031fa_sunadikxpvqeabxrvvc.jpg,00869940307fa_sunajoveqhiprwqgoco.jpg,00650941031fa.jpg,sunadikxpvqeabxrvvc.jpg,00869940307fa.jpg,sunajoveqhiprwqgoco.jpg,,,<,Face,,,,,1,,,,,,,x
103,25,Presentation,2,00242940128fa_sunabcuurugvxwparpk.jpg,00793941205fa_sunagtjwilqjvxohypn.jpg,00242940128fa.jpg,sunabcuurugvxwparpk.jpg,00793941205fa.jpg,sunagtjwilqjvxohypn.jpg,,,<,Face,,,,,1,,,,,,,x
104,25,Presentation,2,01010960627fa_suncnkvbhypnivcohyx.jpg,00882960530fa_sunaknlirqjqiwbbeeg.jpg,01010960627fa.jpg,suncnkvbhypnivcohyx.jpg,00882960530fa.jpg,sunaknlirqjqiwbbeeg.jpg,,,<,Face,,,,,1,,,,,,,x
105,25,Presentation,2,00812941205fa_sunahgtbwgsmtqeodwh.jpg,00773941201fa_sunafvcflzhlqloapyo.jpg,00812941205fa.jpg,sunahgtbwgsmtqeodwh.jpg,00773941201fa.jpg,sunafvcflzhlqloapyo.jpg,,,<,Face,,,,,1,,,,,,,o
106,25,Presentation,2,00129931230fb_sunaamsdyakblkfoydx.jpg,00986960627fa_sunbgzjryivyczuvkvm.jpg,00129931230fb.jpg,sunaamsdyakblkfoydx.jpg,00986960627fa.jpg,sunbgzjryivyczuvkvm.jpg,,,<,Face,,,,,0,,,,,,,o
107,25,Presentation,2,00906960530fa_sunantryfbloeaomfta.jpg,00108960530fa_sunaajtnvzzpsjdzres.jpg,00906960530fa.jpg,sunantryfbloeaomfta.jpg,00108960530fa.jpg,sunaajtnvzzpsjdzres.jpg,,,<,Face,,,,,1,,,,,,,x
108,25,Presentation,2,00931960627fa_sunaptrqvaooxfvktvw.jpg,00136931230fb_sunaanptmsknhirrzed.jpg,00931960627fa.jpg,sunaptrqvaooxfvktvw.jpg,00136931230fb.jpg,sunaanptmsknhirrzed.jpg,,,<,Face,,,,,1,,,,,,,o
109,25,Presentation,2,00864940307fa_sunajawzbrlrwafowen.jpg,00750941201fa_sunaeuzwggvibufclwf.jpg,00864940307fa.jpg,sunajawzbrlrwafowen.jpg,00750941201fa.jpg,sunaeuzwggvibufclwf.jpg,,,<,Face,,,,,1,,,,,,,o
110,25,Memory,2,,,,,,,00101931230fb.jpg,,,,,,,,,,,,,,,
111,25,Memory,2,,,,,,,sunantryfbloeaomfta.jpg,,,,,,,,,,,,,,,
112,25,Memory,2,,,,,,,00914960620fa.jpg,,,,,,,,,,,,,,,
113,25,Memory,2,,,,,,,00773941201fa.jpg,,,,,,,,,,,,,,,
114,25,Memory,2,,,,,,,00967960627fa.jpg,,,,,,,,,,,,,,,
115,25,Memory,2,,,,,,,00868960307fa.jpg,,,,,,,,,,,,,,,
116,25,Memory,2,,,,,,,00866940307fa.jpg,,,,,,,,,,,,,,,
117,25,Memory,2,,,,,,,01004960627fa.jpg,,,,,,,,,,,,,,,
118,25,Memory,2,,,,,,,sunbloeoiozwjjsiamp.jpg,,,,,,,,,,,,,,,
119,25,Memory,2,,,,,,,00793941205fa.jpg,,,,,,,,,,,,,,,
120,25,Memory,2,,,,,,,sunaajtnvzzpsjdzres.jpg,,,,,,,,,,,,,,,
121,25,Memory,2,,,,,,,sunajawzbrlrwafowen.jpg,,,,,,,,,,,,,,,
122,25,Memory,2,,,,,,,00864940307fa.jpg,,,,,,,,,,,,,,,
123,25,Memory,2,,,,,,,sunaozisvwfbmlkfhzv.jpg,,,,,,,,,,,,,,,
124,25,Memory,2,,,,,,,00972960627fa.jpg,,,,,,,,,,,,,,,
125,25,Memory,2,,,,,,,sunagountlxpzkytsmp.jpg,,,,,,,,,,,,,,,
126,25,Memory,2,,,,,,,sunbbfqwjpdxniyhies.jpg,,,,,,,,,,,,,,,
127,25,Memory,2,,,,,,,00937960627fa.jpg,,,,,,,,,,,,,,,
128,25,Memory,2,,,,,,,00987960627fa.jpg,,,,,,,,,,,,,,,
129,25,Memory,2,,,,,,,sunaqsolmfydodnakub.jpg,,,,,,,,,,,,,,,
130,25,Memory,2,,,,,,,sunafvcflzhlqloapyo.jpg,,,,,,,,,,,,,,,
131,25,Memory,2,,,,,,,sunaptrqvaooxfvktvw.jpg,,,,,,,,,,,,,,,
132,25,Memory,2,,,,,,,sunajbwkywmsqkldfml.jpg,,,,,,,,,,,,,,,
133,25,Memory,2,,,,,,,sunabtlfmiwtljmoues.jpg,,,,,,,,,,,,,,,
134,25,Memory,2,,,,,,,00882960530fa.jpg,,,,,,,,,,,,,,,
135,25,Memory,2,,,,,,,00788941205fa.jpg,,,,,,,,,,,,,,,
136,25,Memory,2,,,,,,,sunagtumacdlmciqamz.jpg,,,,,,,,,,,,,,,
137,25,Memory,2,,,,,,,sunbwtlihsuptkrckid.jpg,,,,,,,,,,,,,,,
138,25,Memory,2,,,,,,,sunajjxttslobudoqbv.jpg,,,,,,,,,,,,,,,
139,25,Memory,2,,,,,,,00108960530fa.jpg,,,,,,,,,,,,,,,
140,25,Memory,2,,,,,,,00302940422fa.jpg,,,,,,,,,,,,,,,
141,25,Memory,2,,,,,,,00906960530fa.jpg,,,,,,,,,,,,,,,
142,25,Memory,2,,,,,,,sunbaejotfklekvpxcz.jpg,,,,,,,,,,,,,,,
143,25,Memory,2,,,,,,,00264940128fb.jpg,,,,,,,,,,,,,,,
144,25,Memory,2,,,,,,,00795941205fa.jpg,,,,,,,,,,,,,,,
145,25,Memory,2,,,,,,,sunaajqmsaavkmgbsth.jpg,,,,,,,,,,,,,,,
146,25,Memory,2,,,,,,,sunagtjwilqjvxohypn.jpg,,,,,,,,,,,,,,,
147,25,Memory,2,,,,,,,sunabjzyxcjnmztdonj.jpg,,,,,,,,,,,,,,,
148,25,Memory,2,,,,,,,00931960627fa.jpg,,,,,,,,,,,,,,,
149,25,Memory,2,,,,,,,sunaknlirqjqiwbbeeg.jpg,,,,,,,,,,,,,,,
150,25,Presentation,3,00126931230fb_sunaamdjwemxpmmtypi.jpg,00754941201fa_sunaffgsyyvoqdlkmnk.jpg,00126931230fb.jpg,sunaamdjwemxpmmtypi.jpg,00754941201fa.jpg,sunaffgsyyvoqdlkmnk.jpg,,,>,Place,,,,,1,,,,,,,x
151,25,Presentation,3,00727941205fa_sunaeisnjeetzmkbuad.jpg,00636941031fa_sunaddtdkycxbqlpfqa.jpg,00727941205fa.jpg,sunaeisnjeetzmkbuad.jpg,00636941031fa.jpg,sunaddtdkycxbqlpfqa.jpg,,,>,Place,,,,,1,,,,,,,o
152,25,Presentation,3,00768941205fa_sunafkmnlytenlsywia.jpg,00915960620fa_sunapileznnbbmrwoei.jpg,00768941205fa.jpg,sunafkmnlytenlsywia.jpg,00915960620fa.jpg,sunapileznnbbmrwoei.jpg,,,>,Place,,,,,1,,,,,,,x
153,25,Presentation,3,00905960530fa_sunanmoqeyprjjjfxjt.jpg,00838940307fa_sunaiozxhxgtfrmoagh.jpg,00905960530fa.jpg,sunanmoqeyprjjjfxjt.jpg,00838940307fa.jpg,sunaiozxhxgtfrmoagh.jpg,,,>,Place,,,,,1,,,,,,,x
154,25,Presentation,3,00146960620fb_sunaatpeezlljqaxlhj.jpg,00648941031fa_sunadfndyrtqqiasoig.jpg,00146960620fb.jpg,sunaatpeezlljqaxlhj.jpg,00648941031fa.jpg,sunadfndyrtqqiasoig.jpg,,,>,Place,,,,,1,,,,,,,o
155,25,Presentation,3,00635941031fa_sunaddsaeicthrfbkhe.jpg,00742941201fa_sunaenwuebvlpdmntju.jpg,00635941031fa.jpg,sunaddsaeicthrfbkhe.jpg,00742941201fa.jpg,sunaenwuebvlpdmntju.jpg,,,>,Place,,,,,1,,,,,,,x
156,25,Presentation,3,00854940307fa_sunaiwduelojtwaqeyh.jpg,00871940307_sunajrujcsdxmfbssmc.jpg,00854940307fa.jpg,sunaiwduelojtwaqeyh.jpg,00871940307.jpg,sunajrujcsdxmfbssmc.jpg,,,>,Place,,,,,1,,,,,,,x
157,25,Presentation,3,00123931230fb_sunaalcrrdbjgdztbiz.jpg,00836940307fa_sunainqelldeebvxtcz.jpg,00123931230fb.jpg,sunaalcrrdbjgdztbiz.jpg,00836940307fa.jpg,sunainqelldeebvxtcz.jpg,,,>,Place,,,,,1,,,,,,,o
158,25,Presentation,3,00860940307fa_sunaizeyhvjzknwjudw.jpg,00908960530fa_sunanwjjyqqwzqrqagd.jpg,00860940307fa.jpg,sunaizeyhvjzknwjudw.jpg,00908960530fa.jpg,sunanwjjyqqwzqrqagd.jpg,,,>,Place,,,,,1,,,,,,,o
159,25,Presentation,3,00936960627fa_sunaqgjuuwvdcyiccjt.jpg,00191940128fb_sunaawsdjisukbbginm.jpg,00936960627fa.jpg,sunaqgjuuwvdcyiccjt.jpg,00191940128fb.jpg,sunaawsdjisukbbginm.jpg,,,>,Place,,,,,1,,,,,,,o
160,25,Memory,3,,,,,,,sunaeisnjeetzmkbuad.jpg,,,,,,,,,,,,,,,
161,25,Memory,3,,,,,,,00146960620fb.jpg,,,,,,,,,,,,,,,
162,25,Memory,3,,,,,,,00147931230fb.jpg,,,,,,,,,,,,,,,
163,25,Memory,3,,,,,,,sunaddsaeicthrfbkhe.jpg,,,,,,,,,,,,,,,
164,25,Memory,3,,,,,,,sunaalcrrdbjgdztbiz.jpg,,,,,,,,,,,,,,,
165,25,Memory,3,,,,,,,00742941201fa.jpg,,,,,,,,,,,,,,,
166,25,Memory,3,,,,,,,00635941031fa.jpg,,,,,,,,,,,,,,,
167,25,Memory,3,,,,,,,sunaakxgygjfqrzpyoz.jpg,,,,,,,,,,,,,,,
168,25,Memory,3,,,,,,,00727941205fa.jpg,,,,,,,,,,,,,,,
169,25,Memory,3,,,,,,,00097931230fa.jpg,,,,,,,,,,,,,,,
170,25,Memory,3,,,,,,,sunaatpkocdkocwxpkb.jpg,,,,,,,,,,,,,,,
171,25,Memory,3,,,,,,,sunaatpeezlljqaxlhj.jpg,,,,,,,,,,,,,,,
172,25,Memory,3,,,,,,,00102931230fa.jpg,,,,,,,,,,,,,,,
173,25,Memory,3,,,,,,,sunaajspcoepticvplv.jpg,,,,,,,,,,,,,,,
174,25,Memory,3,,,,,,,sunajrujcsdxmfbssmc.jpg,,,,,,,,,,,,,,,
175,25,Memory,3,,,,,,,sunadfndyrtqqiasoig.jpg,,,,,,,,,,,,,,,
176,25,Memory,3,,,,,,,00836940307fa.jpg,,,,,,,,,,,,,,,
177,25,Memory,3,,,,,,,00816941205fa.jpg,,,,,,,,,,,,,,,
178,25,Memory,3,,,,,,,00636941031fa.jpg,,,,,,,,,,,,,,,
179,25,Memory,3,,,,,,,sunaddtdkycxbqlpfqa.jpg,,,,,,,,,,,,,,,
180,25,Memory,3,,,,,,,00796941205fa.jpg,,,,,,,,,,,,,,,
181,25,Memory,3,,,,,,,sunahmhrncocyhsjpxk.jpg,,,,,,,,,,,,,,,
182,25,Memory,3,,,,,,,00648941031fa.jpg,,,,,,,,,,,,,,,
183,25,Memory,3,,,,,,,sunbagfpovqwbuexqdn.jpg,,,,,,,,,,,,,,,
184,25,Memory,3,,,,,,,00905960530fa.jpg,,,,,,,,,,,,,,,
185,25,Memory,3,,,,,,,sunabcfpwlpolnutyju.jpg,,,,,,,,,,,,,,,
186,25,Memory,3,,,,,,,sunaguchqqnrtodtezq.jpg,,,,,,,,,,,,,,,
187,25,Memory,3,,,,,,,sunanmoqeyprjjjfxjt.jpg,,,,,,,,,,,,,,,
188,25,Memory,3,,,,,,,00871940307.jpg,,,,,,,,,,,,,,,
189,25,Memory,3,,,,,,,sunaenwuebvlpdmntju.jpg,,,,,,,,,,,,,,,
190,25,Memory,3,,,,,,,00968960627fa.jpg,,,,,,,,,,,,,,,
191,25,Memory,3,,,,,,,sunagsiwrmuixqgdimb.jpg,,,,,,,,,,,,,,,
192,25,Memory,3,,,,,,,sunaajayojuslbbnneg.jpg,,,,,,,,,,,,,,,
193,25,Memory,3,,,,,,,00993960627fa.jpg,,,,,,,,,,,,,,,
194,25,Memory,3,,,,,,,sunbprywzqxjcezkbch.jpg,,,,,,,,,,,,,,,
195,25,Memory,3,,,,,,,00120931230fa.jpg,,,,,,,,,,,,,,,
196,25,Memory,3,,,,,,,sunainqelldeebvxtcz.jpg,,,,,,,,,,,,,,,
197,25,Memory,3,,,,,,,00792941205fa.jpg,,,,,,,,,,,,,,,
198,25,Memory,3,,,,,,,00123931230fb.jpg,,,,,,,,,,,,,,,
199,25,Memory,3,,,,,,,00221940128fa.jpg,,,,,,,,,,,,,,,
200,25,Presentation,4,00557940519fa_sunachtuarilwyqnvjx.jpg,00127931230fa_sunaampvucecsfbdafn.jpg,00557940519fa.jpg,sunachtuarilwyqnvjx.jpg,00127931230fa.jpg,sunaampvucecsfbdafn.jpg,,,<,Place,,,,,1,,,,,,,x
201,25,Presentation,4,00803941205fa_sunagvxkjokqimstxpe.jpg,00794960620fa_sunagtqhhwxjeuxdebe.jpg,00803941205fa.jpg,sunagvxkjokqimstxpe.jpg,00794960620fa.jpg,sunagtqhhwxjeuxdebe.jpg,,,<,Place,,,,,1,,,,,,,x
202,25,Presentation,4,00787941205fa_sunagmwxxwymwojbvgi.jpg,00772941201fa_sunafpfpiiujzoesnqg.jpg,00787941205fa.jpg,sunagmwxxwymwojbvgi.jpg,00772941201fa.jpg,sunafpfpiiujzoesnqg.jpg,,,<,Place,,,,,1,,,,,,,o
203,25,Presentation,4,00745941205fa_sunaeouogqolxvggaoq.jpg,00939960627fa_sunarceibpcyacbmfga.jpg,00745941205fa.jpg,sunaeouogqolxvggaoq.jpg,00939960627fa.jpg,sunarceibpcyacbmfga.jpg,,,<,Place,,,,,1,,,,,,,x
204,25,Presentation,4,00564940928fa_sunacmpqqfbsvlzinzl.jpg,00805941205fa_sunagwzdbtlixdhgolm.jpg,00564940928fa.jpg,sunacmpqqfbsvlzinzl.jpg,00805941205fa.jpg,sunagwzdbtlixdhgolm.jpg,,,<,Place,,,,,1,,,,,,,x
205,25,Presentation,4,00835940307fa_sunaijsqpvodplbwxkf.jpg,00262940128fa_sunabizydfotqddlnjp.jpg,00835940307fa.jpg,sunaijsqpvodplbwxkf.jpg,00262940128fa.jpg,sunabizydfotqddlnjp.jpg,,,<,Place,,,,,1,,,,,,,x
206,25,Presentation,4,00913960530fa_sunaooffzffbhcpirmm.jpg,00900960530fa_sunamlotskmmsjeogby.jpg,00913960530fa.jpg,sunaooffzffbhcpirmm.jpg,00900960530fa.jpg,sunamlotskmmsjeogby.jpg,,,<,Place,,,,,1,,,,,,,o
207,25,Presentation,4,00749941201fa_sunaeuvjbmdpknaqqaj.jpg,00598940928fa_sunacxeheuiigkcgquf.jpg,00749941201fa.jpg,sunaeuvjbmdpknaqqaj.jpg,00598940928fa.jpg,sunacxeheuiigkcgquf.jpg,,,<,Place,,,,,1,,,,,,,o
208,25,Presentation,4,00780960530fa_sunagetqixeypsysbpn.jpg,00919960620fa_sunapmfmzadmosuogaz.jpg,00780960530fa.jpg,sunagetqixeypsysbpn.jpg,00919960620fa.jpg,sunapmfmzadmosuogaz.jpg,,,<,Place,,,,,0,,,,,,,o
209,25,Presentation,4,00955960627fb_sunauburywlkjszngcq.jpg,00902960530fa_sunanaacmmosxrfwmvl.jpg,00955960627fb.jpg,sunauburywlkjszngcq.jpg,00902960530fa.jpg,sunanaacmmosxrfwmvl.jpg,,,<,Place,,,,,0,,,,,,,o
210,25,Memory,4,,,,,,,sunaanlwnpqndclffxt.jpg,,,,,,,,,,,,,,,
211,25,Memory,4,,,,,,,00913960530fa.jpg,,,,,,,,,,,,,,,
212,25,Memory,4,,,,,,,sunagtqhhwxjeuxdebe.jpg,,,,,,,,,,,,,,,
213,25,Memory,4,,,,,,,sunbpflsdaxnddnwcqi.jpg,,,,,,,,,,,,,,,
214,25,Memory,4,,,,,,,sunafpfpiiujzoesnqg.jpg,,,,,,,,,,,,,,,
215,25,Memory,4,,,,,,,00158931230fb.jpg,,,,,,,,,,,,,,,
216,25,Memory,4,,,,,,,sunaooffzffbhcpirmm.jpg,,,,,,,,,,,,,,,
217,25,Memory,4,,,,,,,sunachtuarilwyqnvjx.jpg,,,,,,,,,,,,,,,
218,25,Memory,4,,,,,,,00953960627fa.jpg,,,,,,,,,,,,,,,
219,25,Memory,4,,,,,,,sunabyfxcxhdebvdyfd.jpg,,,,,,,,,,,,,,,
220,25,Memory,4,,,,,,,sunaampvucecsfbdafn.jpg,,,,,,,,,,,,,,,
221,25,Memory,4,,,,,,,sunanaacmmosxrfwmvl.jpg,,,,,,,,,,,,,,,
222,25,Memory,4,,,,,,,00507940519fa.jpg,,,,,,,,,,,,,,,
223,25,Memory,4,,,,,,,00543940519fa.jpg,,,,,,,,,,,,,,,
224,25,Memory,4,,,,,,,sunacmpqqfbsvlzinzl.jpg,,,,,,,,,,,,,,,
225,25,Memory,4,,,,,,,sunacacflqoyxhsqzhe.jpg,,,,,,,,,,,,,,,
226,25,Memory,4,,,,,,,00902960530fa.jpg,,,,,,,,,,,,,,,
227,25,Memory,4,,,,,,,00749941201fa.jpg,,,,,,,,,,,,,,,
228,25,Memory,4,,,,,,,00990960627fa.jpg,,,,,,,,,,,,,,,
229,25,Memory,4,,,,,,,00794960620fa.jpg,,,,,,,,,,,,,,,
230,25,Memory,4,,,,,,,sunauburywlkjszngcq.jpg,,,,,,,,,,,,,,,
231,25,Memory,4,,,,,,,sunaeuvjbmdpknaqqaj.jpg,,,,,,,,,,,,,,,
232,25,Memory,4,,,,,,,00939960627fa.jpg,,,,,,,,,,,,,,,
233,25,Memory,4,,,,,,,00564940928fa.jpg,,,,,,,,,,,,,,,
234,25,Memory,4,,,,,,,00073931230fa.jpg,,,,,,,,,,,,,,,
235,25,Memory,4,,,,,,,sunaavchcbptaerhcfy.jpg,,,,,,,,,,,,,,,
236,25,Memory,4,,,,,,,00776941205fa.jpg,,,,,,,,,,,,,,,
237,25,Memory,4,,,,,,,00557940519fa.jpg,,,,,,,,,,,,,,,
238,25,Memory,4,,,,,,,00772941201fa.jpg,,,,,,,,,,,,,,,
239,25,Memory,4,,,,,,,sunadnjjzohjhbohlwq.jpg,,,,,,,,,,,,,,,
240,25,Memory,4,,,,,,,00127931230fa.jpg,,,,,,,,,,,,,,,
241,25,Memory,4,,,,,,,sunafxokyavhgptyfye.jpg,,,,,,,,,,,,,,,
242,25,Memory,4,,,,,,,00663941121fa.jpg,,,,,,,,,,,,,,,
243,25,Memory,4,,,,,,,sunatstrpjxhvtbaczf.jpg,,,,,,,,,,,,,,,
244,25,Memory,4,,,,,,,sunarceibpcyacbmfga.jpg,,,,,,,,,,,,,,,
245,25,Memory,4,,,,,,,00955960627fb.jpg,,,,,,,,,,,,,,,
246,25,Memory,4,,,,,,,00482940519fa.jpg,,,,,,,,,,,,,,,
247,25,Memory,4,,,,,,,00133931230fa.jpg,,,,,,,,,,,,,,,
248,25,Memory,4,,,,,,,sunaafbmtoniaasysgu.jpg,,,,,,,,,,,,,,,
249,25,Memory,4,,,,,,,sunacepzfrmtkiqonpy.jpg,,,,,,,,,,,,,,,
250,25,Presentation,5,00092931230fa_sunaaheqzstzxuadglu.jpg,00929960627fa_sunaprnrbmgkomdbchr.jpg,00092931230fa.jpg,sunaaheqzstzxuadglu.jpg,00929960627fa.jpg,sunaprnrbmgkomdbchr.jpg,,,>,Place,,,,,1,,,,,,,x
251,25,Presentation,5,00060931230fa_sunaaehaikpckyjsety.jpg,00532960627fa_sunaccdtpgenvcbcbcf.jpg,00060931230fa.jpg,sunaaehaikpckyjsety.jpg,00532960627fa.jpg,sunaccdtpgenvcbcbcf.jpg,,,>,Place,,,,,1,,,,,,,o
252,25,Presentation,5,00978960627fa_sunbddbivbptlrlauhy.jpg,00996960627fa_sunbpvgllfdejxcpjqp.jpg,00978960627fa.jpg,sunbddbivbptlrlauhy.jpg,00996960627fa.jpg,sunbpvgllfdejxcpjqp.jpg,,,>,Place,,,,,1,,,,,,,x
253,25,Presentation,5,00559940519fa_sunacjkmnpawfzbyvae.jpg,00752960620fa_sunafbwnojpqeyzssoe.jpg,00559940519fa.jpg,sunacjkmnpawfzbyvae.jpg,00752960620fa.jpg,sunafbwnojpqeyzssoe.jpg,,,>,Place,,,,,1,,,,,,,x
254,25,Presentation,5,00263940128fb_sunabjuovqvyfuzvqwt.jpg,00116931230fa_sunaakqepfoeqomfgxf.jpg,00263940128fb.jpg,sunabjuovqvyfuzvqwt.jpg,00116931230fa.jpg,sunaakqepfoeqomfgxf.jpg,,,>,Place,,,,,1,,,,,,,x
255,25,Presentation,5,00766960620fa_sunafijbgncijwykrnl.jpg,00989960627fa_sunbondbduabvijnmch.jpg,00766960620fa.jpg,sunafijbgncijwykrnl.jpg,00989960627fa.jpg,sunbondbduabvijnmch.jpg,,,>,Place,,,,,1,,,,,,,o
256,25,Presentation,5,00884960530fa_sunakodkcslgqhqlgwl.jpg,00260940128fa_sunabgfhvifeijihhjw.jpg,00884960530fa.jpg,sunakodkcslgqhqlgwl.jpg,00260940128fa.jpg,sunabgfhvifeijihhjw.jpg,,,>,Place,,,,,1,,,,,,,o
257,25,Presentation,5,00235940128fb_sunabclssnoeuigtawp.jpg,00911960530fa_sunaooaqzputrowwbsw.jpg,00235940128fb.jpg,sunabclssnoeuigtawp.jpg,00911960530fa.jpg,sunaooaqzputrowwbsw.jpg,,,>,Place,,,,,1,,,,,,,x
258,25,Presentation,5,00976960627fa_sunbbhqyyzmsxhsbjmp.jpg,00760960620fa_sunaffstbkappprzxnv.jpg,00976960627fa.jpg,sunbbhqyyzmsxhsbjmp.jpg,00760960620fa.jpg,sunaffstbkappprzxnv.jpg,,,>,Place,,,,,1,,,,,,,x
259,25,Presentation,5,00910960530fa_sunaofikylqtxphvdem.jpg,00744941201fa_sunaeomlfaabhpswasy.jpg,00910960530fa.jpg,sunaofikylqtxphvdem.jpg,00744941201fa.jpg,sunaeomlfaabhpswasy.jpg,,,>,Place,,,,,1,,,,,,,x
260,25,Memory,5,,,,,,,00675941121fa.jpg,,,,,,,,,,,,,,,
261,25,Memory,5,,,,,,,sunabjuovqvyfuzvqwt.jpg,,,,,,,,,,,,,,,
262,25,Memory,5,,,,,,,00314940422fa.jpg,,,,,,,,,,,,,,,
263,25,Memory,5,,,,,,,sunaccdtpgenvcbcbcf.jpg,,,,,,,,,,,,,,,
264,25,Memory,5,,,,,,,00263940128fb.jpg,,,,,,,,,,,,,,,
265,25,Memory,5,,,,,,,sunagjeesomrwjsfqie.jpg,,,,,,,,,,,,,,,
266,25,Memory,5,,,,,,,sunaaeowapdkwzqpgqr.jpg,,,,,,,,,,,,,,,
267,25,Memory,5,,,,,,,00760960620fa.jpg,,,,,,,,,,,,,,,
268,25,Memory,5,,,,,,,00783941205fa.jpg,,,,,,,,,,,,,,,
269,25,Memory,5,,,,,,,sunbpvgllfdejxcpjqp.jpg,,,,,,,,,,,,,,,
270,25,Memory,5,,,,,,,sunbdycacjfaujxitbw.jpg,,,,,,,,,,,,,,,
271,25,Memory,5,,,,,,,sunadoxcchtmsxewsau.jpg,,,,,,,,,,,,,,,
272,25,Memory,5,,,,,,,sunabclssnoeuigtawp.jpg,,,,,,,,,,,,,,,
273,25,Memory,5,,,,,,,sundahdxwmcdluscvot.jpg,,,,,,,,,,,,,,,
274,25,Memory,5,,,,,,,00989960627fa.jpg,,,,,,,,,,,,,,,
275,25,Memory,5,,,,,,,sunbbgtoeuzierkkajt.jpg,,,,,,,,,,,,,,,
276,25,Memory,5,,,,,,,sunaaehaikpckyjsety.jpg,,,,,,,,,,,,,,,
277,25,Memory,5,,,,,,,00260940128fa.jpg,,,,,,,,,,,,,,,
278,25,Memory,5,,,,,,,sunagmhildamktmqjss.jpg,,,,,,,,,,,,,,,
279,25,Memory,5,,,,,,,00786941205fa.jpg,,,,,,,,,,,,,,,
280,25,Memory,5,,,,,,,sunaofikylqtxphvdem.jpg,,,,,,,,,,,,,,,
281,25,Memory,5,,,,,,,sunacjnahdmqfnjfwqx.jpg,,,,,,,,,,,,,,,
282,25,Memory,5,,,,,,,sunabgfhvifeijihhjw.jpg,,,,,,,,,,,,,,,
283,25,Memory,5,,,,,,,00973960627fa.jpg,,,,,,,,,,,,,,,
284,25,Memory,5,,,,,,,sunafgzgbisbopcyslr.jpg,,,,,,,,,,,,,,,
285,25,Memory,5,,,,,,,00762941201fa.jpg,,,,,,,,,,,,,,,
286,25,Memory,5,,,,,,,sunbondbduabvijnmch.jpg,,,,,,,,,,,,,,,
287,25,Memory,5,,,,,,,sunaffstbkappprzxnv.jpg,,,,,,,,,,,,,,,
288,25,Memory,5,,,,,,,00060931230fa.jpg,,,,,,,,,,,,,,,
289,25,Memory,5,,,,,,,00069931230fb.jpg,,,,,,,,,,,,,,,
290,25,Memory,5,,,,,,,sunabwmcbaxwioksdgw.jpg,,,,,,,,,,,,,,,
291,25,Memory,5,,,,,,,00996960627fa.jpg,,,,,,,,,,,,,,,
292,25,Memory,5,,,,,,,00559940519fa.jpg,,,,,,,,,,,,,,,
293,25,Memory,5,,,,,,,sunacjkmnpawfzbyvae.jpg,,,,,,,,,,,,,,,
294,25,Memory,5,,,,,,,00562941031fa.jpg,,,,,,,,,,,,,,,
295,25,Memory,5,,,,,,,01011960627fa.jpg,,,,,,,,,,,,,,,
296,25,Memory,5,,,,,,,00532960627fa.jpg,,,,,,,,,,,,,,,
297,25,Memory,5,,,,,,,00235940128fb.jpg,,,,,,,,,,,,,,,
298,25,Memory,5,,,,,,,00979960627fa.jpg,,,,,,,,,,,,,,,
299,25,Memory,5,,,,,,,00910960530fa.jpg,,,,,,,,,,,,,,,
300,25,Presentation,6,00098931230fa_sunaajpqmulidejvjsr.jpg,00208940128fa_sunaazzyhbvqjpmazjq.jpg,00098931230fa.jpg,sunaajpqmulidejvjsr.jpg,00208940128fa.jpg,sunaazzyhbvqjpmazjq.jpg,,,<,Face,,,,,1,,,,,,,o
301,25,Presentation,6,00145931230fb_sunaatjesvdupctftmn.jpg,00112931230fa_sunaakjaacuzulqckgl.jpg,00145931230fb.jpg,sunaatjesvdupctftmn.jpg,00112931230fa.jpg,sunaakjaacuzulqckgl.jpg,,,<,Face,,,,,1,,,,,,,o
302,25,Presentation,6,00719960620fa_sunadzuvtmtmgupotmf.jpg,00787960620fa_sunagoufulkpsxrmklt.jpg,00719960620fa.jpg,sunadzuvtmtmgupotmf.jpg,00787960620fa.jpg,sunagoufulkpsxrmklt.jpg,,,<,Face,,,,,1,,,,,,,x
303,25,Presentation,6,00966960627fa_sunaygrtwrwfezqjizr.jpg,00705960530fa_sunaduslxfzlbxlllnz.jpg,00966960627fa.jpg,sunaygrtwrwfezqjizr.jpg,00705960530fa.jpg,sunaduslxfzlbxlllnz.jpg,,,<,Face,,,,,1,,,,,,,x
304,25,Presentation,6,00063931230fa_sunaaelyvurpntclgau.jpg,00634940928fa_sunadcphrizvfpljiqt.jpg,00063931230fa.jpg,sunaaelyvurpntclgau.jpg,00634940928fa.jpg,sunadcphrizvfpljiqt.jpg,,,<,Face,,,,,1,,,,,,,x
305,25,Presentation,6,00862940307fa_sunaizgnnplsvajzhkc.jpg,00162931230fb_sunaavjinpnkappuonm.jpg,00862940307fa.jpg,sunaizgnnplsvajzhkc.jpg,00162931230fb.jpg,sunaavjinpnkappuonm.jpg,,,<,Face,,,,,1,,,,,,,o
306,25,Presentation,6,00922960627fa_sunapqkyghktgtosuuk.jpg,00784941205fb_sunagjzcrjvmxzqzljx.jpg,00922960627fa.jpg,sunapqkyghktgtosuuk.jpg,00784941205fb.jpg,sunagjzcrjvmxzqzljx.jpg,,,<,Face,,,,,1,,,,,,,o
307,25,Presentation,6,00935960627fa_sunaqbmgkgqucajzrkp.jpg,00564941031fa_sunacsaovnjezqwbykf.jpg,00935960627fa.jpg,sunaqbmgkgqucajzrkp.jpg,00564941031fa.jpg,sunacsaovnjezqwbykf.jpg,,,<,Face,,,,,1,,,,,,,o
308,25,Presentation,6,00778941205fa_sunagcthdfirrcawoic.jpg,00185940422fb_sunaawqdbpihmlbwyyn.jpg,00778941205fa.jpg,sunagcthdfirrcawoic.jpg,00185940422fb.jpg,sunaawqdbpihmlbwyyn.jpg,,,<,Face,,,,,1,,,,,,,o
309,25,Presentation,6,00209940128fb_sunabaergayifsgacxt.jpg,00306940422fa_sunabueyoajufbkraki.jpg,00209940128fb.jpg,sunabaergayifsgacxt.jpg,00306940422fa.jpg,sunabueyoajufbkraki.jpg,,,<,Face,,,,,1,,,,,,,x
310,25,Memory,6,,,,,,,sunavhxgmgrqsaptynb.jpg,,,,,,,,,,,,,,,
311,25,Memory,6,,,,,,,00705960530fa.jpg,,,,,,,,,,,,,,,
312,25,Memory,6,,,,,,,sunbvzmgrdvaakxusbu.jpg,,,,,,,,,,,,,,,
313,25,Memory,6,,,,,,,00142931230fb.jpg,,,,,,,,,,,,,,,
314,25,Memory,6,,,,,,,00949960627fb.jpg,,,,,,,,,,,,,,,
315,25,Memory,6,,,,,,,sunaapxkpvrhpjplsok.jpg,,,,,,,,,,,,,,,
316,25,Memory,6,,,,,,,00921960627fa.jpg,,,,,,,,,,,,,,,
317,25,Memory,6,,,,,,,00185940422fb.jpg,,,,,,,,,,,,,,,
318,25,Memory,6,,,,,,,00098931230fa.jpg,,,,,,,,,,,,,,,
319,25,Memory,6,,,,,,,00730960620fa.jpg,,,,,,,,,,,,,,,
320,25,Memory,6,,,,,,,sunadzuvtmtmgupotmf.jpg,,,,,,,,,,,,,,,
321,25,Memory,6,,,,,,,sunadcphrizvfpljiqt.jpg,,,,,,,,,,,,,,,
322,25,Memory,6,,,,,,,00790941205fa.jpg,,,,,,,,,,,,,,,
323,25,Memory,6,,,,,,,sunagpjzsbltchlwvou.jpg,,,,,,,,,,,,,,,
324,25,Memory,6,,,,,,,00957960627fa.jpg,,,,,,,,,,,,,,,
325,25,Memory,6,,,,,,,00777941205fa.jpg,,,,,,,,,,,,,,,
326,25,Memory,6,,,,,,,sunaajpqmulidejvjsr.jpg,,,,,,,,,,,,,,,
327,25,Memory,6,,,,,,,sunabueyoajufbkraki.jpg,,,,,,,,,,,,,,,
328,25,Memory,6,,,,,,,00306940422fa.jpg,,,,,,,,,,,,,,,
329,25,Memory,6,,,,,,,sunaduslxfzlbxlllnz.jpg,,,,,,,,,,,,,,,
330,25,Memory,6,,,,,,,sunasnqkkyhilqkxiqm.jpg,,,,,,,,,,,,,,,
331,25,Memory,6,,,,,,,01000960627fa.jpg,,,,,,,,,,,,,,,
332,25,Memory,6,,,,,,,00209940128fb.jpg,,,,,,,,,,,,,,,
333,25,Memory,6,,,,,,,00862940307fa.jpg,,,,,,,,,,,,,,,
334,25,Memory,6,,,,,,,sunapqkpqdfvxlbqwyo.jpg,,,,,,,,,,,,,,,
335,25,Memory,6,,,,,,,sunabaergayifsgacxt.jpg,,,,,,,,,,,,,,,
336,25,Memory,6,,,,,,,sunaizgnnplsvajzhkc.jpg,,,,,,,,,,,,,,,
337,25,Memory,6,,,,,,,sunagjzcrjvmxzqzljx.jpg,,,,,,,,,,,,,,,
338,25,Memory,6,,,,,,,00784941205fb.jpg,,,,,,,,,,,,,,,
339,25,Memory,6,,,,,,,sunaatjesvdupctftmn.jpg,,,,,,,,,,,,,,,
340,25,Memory,6,,,,,,,00071941031fa.jpg,,,,,,,,,,,,,,,
341,25,Memory,6,,,,,,,00719960620fa.jpg,,,,,,,,,,,,,,,
342,25,Memory,6,,,,,,,sunagcinxkccdtrjmlv.jpg,,,,,,,,,,,,,,,
343,25,Memory,6,,,,,,,sunaaexqbtdswxrqjvz.jpg,,,,,,,,,,,,,,,
344,25,Memory,6,,,,,,,sunaekgzpfilgjxpeyq.jpg,,,,,,,,,,,,,,,
345,25,Memory,6,,,,,,,00858940307fa.jpg,,,,,,,,,,,,,,,
346,25,Memory,6,,,,,,,sunaixpqndlwhwjtjek.jpg,,,,,,,,,,,,,,,
347,25,Memory,6,,,,,,,sunaawqdbpihmlbwyyn.jpg,,,,,,,,,,,,,,,
348,25,Memory,6,,,,,,,00634940928fa.jpg,,,,,,,,,,,,,,,
349,25,Memory,6,,,,,,,00145931230fb.jpg,,,,,,,,,,,,,,,
350,25,Presentation,7,01005960627fa_sunbwyuesflwdpqtgoy.jpg,00810941205fa_sunahctntqrunhdxhtb.jpg,01005960627fa.jpg,sunbwyuesflwdpqtgoy.jpg,00810941205fa.jpg,sunahctntqrunhdxhtb.jpg,,,<,Place,,,,,1,,,,,,,x
351,25,Presentation,7,00308940422fb_sunabwfvcqqidycwypa.jpg,01007960627fa_sunbxarcshsnqsefemx.jpg,00308940422fb.jpg,sunabwfvcqqidycwypa.jpg,01007960627fa.jpg,sunbxarcshsnqsefemx.jpg,,,<,Place,,,,,1,,,,,,,x
352,25,Presentation,7,00977960627fa_sunbbxkanhzjgbwyxqs.jpg,00271940422fa_sunabmbnddafmywtjjj.jpg,00977960627fa.jpg,sunbbxkanhzjgbwyxqs.jpg,00271940422fa.jpg,sunabmbnddafmywtjjj.jpg,,,<,Place,,,,,1,,,,,,,o
353,25,Presentation,7,00779941205fa_sunagdzlvkqtpnfxfcg.jpg,00095931230fa_sunaahzooisqkwlxwoz.jpg,00779941205fa.jpg,sunagdzlvkqtpnfxfcg.jpg,00095931230fa.jpg,sunaahzooisqkwlxwoz.jpg,,,<,Place,,,,,1,,,,,,,o
354,25,Presentation,7,00211940128fa_sunabasphceswhwwqvv.jpg,00901960530fa_sunammbnoambmhdxdwd.jpg,00211940128fa.jpg,sunabasphceswhwwqvv.jpg,00901960530fa.jpg,sunammbnoambmhdxdwd.jpg,,,<,Place,,,,,1,,,,,,,o
355,25,Presentation,7,00848940307fa_sunaivdylrawbmhryfp.jpg,00719941201fa_sunadvithllcgmfxsrn.jpg,00848940307fa.jpg,sunaivdylrawbmhryfp.jpg,00719941201fa.jpg,sunadvithllcgmfxsrn.jpg,,,<,Place,,,,,1,,,,,,,x
356,25,Presentation,7,00071940128fa_sunaaexpnawiehinlpy.jpg,00062931230fb_sunaaelotvjgibjtjhs.jpg,00071940128fa.jpg,sunaaexpnawiehinlpy.jpg,00062931230fb.jpg,sunaaelotvjgibjtjhs.jpg,,,<,Place,,,,,0,,,,,,,x
357,25,Presentation,7,00859940307fa_sunaiycurtqsfkvcaso.jpg,00115931230fa_sunaakmxzhuceuiryah.jpg,00859940307fa.jpg,sunaiycurtqsfkvcaso.jpg,00115931230fa.jpg,sunaakmxzhuceuiryah.jpg,,,<,Place,,,,,1,,,,,,,o
358,25,Presentation,7,00163931230fb_sunaavodbcpygkggnfp.jpg,00938960627fa_sunaqyylsngywqzwfmx.jpg,00163931230fb.jpg,sunaavodbcpygkggnfp.jpg,00938960627fa.jpg,sunaqyylsngywqzwfmx.jpg,,,<,Place,,,,,1,,,,,,,x
359,25,Presentation,7,00124931230fa_sunaalhlvzmjmitybdn.jpg,00210940128fb_sunabanoxjtqxamkucc.jpg,00124931230fa.jpg,sunaalhlvzmjmitybdn.jpg,00210940128fb.jpg,sunabanoxjtqxamkucc.jpg,,,<,Place,,,,,1,,,,,,,o
360,25,Memory,7,,,,,,,00774941201fa.jpg,,,,,,,,,,,,,,,
361,25,Memory,7,,,,,,,sunbxarcshsnqsefemx.jpg,,,,,,,,,,,,,,,
362,25,Memory,7,,,,,,,00847940307fa.jpg,,,,,,,,,,,,,,,
363,25,Memory,7,,,,,,,sunbesrwkdsffeogeqq.jpg,,,,,,,,,,,,,,,
364,25,Memory,7,,,,,,,00124931230fa.jpg,,,,,,,,,,,,,,,
365,25,Memory,7,,,,,,,sunaaexpnawiehinlpy.jpg,,,,,,,,,,,,,,,
366,25,Memory,7,,,,,,,00901960530fa.jpg,,,,,,,,,,,,,,,
367,25,Memory,7,,,,,,,sunaahzooisqkwlxwoz.jpg,,,,,,,,,,,,,,,
368,25,Memory,7,,,,,,,sunafvtpfczkzopbgue.jpg,,,,,,,,,,,,,,,
369,25,Memory,7,,,,,,,sunahrltmuwbiehihpe.jpg,,,,,,,,,,,,,,,
370,25,Memory,7,,,,,,,sunamkmeblgteyggink.jpg,,,,,,,,,,,,,,,
371,25,Memory,7,,,,,,,sunacvjlsylseoghjup.jpg,,,,,,,,,,,,,,,
372,25,Memory,7,,,,,,,sunaivdjruhkrfywfed.jpg,,,,,,,,,,,,,,,
373,25,Memory,7,,,,,,,00825940307fa.jpg,,,,,,,,,,,,,,,
374,25,Memory,7,,,,,,,sunabkngeblodihjvbk.jpg,,,,,,,,,,,,,,,
375,25,Memory,7,,,,,,,sunabasphceswhwwqvv.jpg,,,,,,,,,,,,,,,
376,25,Memory,7,,,,,,,01007960627fa.jpg,,,,,,,,,,,,,,,
377,25,Memory,7,,,,,,,sunabanoxjtqxamkucc.jpg,,,,,,,,,,,,,,,
378,25,Memory,7,,,,,,,00163931230fb.jpg,,,,,,,,,,,,,,,
379,25,Memory,7,,,,,,,sunaalhlvzmjmitybdn.jpg,,,,,,,,,,,,,,,
380,25,Memory,7,,,,,,,00211940128fa.jpg,,,,,,,,,,,,,,,
381,25,Memory,7,,,,,,,sunabwfvcqqidycwypa.jpg,,,,,,,,,,,,,,,
382,25,Memory,7,,,,,,,00827940307fa.jpg,,,,,,,,,,,,,,,
383,25,Memory,7,,,,,,,00885960530fa.jpg,,,,,,,,,,,,,,,
384,25,Memory,7,,,,,,,sunaavodbcpygkggnfp.jpg,,,,,,,,,,,,,,,
385,25,Memory,7,,,,,,,00062931230fb.jpg,,,,,,,,,,,,,,,
386,25,Memory,7,,,,,,,sunaaelotvjgibjtjhs.jpg,,,,,,,,,,,,,,,
387,25,Memory,7,,,,,,,00576941031fa.jpg,,,,,,,,,,,,,,,
388,25,Memory,7,,,,,,,sunaaiqiqcggrskoqgy.jpg,,,,,,,,,,,,,,,
389,25,Memory,7,,,,,,,00308940422fb.jpg,,,,,,,,,,,,,,,
390,25,Memory,7,,,,,,,00095931230fa.jpg,,,,,,,,,,,,,,,
391,25,Memory,7,,,,,,,00266940128fb.jpg,,,,,,,,,,,,,,,
392,25,Memory,7,,,,,,,00071940128fa.jpg,,,,,,,,,,,,,,,
393,25,Memory,7,,,,,,,00898960530fa.jpg,,,,,,,,,,,,,,,
394,25,Memory,7,,,,,,,00096931230fa.jpg,,,,,,,,,,,,,,,
395,25,Memory,7,,,,,,,sunakwlvxjpddialozd.jpg,,,,,,,,,,,,,,,
396,25,Memory,7,,,,,,,00982960627fa.jpg,,,,,,,,,,,,,,,
397,25,Memory,7,,,,,,,sunammbnoambmhdxdwd.jpg,,,,,,,,,,,,,,,
398,25,Memory,7,,,,,,,sunahtfxgsrmkiulnwk.jpg,,,,,,,,,,,,,,,
399,25,Memory,7,,,,,,,00210940128fb.jpg,,,,,,,,,,,,,,,
