,Subject,Trial Type,Run,Cued Composite,Uncued Composite,Cued Face,Cued Place,Uncued Face,Uncued Place,Memory Image,Category,Cued Side,Cued Category,Attention Reaction Time (s),Familiarity Reaction Time (s),Familiarity Rating,Attention Level,Cue Validity,Post Invalid Cue,Pre Invalid Cue,Attention Button,Rating History,Stimulus Onset,Stimulus End,Attention Probe
360,25,Memory,7,,,,,,,00774941201fa.jpg,,,,,0.886,1.0,,,,,,,1539789023.052996,1539789025.653891,
361,25,Memory,7,,,,,,,sunbxarcshsnqsefemx.jpg,,,,,1.134,2.0,,,,,,,1539789027.087968,1539789029.638409,
362,25,Memory,7,,,,,,,00847940307fa.jpg,,,,,0.652,1.0,,,,,,,1539789031.08889,1539789033.373751,
363,25,Memory,7,,,,,,,sunbesrwkdsffeogeqq.jpg,,,,,0.918,1.0,,,,,,,1539789034.789221,1539789037.191744,
364,25,Memory,7,,,,,,,00124931230fa.jpg,,,,,0.587,1.0,,,,,,,1539789038.575493,1539789040.909163,
365,25,Memory,7,,,,,,,sunaaexpnawiehinlpy.jpg,,,,,1.503,2.0,,,,,,,1539789042.342359,1539789044.660237,
366,25,Memory,7,,,,,,,00901960530fa.jpg,,,,,0.855,1.0,,,,,,,1539789046.127259,1539789048.445182,
367,25,Memory,7,,,,,,,sunaahzooisqkwlxwoz.jpg,,,,,1.336,2.0,,,,,,,1539789049.795464,1539789052.295783,
368,25,Memory,7,,,,,,,sunafvtpfczkzopbgue.jpg,,,,,1.12,1.0,,,,,,,1539789053.746596,1539789056.095764,
369,25,Memory,7,,,,,,,sunahrltmuwbiehihpe.jpg,,,,,0.854,1.0,,,,,,,1539789057.464598,1539789059.798764,
370,25,Memory,7,,,,,,,sunamkmeblgteyggink.jpg,,,,,0.868,1.0,,,,,,,1539789061.214817,1539789063.715654,
371,25,Memory,7,,,,,,,sunacvjlsylseoghjup.jpg,,,,,1.319,1.0,,,,,,,1539789065.117633,1539789067.550007,
372,25,Memory,7,,,,,,,sunaivdjruhkrfywfed.jpg,,,,,1.336,1.0,,,,,,,1539789068.934307,1539789071.284615,
373,25,Memory,7,,,,,,,00825940307fa.jpg,,,,,0.668,1.0,,,,,,,1539789072.802724,1539789075.318971,
374,25,Memory,7,,,,,,,sunabkngeblodihjvbk.jpg,,,,,1.054,3.0,,,,,,,1539789076.753952,1539789079.155053,
375,25,Memory,7,,,,,,,sunabasphceswhwwqvv.jpg,,,,,1.72,3.0,,,,,,,1539789080.588251,1539789082.973694,
376,25,Memory,7,,,,,,,01007960627fa.jpg,,,,,0.67,1.0,,,,,,,1539789084.372356,1539789086.70538,
377,25,Memory,7,,,,,,,sunabanoxjtqxamkucc.jpg,,,,,0.786,1.0,,,,,,,1539789088.124529,1539789090.507628,
378,25,Memory,7,,,,,,,00163931230fb.jpg,,,,,0.603,1.0,,,,,,,1539789091.959028,1539789094.308188,
379,25,Memory,7,,,,,,,sunaalhlvzmjmitybdn.jpg,,,,,0.735,1.0,,,,,,,1539789095.693174,1539789098.294774,
380,25,Memory,7,,,,,,,00211940128fa.jpg,,,,,0.587,1.0,,,,,,,1539789099.677907,1539789102.144812,
381,25,Memory,7,,,,,,,sunabwfvcqqidycwypa.jpg,,,,,1.087,2.0,,,,,,,1539789103.528961,1539789105.879306,
382,25,Memory,7,,,,,,,00827940307fa.jpg,,,,,0.605,1.0,,,,,,,1539789107.2145,1539789109.664698,
383,25,Memory,7,,,,,,,00885960530fa.jpg,,,,,0.737,1.0,,,,,,,1539789111.098992,1539789113.398406,
384,25,Memory,7,,,,,,,sunaavodbcpygkggnfp.jpg,,,,,1.102,1.0,,,,,,,1539789114.799227,1539789117.266412,
385,25,Memory,7,,,,,,,00062931230fb.jpg,,,,,0.635,1.0,,,,,,,1539789118.633877,1539789120.95093,
386,25,Memory,7,,,,,,,sunaaelotvjgibjtjhs.jpg,,,,,0.67,1.0,,,,,,,1539789122.40227,1539789124.669159,
387,25,Memory,7,,,,,,,00576941031fa.jpg,,,,,1.254,2.0,,,,,,,1539789126.069428,1539789128.421585,
388,25,Memory,7,,,,,,,sunaaiqiqcggrskoqgy.jpg,,,,,1.819,1.0,,,,,,,1539789129.836921,1539789132.172525,
389,25,Memory,7,,,,,,,00308940422fb.jpg,,,,,0.57,1.0,,,,,,,1539789133.556071,1539789136.072894,
390,25,Memory,7,,,,,,,00095931230fa.jpg,,,,,1.237,2.0,,,,,,,1539789137.407129,1539789139.940916,
391,25,Memory,7,,,,,,,00266940128fb.jpg,,,,,1.072,2.0,,,,,,,1539789141.340973,1539789143.724615,
392,25,Memory,7,,,,,,,00071940128fa.jpg,,,,,1.154,2.0,,,,,,,1539789145.125789,1539789147.576769,
393,25,Memory,7,,,,,,,00898960530fa.jpg,,,,,0.736,1.0,,,,,,,1539789148.96085,1539789151.426914,
394,25,Memory,7,,,,,,,00096931230fa.jpg,,,,,1.486,3.0,,,,,,,1539789152.912755,1539789155.261968,
395,25,Memory,7,,,,,,,sunakwlvxjpddialozd.jpg,,,,,1.738,1.0,,,,,,,1539789156.646223,1539789158.964247,
396,25,Memory,7,,,,,,,00982960627fa.jpg,,,,,1.119,1.0,,,,,,,1539789160.430341,1539789162.814156,
397,25,Memory,7,,,,,,,sunammbnoambmhdxdwd.jpg,,,,,1.369,1.0,,,,,,,1539789164.23152,1539789166.648813,
398,25,Memory,7,,,,,,,sunahtfxgsrmkiulnwk.jpg,,,,,1.104,1.0,,,,,,,1539789168.067547,1539789170.433235,
399,25,Memory,7,,,,,,,00210940128fb.jpg,,,,,1.237,1.0,,,,,,,1539789171.866547,1539789174.169177,
