,Subject,Trial Type,Run,Cued Composite,Uncued Composite,Cued Face,Cued Place,Uncued Face,Uncued Place,Memory Image,Category,Cued Side,Cued Category,Attention Reaction Time (s),Familiarity Reaction Time (s),Familiarity Rating,Attention Level,Cue Validity,Post Invalid Cue,Pre Invalid Cue,Attention Button,Rating History,Stimulus Onset,Stimulus End,Attention Probe
0,15,Presentation,0,00063931230fa_sunaaelyvurpntclgau.jpg,00245940128fa_sunabeyhmxodahoieyk.jpg,00063931230fa.jpg,sunaaelyvurpntclgau.jpg,00245940128fa.jpg,sunabeyhmxodahoieyk.jpg,,,<,Place,,,,,0,,,,,,,o
1,15,Presentation,0,00921960627fa_sunapqkpqdfvxlbqwyo.jpg,00306940422fa_sunabueyoajufbkraki.jpg,00921960627fa.jpg,sunapqkpqdfvxlbqwyo.jpg,00306940422fa.jpg,sunabueyoajufbkraki.jpg,,,>,Place,,,,,0,,,,,,,x
2,15,Presentation,0,00069931230fb_sunaaeowapdkwzqpgqr.jpg,00979960627fa_sunbdycacjfaujxitbw.jpg,00069931230fb.jpg,sunaaeowapdkwzqpgqr.jpg,00979960627fa.jpg,sunbdycacjfaujxitbw.jpg,,,<,Place,,,,,1,,,,,,,o
3,15,Presentation,0,00720960620fa_sunaecpkgfewqqreqwe.jpg,00763941205fa_sunafhmnhsdurlvddpw.jpg,00720960620fa.jpg,sunaecpkgfewqqreqwe.jpg,00763941205fa.jpg,sunafhmnhsdurlvddpw.jpg,,,>,Face,,,,,1,,,,,,,x
4,15,Presentation,0,00198940128fb_sunaazezcsunmhttzxz.jpg,00111931230fb_sunaakgekhjklxmvulj.jpg,00198940128fb.jpg,sunaazezcsunmhttzxz.jpg,00111931230fb.jpg,sunaakgekhjklxmvulj.jpg,,,>,Face,,,,,1,,,,,,,x
5,15,Presentation,0,00242940128fa_sunabcuurugvxwparpk.jpg,00163931230fb_sunaavodbcpygkggnfp.jpg,00242940128fa.jpg,sunabcuurugvxwparpk.jpg,00163931230fb.jpg,sunaavodbcpygkggnfp.jpg,,,<,Face,,,,,1,,,,,,,x
6,15,Presentation,0,00483940519fa_sunabyvpwkgsjtijdwj.jpg,00136931230fb_sunaanptmsknhirrzed.jpg,00483940519fa.jpg,sunabyvpwkgsjtijdwj.jpg,00136931230fb.jpg,sunaanptmsknhirrzed.jpg,,,>,Place,,,,,1,,,,,,,o
7,15,Presentation,0,00109931230fa_sunaajuzribjrizdshh.jpg,00753941201fa_sunafcofuuzebuadceo.jpg,00109931230fa.jpg,sunaajuzribjrizdshh.jpg,00753941201fa.jpg,sunafcofuuzebuadceo.jpg,,,>,Place,,,,,1,,,,,,,o
8,15,Presentation,0,00969960627fa_sunbaoizrfijvhpnnjn.jpg,01207940128fa_sundbixjudsgeuuehrn.jpg,00969960627fa.jpg,sunbaoizrfijvhpnnjn.jpg,01207940128fa.jpg,sundbixjudsgeuuehrn.jpg,,,<,Face,,,,,1,,,,,,,o
9,15,Presentation,0,00609940928fa_sunacycdoztxoluxjyk.jpg,00801941205fa_sunagvprlbprarvgdvj.jpg,00609940928fa.jpg,sunacycdoztxoluxjyk.jpg,00801941205fa.jpg,sunagvprlbprarvgdvj.jpg,,,<,Face,,,,,1,,,,,,,o
10,15,Memory,0,,,,,,,00069931230fb.jpg,,,,,,,,,,,,,,,
11,15,Memory,0,,,,,,,sunanaacmmosxrfwmvl.jpg,,,,,,,,,,,,,,,
12,15,Memory,0,,,,,,,sunafhmnhsdurlvddpw.jpg,,,,,,,,,,,,,,,
13,15,Memory,0,,,,,,,sunadikxpvqeabxrvvc.jpg,,,,,,,,,,,,,,,
14,15,Memory,0,,,,,,,sunaprnrbmgkomdbchr.jpg,,,,,,,,,,,,,,,
15,15,Memory,0,,,,,,,00650941031fa.jpg,,,,,,,,,,,,,,,
16,15,Memory,0,,,,,,,00483940519fa.jpg,,,,,,,,,,,,,,,
17,15,Memory,0,,,,,,,00145931230fb.jpg,,,,,,,,,,,,,,,
18,15,Memory,0,,,,,,,00751960620fa.jpg,,,,,,,,,,,,,,,
19,15,Memory,0,,,,,,,sunaatjesvdupctftmn.jpg,,,,,,,,,,,,,,,
20,15,Memory,0,,,,,,,00198940128fb.jpg,,,,,,,,,,,,,,,
21,15,Memory,0,,,,,,,00242940128fa.jpg,,,,,,,,,,,,,,,
22,15,Memory,0,,,,,,,00763941205fa.jpg,,,,,,,,,,,,,,,
23,15,Memory,0,,,,,,,sunajoveqhiprwqgoco.jpg,,,,,,,,,,,,,,,
24,15,Memory,0,,,,,,,sunafcofuuzebuadceo.jpg,,,,,,,,,,,,,,,
25,15,Memory,0,,,,,,,00921960627fa.jpg,,,,,,,,,,,,,,,
26,15,Memory,0,,,,,,,00809960620fa.jpg,,,,,,,,,,,,,,,
27,15,Memory,0,,,,,,,00869940307fa.jpg,,,,,,,,,,,,,,,
28,15,Memory,0,,,,,,,sunbdycacjfaujxitbw.jpg,,,,,,,,,,,,,,,
29,15,Memory,0,,,,,,,sunaizeyhvjzknwjudw.jpg,,,,,,,,,,,,,,,
30,15,Memory,0,,,,,,,sunapqkpqdfvxlbqwyo.jpg,,,,,,,,,,,,,,,
31,15,Memory,0,,,,,,,sunabcuurugvxwparpk.jpg,,,,,,,,,,,,,,,
32,15,Memory,0,,,,,,,00306940422fa.jpg,,,,,,,,,,,,,,,
33,15,Memory,0,,,,,,,00245940128fa.jpg,,,,,,,,,,,,,,,
34,15,Memory,0,,,,,,,sunabueyoajufbkraki.jpg,,,,,,,,,,,,,,,
35,15,Memory,0,,,,,,,00987960627fa.jpg,,,,,,,,,,,,,,,
36,15,Memory,0,,,,,,,sunabyvpwkgsjtijdwj.jpg,,,,,,,,,,,,,,,
37,15,Memory,0,,,,,,,sunabeyhmxodahoieyk.jpg,,,,,,,,,,,,,,,
38,15,Memory,0,,,,,,,00929960627fa.jpg,,,,,,,,,,,,,,,
39,15,Memory,0,,,,,,,sunaaeowapdkwzqpgqr.jpg,,,,,,,,,,,,,,,
40,15,Memory,0,,,,,,,sunaazezcsunmhttzxz.jpg,,,,,,,,,,,,,,,
41,15,Memory,0,,,,,,,00996960627fa.jpg,,,,,,,,,,,,,,,
42,15,Memory,0,,,,,,,00979960627fa.jpg,,,,,,,,,,,,,,,
43,15,Memory,0,,,,,,,00902960530fa.jpg,,,,,,,,,,,,,,,
44,15,Memory,0,,,,,,,sunahbvlpavurqoxdeq.jpg,,,,,,,,,,,,,,,
45,15,Memory,0,,,,,,,00860940307fa.jpg,,,,,,,,,,,,,,,
46,15,Memory,0,,,,,,,sunbpvgllfdejxcpjqp.jpg,,,,,,,,,,,,,,,
47,15,Memory,0,,,,,,,sunaezuszgtxnmsxdbk.jpg,,,,,,,,,,,,,,,
48,15,Memory,0,,,,,,,sunbloeoiozwjjsiamp.jpg,,,,,,,,,,,,,,,
49,15,Memory,0,,,,,,,00753941201fa.jpg,,,,,,,,,,,,,,,
50,15,Presentation,1,00089931230fa_sunaagcpoejbuzyvddd.jpg,00787941205fa_sunagmwxxwymwojbvgi.jpg,00089931230fa.jpg,sunaagcpoejbuzyvddd.jpg,00787941205fa.jpg,sunagmwxxwymwojbvgi.jpg,,,<,Face,,,,,1,,,,,,,x
51,15,Presentation,1,00270940422fb_sunabllobxadqcyttej.jpg,00648941031fa_sunadfndyrtqqiasoig.jpg,00270940422fb.jpg,sunabllobxadqcyttej.jpg,00648941031fa.jpg,sunadfndyrtqqiasoig.jpg,,,>,Place,,,,,1,,,,,,,x
52,15,Presentation,1,00071940128fa_sunaaexpnawiehinlpy.jpg,00102931230fa_sunaajspcoepticvplv.jpg,00071940128fa.jpg,sunaaexpnawiehinlpy.jpg,00102931230fa.jpg,sunaajspcoepticvplv.jpg,,,<,Place,,,,,1,,,,,,,x
53,15,Presentation,1,00942960627fa_sunarfdklgdnjgeqfjg.jpg,00719941201fa_sunadvithllcgmfxsrn.jpg,00942960627fa.jpg,sunarfdklgdnjgeqfjg.jpg,00719941201fa.jpg,sunadvithllcgmfxsrn.jpg,,,>,Face,,,,,1,,,,,,,x
54,15,Presentation,1,00532960627fa_sunaccdtpgenvcbcbcf.jpg,00140931230fb_sunaapllqyqlykszopd.jpg,00532960627fa.jpg,sunaccdtpgenvcbcbcf.jpg,00140931230fb.jpg,sunaapllqyqlykszopd.jpg,,,<,Place,,,,,1,,,,,,,x
55,15,Presentation,1,00790941205fa_sunagpjzsbltchlwvou.jpg,00647941031fa_sunadflbrkckmepztql.jpg,00790941205fa.jpg,sunagpjzsbltchlwvou.jpg,00647941031fa.jpg,sunadflbrkckmepztql.jpg,,,>,Face,,,,,1,,,,,,,x
56,15,Presentation,1,00481940519fa_sunabxsuqbleluwczoy.jpg,00728941205fa_sunaejnvnpltdmhbcsi.jpg,00481940519fa.jpg,sunabxsuqbleluwczoy.jpg,00728941205fa.jpg,sunaejnvnpltdmhbcsi.jpg,,,>,Face,,,,,0,,,,,,,o
57,15,Presentation,1,00804960530fa_sunagwswhkvnsmuszlz.jpg,00705941205fa_sunadtlxenqqxsyjvix.jpg,00804960530fa.jpg,sunagwswhkvnsmuszlz.jpg,00705941205fa.jpg,sunadtlxenqqxsyjvix.jpg,,,<,Face,,,,,1,,,,,,,o
58,15,Presentation,1,00999960627fa_sunbvbrvgbpanfrawft.jpg,00700941121fa_sunadsgmtznewzyasnk.jpg,00999960627fa.jpg,sunbvbrvgbpanfrawft.jpg,00700941121fa.jpg,sunadsgmtznewzyasnk.jpg,,,>,Place,,,,,1,,,,,,,x
59,15,Presentation,1,00092931230fa_sunaaheqzstzxuadglu.jpg,00115931230fa_sunaakmxzhuceuiryah.jpg,00092931230fa.jpg,sunaaheqzstzxuadglu.jpg,00115931230fa.jpg,sunaakmxzhuceuiryah.jpg,,,<,Place,,,,,1,,,,,,,x
60,15,Memory,1,,,,,,,sunagpjzsbltchlwvou.jpg,,,,,,,,,,,,,,,
61,15,Memory,1,,,,,,,01000960627fa.jpg,,,,,,,,,,,,,,,
62,15,Memory,1,,,,,,,00959960627fa.jpg,,,,,,,,,,,,,,,
63,15,Memory,1,,,,,,,00102931230fa.jpg,,,,,,,,,,,,,,,
64,15,Memory,1,,,,,,,00811960530fa.jpg,,,,,,,,,,,,,,,
65,15,Memory,1,,,,,,,00532960627fa.jpg,,,,,,,,,,,,,,,
66,15,Memory,1,,,,,,,sunadvithllcgmfxsrn.jpg,,,,,,,,,,,,,,,
67,15,Memory,1,,,,,,,sunakmnfgklupjijsgf.jpg,,,,,,,,,,,,,,,
68,15,Memory,1,,,,,,,00939960627fa.jpg,,,,,,,,,,,,,,,
69,15,Memory,1,,,,,,,sunagmwxxwymwojbvgi.jpg,,,,,,,,,,,,,,,
70,15,Memory,1,,,,,,,sunarfdklgdnjgeqfjg.jpg,,,,,,,,,,,,,,,
71,15,Memory,1,,,,,,,00880960530fa.jpg,,,,,,,,,,,,,,,
72,15,Memory,1,,,,,,,sunagwswhkvnsmuszlz.jpg,,,,,,,,,,,,,,,
73,15,Memory,1,,,,,,,00140931230fb.jpg,,,,,,,,,,,,,,,
74,15,Memory,1,,,,,,,00909960530.jpg,,,,,,,,,,,,,,,
75,15,Memory,1,,,,,,,sunaccdtpgenvcbcbcf.jpg,,,,,,,,,,,,,,,
76,15,Memory,1,,,,,,,sunaapllqyqlykszopd.jpg,,,,,,,,,,,,,,,
77,15,Memory,1,,,,,,,sunbvzmgrdvaakxusbu.jpg,,,,,,,,,,,,,,,
78,15,Memory,1,,,,,,,01003960627fb.jpg,,,,,,,,,,,,,,,
79,15,Memory,1,,,,,,,sunahedfrhtcwpneund.jpg,,,,,,,,,,,,,,,
80,15,Memory,1,,,,,,,00784941205fb.jpg,,,,,,,,,,,,,,,
81,15,Memory,1,,,,,,,00958960627fa.jpg,,,,,,,,,,,,,,,
82,15,Memory,1,,,,,,,sunavxokzybtomhbmvm.jpg,,,,,,,,,,,,,,,
83,15,Memory,1,,,,,,,00647941031fa.jpg,,,,,,,,,,,,,,,
84,15,Memory,1,,,,,,,00719941201fa.jpg,,,,,,,,,,,,,,,
85,15,Memory,1,,,,,,,00092931230fa.jpg,,,,,,,,,,,,,,,
86,15,Memory,1,,,,,,,00790941205fa.jpg,,,,,,,,,,,,,,,
87,15,Memory,1,,,,,,,sunaobtizabegtwfwul.jpg,,,,,,,,,,,,,,,
88,15,Memory,1,,,,,,,sunadflbrkckmepztql.jpg,,,,,,,,,,,,,,,
89,15,Memory,1,,,,,,,00787941205fa.jpg,,,,,,,,,,,,,,,
90,15,Memory,1,,,,,,,sunaajspcoepticvplv.jpg,,,,,,,,,,,,,,,
91,15,Memory,1,,,,,,,sunarceibpcyacbmfga.jpg,,,,,,,,,,,,,,,
92,15,Memory,1,,,,,,,00804960530fa.jpg,,,,,,,,,,,,,,,
93,15,Memory,1,,,,,,,sunavspxmxubqaeidjt.jpg,,,,,,,,,,,,,,,
94,15,Memory,1,,,,,,,sundahdxwmcdluscvot.jpg,,,,,,,,,,,,,,,
95,15,Memory,1,,,,,,,sunbwdrdvsweerwsdrj.jpg,,,,,,,,,,,,,,,
96,15,Memory,1,,,,,,,sunaaheqzstzxuadglu.jpg,,,,,,,,,,,,,,,
97,15,Memory,1,,,,,,,00942960627fa.jpg,,,,,,,,,,,,,,,
98,15,Memory,1,,,,,,,sunagjzcrjvmxzqzljx.jpg,,,,,,,,,,,,,,,
99,15,Memory,1,,,,,,,01011960627fa.jpg,,,,,,,,,,,,,,,
100,15,Presentation,2,00857940307fa_sunaiwfobocrruqznsv.jpg,00978960627fa_sunbddbivbptlrlauhy.jpg,00857940307fa.jpg,sunaiwfobocrruqznsv.jpg,00978960627fa.jpg,sunbddbivbptlrlauhy.jpg,,,>,Face,,,,,1,,,,,,,o
101,15,Presentation,2,00589940928fa_sunacwggadqsfpovdjv.jpg,00746941201fa_sunaetydippjxikifsb.jpg,00589940928fa.jpg,sunacwggadqsfpovdjv.jpg,00746941201fa.jpg,sunaetydippjxikifsb.jpg,,,>,Place,,,,,1,,,,,,,x
102,15,Presentation,2,00953960627fa_sunatstrpjxhvtbaczf.jpg,00788941205fa_sunagountlxpzkytsmp.jpg,00953960627fa.jpg,sunatstrpjxhvtbaczf.jpg,00788941205fa.jpg,sunagountlxpzkytsmp.jpg,,,<,Face,,,,,1,,,,,,,o
103,15,Presentation,2,00749941201fa_sunaeuvjbmdpknaqqaj.jpg,00138931230fa_sunaapfaivxqoynnwwp.jpg,00749941201fa.jpg,sunaeuvjbmdpknaqqaj.jpg,00138931230fa.jpg,sunaapfaivxqoynnwwp.jpg,,,>,Place,,,,,1,,,,,,,x
104,15,Presentation,2,00922960627fa_sunapqkyghktgtosuuk.jpg,00239940128fa_sunabctlikybqabezjv.jpg,00922960627fa.jpg,sunapqkyghktgtosuuk.jpg,00239940128fa.jpg,sunabctlikybqabezjv.jpg,,,<,Place,,,,,1,,,,,,,o
105,15,Presentation,2,00805941205fa_sunagwzdbtlixdhgolm.jpg,00938960627fa_sunaqyylsngywqzwfmx.jpg,00805941205fa.jpg,sunagwzdbtlixdhgolm.jpg,00938960627fa.jpg,sunaqyylsngywqzwfmx.jpg,,,>,Place,,,,,1,,,,,,,o
106,15,Presentation,2,00081941031fa_sunaaftlyfudyzuhqzf.jpg,00871940307_sunajrujcsdxmfbssmc.jpg,00081941031fa.jpg,sunaaftlyfudyzuhqzf.jpg,00871940307.jpg,sunajrujcsdxmfbssmc.jpg,,,<,Face,,,,,1,,,,,,,x
107,15,Presentation,2,00598940928fa_sunacxeheuiigkcgquf.jpg,00184940128fa_sunaavtbadenwnzeutj.jpg,00598940928fa.jpg,sunacxeheuiigkcgquf.jpg,00184940128fa.jpg,sunaavtbadenwnzeutj.jpg,,,>,Face,,,,,1,,,,,,,o
108,15,Presentation,2,00906960530fa_sunantryfbloeaomfta.jpg,00950960627fa_sunasrjlmglmjzbmqxb.jpg,00906960530fa.jpg,sunantryfbloeaomfta.jpg,00950960627fa.jpg,sunasrjlmglmjzbmqxb.jpg,,,<,Face,,,,,1,,,,,,,o
109,15,Presentation,2,00214940128fa_sunabbafjowbzcvbucc.jpg,00965960627fa_sunaydywdmvlfddbxbk.jpg,00214940128fa.jpg,sunabbafjowbzcvbucc.jpg,00965960627fa.jpg,sunaydywdmvlfddbxbk.jpg,,,<,Place,,,,,1,,,,,,,x
110,15,Memory,2,,,,,,,sunabbafjowbzcvbucc.jpg,,,,,,,,,,,,,,,
111,15,Memory,2,,,,,,,00950960627fa.jpg,,,,,,,,,,,,,,,
112,15,Memory,2,,,,,,,00805941205fa.jpg,,,,,,,,,,,,,,,
113,15,Memory,2,,,,,,,sunatstrpjxhvtbaczf.jpg,,,,,,,,,,,,,,,
114,15,Memory,2,,,,,,,sunaapfaivxqoynnwwp.jpg,,,,,,,,,,,,,,,
115,15,Memory,2,,,,,,,sunagwzdbtlixdhgolm.jpg,,,,,,,,,,,,,,,
116,15,Memory,2,,,,,,,00870940307fa.jpg,,,,,,,,,,,,,,,
117,15,Memory,2,,,,,,,00953960627fa.jpg,,,,,,,,,,,,,,,
118,15,Memory,2,,,,,,,sunasrjlmglmjzbmqxb.jpg,,,,,,,,,,,,,,,
119,15,Memory,2,,,,,,,00938960627fa.jpg,,,,,,,,,,,,,,,
120,15,Memory,2,,,,,,,00108960530fa.jpg,,,,,,,,,,,,,,,
121,15,Memory,2,,,,,,,00947960627fa.jpg,,,,,,,,,,,,,,,
122,15,Memory,2,,,,,,,sunabckqabszusgcykj.jpg,,,,,,,,,,,,,,,
123,15,Memory,2,,,,,,,00081941031fa.jpg,,,,,,,,,,,,,,,
124,15,Memory,2,,,,,,,00978960627fa.jpg,,,,,,,,,,,,,,,
125,15,Memory,2,,,,,,,sunajrgtewnualfcerj.jpg,,,,,,,,,,,,,,,
126,15,Memory,2,,,,,,,sunaqyylsngywqzwfmx.jpg,,,,,,,,,,,,,,,
127,15,Memory,2,,,,,,,00214940128fa.jpg,,,,,,,,,,,,,,,
128,15,Memory,2,,,,,,,00554940519fa.jpg,,,,,,,,,,,,,,,
129,15,Memory,2,,,,,,,00976960627fa.jpg,,,,,,,,,,,,,,,
130,15,Memory,2,,,,,,,sunasmmcxdddtmtazwx.jpg,,,,,,,,,,,,,,,
131,15,Memory,2,,,,,,,sunabbwggenhfbftyvi.jpg,,,,,,,,,,,,,,,
132,15,Memory,2,,,,,,,sunbbhqyyzmsxhsbjmp.jpg,,,,,,,,,,,,,,,
133,15,Memory,2,,,,,,,00193940928fa.jpg,,,,,,,,,,,,,,,
134,15,Memory,2,,,,,,,sunacfdkbsrughwqwtt.jpg,,,,,,,,,,,,,,,
135,15,Memory,2,,,,,,,00725941201fa.jpg,,,,,,,,,,,,,,,
136,15,Memory,2,,,,,,,sunaaxjpzcnxligjtjq.jpg,,,,,,,,,,,,,,,
137,15,Memory,2,,,,,,,00138931230fa.jpg,,,,,,,,,,,,,,,
138,15,Memory,2,,,,,,,00218940128fa.jpg,,,,,,,,,,,,,,,
139,15,Memory,2,,,,,,,sunaaftlyfudyzuhqzf.jpg,,,,,,,,,,,,,,,
140,15,Memory,2,,,,,,,00906960530fa.jpg,,,,,,,,,,,,,,,
141,15,Memory,2,,,,,,,sunbddbivbptlrlauhy.jpg,,,,,,,,,,,,,,,
142,15,Memory,2,,,,,,,sunantryfbloeaomfta.jpg,,,,,,,,,,,,,,,
143,15,Memory,2,,,,,,,00227940128fa.jpg,,,,,,,,,,,,,,,
144,15,Memory,2,,,,,,,00796941205fa.jpg,,,,,,,,,,,,,,,
145,15,Memory,2,,,,,,,00871940307.jpg,,,,,,,,,,,,,,,
146,15,Memory,2,,,,,,,sunajrujcsdxmfbssmc.jpg,,,,,,,,,,,,,,,
147,15,Memory,2,,,,,,,sunaajtnvzzpsjdzres.jpg,,,,,,,,,,,,,,,
148,15,Memory,2,,,,,,,sunaefgzwiramypjvtd.jpg,,,,,,,,,,,,,,,
149,15,Memory,2,,,,,,,sunaguchqqnrtodtezq.jpg,,,,,,,,,,,,,,,
150,15,Presentation,3,01009960627fa_sunbxzweleltykebgan.jpg,00630940928fa_sunaczwgyukesaajxnx.jpg,01009960627fa.jpg,sunbxzweleltykebgan.jpg,00630940928fa.jpg,sunaczwgyukesaajxnx.jpg,,,>,Place,,,,,1,,,,,,,o
151,15,Presentation,3,00060931230fa_sunaaehaikpckyjsety.jpg,00741941201fa_sunaemcowdozyphwknd.jpg,00060931230fa.jpg,sunaaehaikpckyjsety.jpg,00741941201fa.jpg,sunaemcowdozyphwknd.jpg,,,<,Face,,,,,1,,,,,,,x
152,15,Presentation,3,00913960530fa_sunaooffzffbhcpirmm.jpg,00093931230fa_sunaahwnmtqsrhocysw.jpg,00913960530fa.jpg,sunaooffzffbhcpirmm.jpg,00093931230fa.jpg,sunaahwnmtqsrhocysw.jpg,,,>,Face,,,,,1,,,,,,,o
153,15,Presentation,3,00636941031fa_sunaddtdkycxbqlpfqa.jpg,00564941031fa_sunacsaovnjezqwbykf.jpg,00636941031fa.jpg,sunaddtdkycxbqlpfqa.jpg,00564941031fa.jpg,sunacsaovnjezqwbykf.jpg,,,>,Face,,,,,1,,,,,,,o
154,15,Presentation,3,01010960627fa_suncnkvbhypnivcohyx.jpg,00124931230fa_sunaalhlvzmjmitybdn.jpg,01010960627fa.jpg,suncnkvbhypnivcohyx.jpg,00124931230fa.jpg,sunaalhlvzmjmitybdn.jpg,,,>,Face,,,,,1,,,,,,,o
155,15,Presentation,3,00133931230fa_sunaanlwnpqndclffxt.jpg,00968960627fa_sunbagfpovqwbuexqdn.jpg,00133931230fa.jpg,sunaanlwnpqndclffxt.jpg,00968960627fa.jpg,sunbagfpovqwbuexqdn.jpg,,,<,Place,,,,,1,,,,,,,o
156,15,Presentation,3,00884960530fa_sunakodkcslgqhqlgwl.jpg,00574940928fa_sunacvbrcejzwmcgnoq.jpg,00884960530fa.jpg,sunakodkcslgqhqlgwl.jpg,00574940928fa.jpg,sunacvbrcejzwmcgnoq.jpg,,,<,Place,,,,,1,,,,,,,x
157,15,Presentation,3,00073931230fa_sunaafbmtoniaasysgu.jpg,00966960627fa_sunaygrtwrwfezqjizr.jpg,00073931230fa.jpg,sunaafbmtoniaasysgu.jpg,00966960627fa.jpg,sunaygrtwrwfezqjizr.jpg,,,<,Face,,,,,1,,,,,,,o
158,15,Presentation,3,00123931230fb_sunaalcrrdbjgdztbiz.jpg,00505960627fa_sunabzuqsrgcsonqlkz.jpg,00123931230fb.jpg,sunaalcrrdbjgdztbiz.jpg,00505960627fa.jpg,sunabzuqsrgcsonqlkz.jpg,,,<,Place,,,,,1,,,,,,,x
159,15,Presentation,3,00142931230fb_sunaapxkpvrhpjplsok.jpg,00949960627fb_sunasnqkkyhilqkxiqm.jpg,00142931230fb.jpg,sunaapxkpvrhpjplsok.jpg,00949960627fb.jpg,sunasnqkkyhilqkxiqm.jpg,,,>,Place,,,,,1,,,,,,,x
160,15,Memory,3,,,,,,,01010960627fa.jpg,,,,,,,,,,,,,,,
161,15,Memory,3,,,,,,,00080931230fb.jpg,,,,,,,,,,,,,,,
162,15,Memory,3,,,,,,,sunaemcowdozyphwknd.jpg,,,,,,,,,,,,,,,
163,15,Memory,3,,,,,,,sunabqowuarvqqcnipn.jpg,,,,,,,,,,,,,,,
164,15,Memory,3,,,,,,,sunaahwnmtqsrhocysw.jpg,,,,,,,,,,,,,,,
165,15,Memory,3,,,,,,,sunaygrtwrwfezqjizr.jpg,,,,,,,,,,,,,,,
166,15,Memory,3,,,,,,,00086931230fa.jpg,,,,,,,,,,,,,,,
167,15,Memory,3,,,,,,,00133931230fa.jpg,,,,,,,,,,,,,,,
168,15,Memory,3,,,,,,,sunacvbrcejzwmcgnoq.jpg,,,,,,,,,,,,,,,
169,15,Memory,3,,,,,,,00073931230fa.jpg,,,,,,,,,,,,,,,
170,15,Memory,3,,,,,,,sunaafbmtoniaasysgu.jpg,,,,,,,,,,,,,,,
171,15,Memory,3,,,,,,,00093931230fa.jpg,,,,,,,,,,,,,,,
172,15,Memory,3,,,,,,,sunaafjszryxyavjzln.jpg,,,,,,,,,,,,,,,
173,15,Memory,3,,,,,,,01009960627fa.jpg,,,,,,,,,,,,,,,
174,15,Memory,3,,,,,,,sunacacflqoyxhsqzhe.jpg,,,,,,,,,,,,,,,
175,15,Memory,3,,,,,,,sunacsaovnjezqwbykf.jpg,,,,,,,,,,,,,,,
176,15,Memory,3,,,,,,,00564941031fa.jpg,,,,,,,,,,,,,,,
177,15,Memory,3,,,,,,,sunawksfbacycuhbrsc.jpg,,,,,,,,,,,,,,,
178,15,Memory,3,,,,,,,00741941201fa.jpg,,,,,,,,,,,,,,,
179,15,Memory,3,,,,,,,00794960620fa.jpg,,,,,,,,,,,,,,,
180,15,Memory,3,,,,,,,suncnkvbhypnivcohyx.jpg,,,,,,,,,,,,,,,
181,15,Memory,3,,,,,,,00290940422fa.jpg,,,,,,,,,,,,,,,
182,15,Memory,3,,,,,,,00574940928fa.jpg,,,,,,,,,,,,,,,
183,15,Memory,3,,,,,,,00507940519fa.jpg,,,,,,,,,,,,,,,
184,15,Memory,3,,,,,,,00559940519fa.jpg,,,,,,,,,,,,,,,
185,15,Memory,3,,,,,,,00782941205fa.jpg,,,,,,,,,,,,,,,
186,15,Memory,3,,,,,,,00098931230fa.jpg,,,,,,,,,,,,,,,
187,15,Memory,3,,,,,,,00966960627fa.jpg,,,,,,,,,,,,,,,
188,15,Memory,3,,,,,,,sunacjkmnpawfzbyvae.jpg,,,,,,,,,,,,,,,
189,15,Memory,3,,,,,,,sunaajpqmulidejvjsr.jpg,,,,,,,,,,,,,,,
190,15,Memory,3,,,,,,,sunbxzweleltykebgan.jpg,,,,,,,,,,,,,,,
191,15,Memory,3,,,,,,,sunaanlwnpqndclffxt.jpg,,,,,,,,,,,,,,,
192,15,Memory,3,,,,,,,sunagtqhhwxjeuxdebe.jpg,,,,,,,,,,,,,,,
193,15,Memory,3,,,,,,,00960960627fa.jpg,,,,,,,,,,,,,,,
194,15,Memory,3,,,,,,,sunagdzlvkqtpnfxfcg.jpg,,,,,,,,,,,,,,,
195,15,Memory,3,,,,,,,00142931230fb.jpg,,,,,,,,,,,,,,,
196,15,Memory,3,,,,,,,00779941205fa.jpg,,,,,,,,,,,,,,,
197,15,Memory,3,,,,,,,sunaafynehyrzpsoaml.jpg,,,,,,,,,,,,,,,
198,15,Memory,3,,,,,,,sunaapxkpvrhpjplsok.jpg,,,,,,,,,,,,,,,
199,15,Memory,3,,,,,,,sunagfvluwixdsozaql.jpg,,,,,,,,,,,,,,,
200,15,Presentation,4,00935960627fa_sunaqbmgkgqucajzrkp.jpg,00774941201fa_sunafvtpfczkzopbgue.jpg,00935960627fa.jpg,sunaqbmgkgqucajzrkp.jpg,00774941201fa.jpg,sunafvtpfczkzopbgue.jpg,,,>,Place,,,,,1,,,,,,,x
201,15,Presentation,4,00885960530fa_sunakwlvxjpddialozd.jpg,00773941201fa_sunafvcflzhlqloapyo.jpg,00885960530fa.jpg,sunakwlvxjpddialozd.jpg,00773941201fa.jpg,sunafvcflzhlqloapyo.jpg,,,>,Face,,,,,1,,,,,,,x
202,15,Presentation,4,00961960627fa_sunawotxrevnqvamsfp.jpg,00744941201fa_sunaeomlfaabhpswasy.jpg,00961960627fa.jpg,sunawotxrevnqvamsfp.jpg,00744941201fa.jpg,sunaeomlfaabhpswasy.jpg,,,<,Face,,,,,1,,,,,,,x
203,15,Presentation,4,00211940128fa_sunabasphceswhwwqvv.jpg,00267940128fb_sunablfqiwfqomjarht.jpg,00211940128fa.jpg,sunabasphceswhwwqvv.jpg,00267940128fb.jpg,sunablfqiwfqomjarht.jpg,,,>,Place,,,,,1,,,,,,,x
204,15,Presentation,4,00839940307fa_sunaipyohrqlwngaqif.jpg,00807941205fa_sunahawfngukizslzsd.jpg,00839940307fa.jpg,sunaipyohrqlwngaqif.jpg,00807941205fa.jpg,sunahawfngukizslzsd.jpg,,,<,Place,,,,,1,,,,,,,o
205,15,Presentation,4,00727941205fa_sunaeisnjeetzmkbuad.jpg,00670941121fa_sunadochqcucscehsgk.jpg,00727941205fa.jpg,sunaeisnjeetzmkbuad.jpg,00670941121fa.jpg,sunadochqcucscehsgk.jpg,,,>,Place,,,,,1,,,,,,,o
206,15,Presentation,4,00937960627fa_sunaqsolmfydodnakub.jpg,01005960627fa_sunbwyuesflwdpqtgoy.jpg,00937960627fa.jpg,sunaqsolmfydodnakub.jpg,01005960627fa.jpg,sunbwyuesflwdpqtgoy.jpg,,,<,Place,,,,,1,,,,,,,x
207,15,Presentation,4,00893960530Fa_sunaloffvbvysigxent.jpg,00786941205fa_sunagmhildamktmqjss.jpg,00893960530Fa.jpg,sunaloffvbvysigxent.jpg,00786941205fa.jpg,sunagmhildamktmqjss.jpg,,,>,Face,,,,,1,,,,,,,o
208,15,Presentation,4,00933960627fa_sunapwjkcxdaeqehfql.jpg,00914960620fa_sunaozisvwfbmlkfhzv.jpg,00933960627fa.jpg,sunapwjkcxdaeqehfql.jpg,00914960620fa.jpg,sunaozisvwfbmlkfhzv.jpg,,,<,Face,,,,,1,,,,,,,o
209,15,Presentation,4,00793941205fa_sunagtjwilqjvxohypn.jpg,00908960530fa_sunanwjjyqqwzqrqagd.jpg,00793941205fa.jpg,sunagtjwilqjvxohypn.jpg,00908960530fa.jpg,sunanwjjyqqwzqrqagd.jpg,,,<,Face,,,,,1,,,,,,,x
210,15,Memory,4,,,,,,,00267940128fb.jpg,,,,,,,,,,,,,,,
211,15,Memory,4,,,,,,,00935960627fa.jpg,,,,,,,,,,,,,,,
212,15,Memory,4,,,,,,,sunaozisvwfbmlkfhzv.jpg,,,,,,,,,,,,,,,
213,15,Memory,4,,,,,,,00933960627fa.jpg,,,,,,,,,,,,,,,
214,15,Memory,4,,,,,,,sunaayehfdqcyxggsej.jpg,,,,,,,,,,,,,,,
215,15,Memory,4,,,,,,,sunaeomlfaabhpswasy.jpg,,,,,,,,,,,,,,,
216,15,Memory,4,,,,,,,sunaflojskatpeqyzqp.jpg,,,,,,,,,,,,,,,
217,15,Memory,4,,,,,,,sunafvtpfczkzopbgue.jpg,,,,,,,,,,,,,,,
218,15,Memory,4,,,,,,,sunadpnqovzckyikrjo.jpg,,,,,,,,,,,,,,,
219,15,Memory,4,,,,,,,sunaisiwfgppimtnmxl.jpg,,,,,,,,,,,,,,,
220,15,Memory,4,,,,,,,sunaloffvbvysigxent.jpg,,,,,,,,,,,,,,,
221,15,Memory,4,,,,,,,00895960530fa.jpg,,,,,,,,,,,,,,,
222,15,Memory,4,,,,,,,00077931230fb.jpg,,,,,,,,,,,,,,,
223,15,Memory,4,,,,,,,00841940307fa.jpg,,,,,,,,,,,,,,,
224,15,Memory,4,,,,,,,00961960627fa.jpg,,,,,,,,,,,,,,,
225,15,Memory,4,,,,,,,00744941201fa.jpg,,,,,,,,,,,,,,,
226,15,Memory,4,,,,,,,00770941201fa.jpg,,,,,,,,,,,,,,,
227,15,Memory,4,,,,,,,00774941201fa.jpg,,,,,,,,,,,,,,,
228,15,Memory,4,,,,,,,00676941121fa.jpg,,,,,,,,,,,,,,,
229,15,Memory,4,,,,,,,00792941205fa.jpg,,,,,,,,,,,,,,,
230,15,Memory,4,,,,,,,sunagmhildamktmqjss.jpg,,,,,,,,,,,,,,,
231,15,Memory,4,,,,,,,sunaafgqutfaishsxyu.jpg,,,,,,,,,,,,,,,
232,15,Memory,4,,,,,,,sunaqbmgkgqucajzrkp.jpg,,,,,,,,,,,,,,,
233,15,Memory,4,,,,,,,sunaakxgygjfqrzpyoz.jpg,,,,,,,,,,,,,,,
234,15,Memory,4,,,,,,,00859940307fa.jpg,,,,,,,,,,,,,,,
235,15,Memory,4,,,,,,,00120931230fa.jpg,,,,,,,,,,,,,,,
236,15,Memory,4,,,,,,,sunamczizlzavhzhpay.jpg,,,,,,,,,,,,,,,
237,15,Memory,4,,,,,,,00893960530Fa.jpg,,,,,,,,,,,,,,,
238,15,Memory,4,,,,,,,00786941205fa.jpg,,,,,,,,,,,,,,,
239,15,Memory,4,,,,,,,sunaqsolmfydodnakub.jpg,,,,,,,,,,,,,,,
240,15,Memory,4,,,,,,,sunaiycurtqsfkvcaso.jpg,,,,,,,,,,,,,,,
241,15,Memory,4,,,,,,,sunbwaafjdebjzttuvq.jpg,,,,,,,,,,,,,,,
242,15,Memory,4,,,,,,,sunablfqiwfqomjarht.jpg,,,,,,,,,,,,,,,
243,15,Memory,4,,,,,,,00937960627fa.jpg,,,,,,,,,,,,,,,
244,15,Memory,4,,,,,,,sunapwjkcxdaeqehfql.jpg,,,,,,,,,,,,,,,
245,15,Memory,4,,,,,,,01002960627fb.jpg,,,,,,,,,,,,,,,
246,15,Memory,4,,,,,,,00194940128fb.jpg,,,,,,,,,,,,,,,
247,15,Memory,4,,,,,,,00914960620fa.jpg,,,,,,,,,,,,,,,
248,15,Memory,4,,,,,,,sunagsiwrmuixqgdimb.jpg,,,,,,,,,,,,,,,
249,15,Memory,4,,,,,,,sunawotxrevnqvamsfp.jpg,,,,,,,,,,,,,,,
250,15,Presentation,5,00221940128fa_sunabcfpwlpolnutyju.jpg,00132931230fb_sunaanjcbzdvtvblsdy.jpg,00221940128fa.jpg,sunabcfpwlpolnutyju.jpg,00132931230fb.jpg,sunaanjcbzdvtvblsdy.jpg,,,<,Face,,,,,1,,,,,,,o
251,15,Presentation,5,00838940307fa_sunaiozxhxgtfrmoagh.jpg,00780960530fa_sunagetqixeypsysbpn.jpg,00838940307fa.jpg,sunaiozxhxgtfrmoagh.jpg,00780960530fa.jpg,sunagetqixeypsysbpn.jpg,,,>,Face,,,,,1,,,,,,,o
252,15,Presentation,5,00129931230fb_sunaamsdyakblkfoydx.jpg,00675941121fa_sunadoxcchtmsxewsau.jpg,00129931230fb.jpg,sunaamsdyakblkfoydx.jpg,00675941121fa.jpg,sunadoxcchtmsxewsau.jpg,,,<,Place,,,,,1,,,,,,,x
253,15,Presentation,5,00635941031fa_sunaddsaeicthrfbkhe.jpg,00260940128fa_sunabgfhvifeijihhjw.jpg,00635941031fa.jpg,sunaddsaeicthrfbkhe.jpg,00260940128fa.jpg,sunabgfhvifeijihhjw.jpg,,,<,Face,,,,,1,,,,,,,x
254,15,Presentation,5,00082931230fa_sunaafvitpexrpvumsa.jpg,00308940422fb_sunabwfvcqqidycwypa.jpg,00082931230fa.jpg,sunaafvitpexrpvumsa.jpg,00308940422fb.jpg,sunabwfvcqqidycwypa.jpg,,,>,Place,,,,,1,,,,,,,x
255,15,Presentation,5,00828940307fa_sunahuynahneraqftyz.jpg,00931960627fa_sunaptrqvaooxfvktvw.jpg,00828940307fa.jpg,sunahuynahneraqftyz.jpg,00931960627fa.jpg,sunaptrqvaooxfvktvw.jpg,,,<,Place,,,,,0,,,,,,,x
256,15,Presentation,5,00557940519fa_sunachtuarilwyqnvjx.jpg,00112931230fa_sunaakjaacuzulqckgl.jpg,00557940519fa.jpg,sunachtuarilwyqnvjx.jpg,00112931230fa.jpg,sunaakjaacuzulqckgl.jpg,,,>,Face,,,,,1,,,,,,,x
257,15,Presentation,5,00926960627Fa_sunapqwoeotxshkukbh.jpg,00210940128fb_sunabanoxjtqxamkucc.jpg,00926960627Fa.jpg,sunapqwoeotxshkukbh.jpg,00210940128fb.jpg,sunabanoxjtqxamkucc.jpg,,,<,Place,,,,,1,,,,,,,o
258,15,Presentation,5,00663941121fa_sunadnjjzohjhbohlwq.jpg,00576941031fa_sunacvjlsylseoghjup.jpg,00663941121fa.jpg,sunadnjjzohjhbohlwq.jpg,00576941031fa.jpg,sunacvjlsylseoghjup.jpg,,,>,Place,,,,,1,,,,,,,x
259,15,Presentation,5,00633940928fa_sunadbhmrgrrpyzglxs.jpg,00305940422fa_sunabtrnbvpppgczjim.jpg,00633940928fa.jpg,sunadbhmrgrrpyzglxs.jpg,00305940422fa.jpg,sunabtrnbvpppgczjim.jpg,,,>,Face,,,,,1,,,,,,,o
260,15,Memory,5,,,,,,,01004960627fa.jpg,,,,,,,,,,,,,,,
261,15,Memory,5,,,,,,,00780960530fa.jpg,,,,,,,,,,,,,,,
262,15,Memory,5,,,,,,,00926960627Fa.jpg,,,,,,,,,,,,,,,
263,15,Memory,5,,,,,,,sunafijbgncijwykrnl.jpg,,,,,,,,,,,,,,,
264,15,Memory,5,,,,,,,sunabanoxjtqxamkucc.jpg,,,,,,,,,,,,,,,
265,15,Memory,5,,,,,,,00571940928fa.jpg,,,,,,,,,,,,,,,
266,15,Memory,5,,,,,,,sunaofikylqtxphvdem.jpg,,,,,,,,,,,,,,,
267,15,Memory,5,,,,,,,00131931230fb.jpg,,,,,,,,,,,,,,,
268,15,Memory,5,,,,,,,sunaamsdyakblkfoydx.jpg,,,,,,,,,,,,,,,
269,15,Memory,5,,,,,,,sunbbegcweqnetpdlrh.jpg,,,,,,,,,,,,,,,
270,15,Memory,5,,,,,,,00675941121fa.jpg,,,,,,,,,,,,,,,
271,15,Memory,5,,,,,,,00719960620fa.jpg,,,,,,,,,,,,,,,
272,15,Memory,5,,,,,,,00557940519fa.jpg,,,,,,,,,,,,,,,
273,15,Memory,5,,,,,,,sunaamvxnvouicstkjb.jpg,,,,,,,,,,,,,,,
274,15,Memory,5,,,,,,,sunachtuarilwyqnvjx.jpg,,,,,,,,,,,,,,,
275,15,Memory,5,,,,,,,sunaangbuylfvckqqoo.jpg,,,,,,,,,,,,,,,
276,15,Memory,5,,,,,,,sunapqwoeotxshkukbh.jpg,,,,,,,,,,,,,,,
277,15,Memory,5,,,,,,,sunbwtlihsuptkrckid.jpg,,,,,,,,,,,,,,,
278,15,Memory,5,,,,,,,00130931230fa.jpg,,,,,,,,,,,,,,,
279,15,Memory,5,,,,,,,00308940422fb.jpg,,,,,,,,,,,,,,,
280,15,Memory,5,,,,,,,sunabwfvcqqidycwypa.jpg,,,,,,,,,,,,,,,
281,15,Memory,5,,,,,,,00971960627fa.jpg,,,,,,,,,,,,,,,
282,15,Memory,5,,,,,,,00197940128fa.jpg,,,,,,,,,,,,,,,
283,15,Memory,5,,,,,,,00663941121fa.jpg,,,,,,,,,,,,,,,
284,15,Memory,5,,,,,,,sunadoxcchtmsxewsau.jpg,,,,,,,,,,,,,,,
285,15,Memory,5,,,,,,,00635941031fa.jpg,,,,,,,,,,,,,,,
286,15,Memory,5,,,,,,,sunagetqixeypsysbpn.jpg,,,,,,,,,,,,,,,
287,15,Memory,5,,,,,,,sunadzuvtmtmgupotmf.jpg,,,,,,,,,,,,,,,
288,15,Memory,5,,,,,,,sunaaylzyqlqrsmfwif.jpg,,,,,,,,,,,,,,,
289,15,Memory,5,,,,,,,00260940128fa.jpg,,,,,,,,,,,,,,,
290,15,Memory,5,,,,,,,sunaddsaeicthrfbkhe.jpg,,,,,,,,,,,,,,,
291,15,Memory,5,,,,,,,00910960530fa.jpg,,,,,,,,,,,,,,,
292,15,Memory,5,,,,,,,00944960627fa.jpg,,,,,,,,,,,,,,,
293,15,Memory,5,,,,,,,00129931230fb.jpg,,,,,,,,,,,,,,,
294,15,Memory,5,,,,,,,sunabgfhvifeijihhjw.jpg,,,,,,,,,,,,,,,
295,15,Memory,5,,,,,,,sunadnjjzohjhbohlwq.jpg,,,,,,,,,,,,,,,
296,15,Memory,5,,,,,,,00766960620fa.jpg,,,,,,,,,,,,,,,
297,15,Memory,5,,,,,,,sunasbbntuiheekqyaq.jpg,,,,,,,,,,,,,,,
298,15,Memory,5,,,,,,,sunacuatpqpqhyjhjqk.jpg,,,,,,,,,,,,,,,
299,15,Memory,5,,,,,,,00210940128fb.jpg,,,,,,,,,,,,,,,
300,15,Presentation,6,00620940928fa_sunacypmnujalygkunp.jpg,00977960627fa_sunbbxkanhzjgbwyxqs.jpg,00620940928fa.jpg,sunacypmnujalygkunp.jpg,00977960627fa.jpg,sunbbxkanhzjgbwyxqs.jpg,,,>,Face,,,,,1,,,,,,,o
301,15,Presentation,6,00874940307fa_sunajtrfunvzdfticna.jpg,00866940307fa_sunajbwkywmsqkldfml.jpg,00874940307fa.jpg,sunajtrfunvzdfticna.jpg,00866940307fa.jpg,sunajbwkywmsqkldfml.jpg,,,<,Place,,,,,1,,,,,,,x
302,15,Presentation,6,00877960530fa_sunajxpkuhbizeveguy.jpg,00791941205fa_sunagrmyoovzukhxmlo.jpg,00877960530fa.jpg,sunajxpkuhbizeveguy.jpg,00791941205fa.jpg,sunagrmyoovzukhxmlo.jpg,,,<,Face,,,,,1,,,,,,,o
303,15,Presentation,6,00835940307fa_sunaijsqpvodplbwxkf.jpg,00911960530fa_sunaooaqzputrowwbsw.jpg,00835940307fa.jpg,sunaijsqpvodplbwxkf.jpg,00911960530fa.jpg,sunaooaqzputrowwbsw.jpg,,,>,Face,,,,,0,,,,,,,o
304,15,Presentation,6,00638941031fa_sunadfktsqjthoglcsm.jpg,00816941205fa_sunahmhrncocyhsjpxk.jpg,00638941031fa.jpg,sunadfktsqjthoglcsm.jpg,00816941205fa.jpg,sunahmhrncocyhsjpxk.jpg,,,<,Face,,,,,1,,,,,,,x
305,15,Presentation,6,00482940519fa_sunabyfxcxhdebvdyfd.jpg,00076931230fa_sunaafewhewbxmjiurz.jpg,00482940519fa.jpg,sunabyfxcxhdebvdyfd.jpg,00076931230fa.jpg,sunaafewhewbxmjiurz.jpg,,,>,Place,,,,,1,,,,,,,o
306,15,Presentation,6,00785941205fa_sunaglqunwuycxydmyu.jpg,00498960627fa_sunabzjxlmkwnwzimua.jpg,00785941205fa.jpg,sunaglqunwuycxydmyu.jpg,00498960627fa.jpg,sunabzjxlmkwnwzimua.jpg,,,>,Place,,,,,1,,,,,,,o
307,15,Presentation,6,00982960627fa_sunbesrwkdsffeogeqq.jpg,00747941201fa_sunaeutbrtswvsozxyk.jpg,00982960627fa.jpg,sunbesrwkdsffeogeqq.jpg,00747941201fa.jpg,sunaeutbrtswvsozxyk.jpg,,,<,Place,,,,,1,,,,,,,x
308,15,Presentation,6,00892960530fa_sunalntxqqadigcletd.jpg,00989960627fa_sunbondbduabvijnmch.jpg,00892960530fa.jpg,sunalntxqqadigcletd.jpg,00989960627fa.jpg,sunbondbduabvijnmch.jpg,,,<,Place,,,,,1,,,,,,,x
309,15,Presentation,6,00681941121fa_sunadqmjrhfjyuzyvdd.jpg,00818940307fa_sunahpblecxtmuzkmxb.jpg,00681941121fa.jpg,sunadqmjrhfjyuzyvdd.jpg,00818940307fa.jpg,sunahpblecxtmuzkmxb.jpg,,,>,Face,,,,,1,,,,,,,o
310,15,Memory,6,,,,,,,00982960627fa.jpg,,,,,,,,,,,,,,,
311,15,Memory,6,,,,,,,sunacepzfrmtkiqonpy.jpg,,,,,,,,,,,,,,,
312,15,Memory,6,,,,,,,sunbesrwkdsffeogeqq.jpg,,,,,,,,,,,,,,,
313,15,Memory,6,,,,,,,sunaduslxfzlbxlllnz.jpg,,,,,,,,,,,,,,,
314,15,Memory,6,,,,,,,sunaauueuhhvklldjik.jpg,,,,,,,,,,,,,,,
315,15,Memory,6,,,,,,,sunadfktsqjthoglcsm.jpg,,,,,,,,,,,,,,,
316,15,Memory,6,,,,,,,sunagrmyoovzukhxmlo.jpg,,,,,,,,,,,,,,,
317,15,Memory,6,,,,,,,00955960627fb.jpg,,,,,,,,,,,,,,,
318,15,Memory,6,,,,,,,00498960627fa.jpg,,,,,,,,,,,,,,,
319,15,Memory,6,,,,,,,sunaglqunwuycxydmyu.jpg,,,,,,,,,,,,,,,
320,15,Memory,6,,,,,,,00154931230fa.jpg,,,,,,,,,,,,,,,
321,15,Memory,6,,,,,,,00835940307fa.jpg,,,,,,,,,,,,,,,
322,15,Memory,6,,,,,,,00866940307fa.jpg,,,,,,,,,,,,,,,
323,15,Memory,6,,,,,,,00892960530fa.jpg,,,,,,,,,,,,,,,
324,15,Memory,6,,,,,,,sunabzjxlmkwnwzimua.jpg,,,,,,,,,,,,,,,
325,15,Memory,6,,,,,,,sunaafewhewbxmjiurz.jpg,,,,,,,,,,,,,,,
326,15,Memory,6,,,,,,,00208940128fa.jpg,,,,,,,,,,,,,,,
327,15,Memory,6,,,,,,,sunauburywlkjszngcq.jpg,,,,,,,,,,,,,,,
328,15,Memory,6,,,,,,,sunahctntqrunhdxhtb.jpg,,,,,,,,,,,,,,,
329,15,Memory,6,,,,,,,sunalntxqqadigcletd.jpg,,,,,,,,,,,,,,,
330,15,Memory,6,,,,,,,00543940519fa.jpg,,,,,,,,,,,,,,,
331,15,Memory,6,,,,,,,00854940307fa.jpg,,,,,,,,,,,,,,,
332,15,Memory,6,,,,,,,00810941205fa.jpg,,,,,,,,,,,,,,,
333,15,Memory,6,,,,,,,sunbaejotfklekvpxcz.jpg,,,,,,,,,,,,,,,
334,15,Memory,6,,,,,,,sunaazzyhbvqjpmazjq.jpg,,,,,,,,,,,,,,,
335,15,Memory,6,,,,,,,sunajbwkywmsqkldfml.jpg,,,,,,,,,,,,,,,
336,15,Memory,6,,,,,,,00967960627fa.jpg,,,,,,,,,,,,,,,
337,15,Memory,6,,,,,,,sunaiwduelojtwaqeyh.jpg,,,,,,,,,,,,,,,
338,15,Memory,6,,,,,,,00076931230fa.jpg,,,,,,,,,,,,,,,
339,15,Memory,6,,,,,,,00638941031fa.jpg,,,,,,,,,,,,,,,
340,15,Memory,6,,,,,,,sunafpfpiiujzoesnqg.jpg,,,,,,,,,,,,,,,
341,15,Memory,6,,,,,,,00785941205fa.jpg,,,,,,,,,,,,,,,
342,15,Memory,6,,,,,,,sunaooaqzputrowwbsw.jpg,,,,,,,,,,,,,,,
343,15,Memory,6,,,,,,,00791941205fa.jpg,,,,,,,,,,,,,,,
344,15,Memory,6,,,,,,,sunaijsqpvodplbwxkf.jpg,,,,,,,,,,,,,,,
345,15,Memory,6,,,,,,,00772941201fa.jpg,,,,,,,,,,,,,,,
346,15,Memory,6,,,,,,,00936960627fa.jpg,,,,,,,,,,,,,,,
347,15,Memory,6,,,,,,,00705960530fa.jpg,,,,,,,,,,,,,,,
348,15,Memory,6,,,,,,,sunaqgjuuwvdcyiccjt.jpg,,,,,,,,,,,,,,,
349,15,Memory,6,,,,,,,00911960530fa.jpg,,,,,,,,,,,,,,,
350,15,Presentation,7,00773960620fa_sunafvsxtzaizojicxx.jpg,00694941121fa_sunadrmfzmstgdjdcod.jpg,00773960620fa.jpg,sunafvsxtzaizojicxx.jpg,00694941121fa.jpg,sunadrmfzmstgdjdcod.jpg,,,>,Face,,,,,0,,,,,,,x
351,15,Presentation,7,00776941205fa_sunafxokyavhgptyfye.jpg,00797960620fa_sunagufzbeteqdjxais.jpg,00776941205fa.jpg,sunafxokyavhgptyfye.jpg,00797960620fa.jpg,sunagufzbeteqdjxais.jpg,,,>,Place,,,,,1,,,,,,,x
352,15,Presentation,7,00943960627fa_sunarpsxqkduedrrzyi.jpg,00280940422fb_sunabohxbskznglnrhv.jpg,00943960627fa.jpg,sunarpsxqkduedrrzyi.jpg,00280940422fb.jpg,sunabohxbskznglnrhv.jpg,,,>,Face,,,,,1,,,,,,,o
353,15,Presentation,7,00162931230fb_sunaavjinpnkappuonm.jpg,00970960627fa_sunbasypfgzjtomktmu.jpg,00162931230fb.jpg,sunaavjinpnkappuonm.jpg,00970960627fa.jpg,sunbasypfgzjtomktmu.jpg,,,<,Place,,,,,0,,,,,,,o
354,15,Presentation,7,00777941205fa_sunagcinxkccdtrjmlv.jpg,00071941031fa_sunaaexqbtdswxrqjvz.jpg,00777941205fa.jpg,sunagcinxkccdtrjmlv.jpg,00071941031fa.jpg,sunaaexqbtdswxrqjvz.jpg,,,>,Face,,,,,1,,,,,,,x
355,15,Presentation,7,00901960530fa_sunammbnoambmhdxdwd.jpg,00834940307fa_sunaibnpvhkdpdnzcnz.jpg,00901960530fa.jpg,sunammbnoambmhdxdwd.jpg,00834940307fa.jpg,sunaibnpvhkdpdnzcnz.jpg,,,<,Face,,,,,0,,,,,,,o
356,15,Presentation,7,00062931230fb_sunaaelotvjgibjtjhs.jpg,00147931230fb_sunaatpkocdkocwxpkb.jpg,00062931230fb.jpg,sunaaelotvjgibjtjhs.jpg,00147931230fb.jpg,sunaatpkocdkocwxpkb.jpg,,,<,Place,,,,,1,,,,,,,o
357,15,Presentation,7,00985960627fa_sunbgklxeqjhdbyfhhy.jpg,00065931230fb_sunaaemixhfquhnxxlm.jpg,00985960627fa.jpg,sunbgklxeqjhdbyfhhy.jpg,00065931230fb.jpg,sunaaemixhfquhnxxlm.jpg,,,<,Face,,,,,1,,,,,,,o
358,15,Presentation,7,00768941205fa_sunafkmnlytenlsywia.jpg,00800941205fb_sunagvjurcwdbixvnyi.jpg,00768941205fa.jpg,sunafkmnlytenlsywia.jpg,00800941205fb.jpg,sunagvjurcwdbixvnyi.jpg,,,>,Place,,,,,1,,,,,,,o
359,15,Presentation,7,00778941205fa_sunagcthdfirrcawoic.jpg,00146960620fb_sunaatpeezlljqaxlhj.jpg,00778941205fa.jpg,sunagcthdfirrcawoic.jpg,00146960620fb.jpg,sunaatpeezlljqaxlhj.jpg,,,<,Place,,,,,1,,,,,,,x
360,15,Memory,7,,,,,,,sunafbwnojpqeyzssoe.jpg,,,,,,,,,,,,,,,
361,15,Memory,7,,,,,,,sunaauglwmctnkxyird.jpg,,,,,,,,,,,,,,,
362,15,Memory,7,,,,,,,sunbgklxeqjhdbyfhhy.jpg,,,,,,,,,,,,,,,
363,15,Memory,7,,,,,,,00752960620fa.jpg,,,,,,,,,,,,,,,
364,15,Memory,7,,,,,,,sunafvsxtzaizojicxx.jpg,,,,,,,,,,,,,,,
365,15,Memory,7,,,,,,,sunaaexqbtdswxrqjvz.jpg,,,,,,,,,,,,,,,
366,15,Memory,7,,,,,,,sunbmaiocftdtvnzgap.jpg,,,,,,,,,,,,,,,
367,15,Memory,7,,,,,,,sunahgtbwgsmtqeodwh.jpg,,,,,,,,,,,,,,,
368,15,Memory,7,,,,,,,sunadcphrizvfpljiqt.jpg,,,,,,,,,,,,,,,
369,15,Memory,7,,,,,,,00985960627fa.jpg,,,,,,,,,,,,,,,
370,15,Memory,7,,,,,,,sunajwqkfsykceonyig.jpg,,,,,,,,,,,,,,,
371,15,Memory,7,,,,,,,00776941205fa.jpg,,,,,,,,,,,,,,,
372,15,Memory,7,,,,,,,00146960620fb.jpg,,,,,,,,,,,,,,,
373,15,Memory,7,,,,,,,sunabtlfmiwtljmoues.jpg,,,,,,,,,,,,,,,
374,15,Memory,7,,,,,,,00147931230fb.jpg,,,,,,,,,,,,,,,
375,15,Memory,7,,,,,,,sunaaemixhfquhnxxlm.jpg,,,,,,,,,,,,,,,
376,15,Memory,7,,,,,,,00302940422fa.jpg,,,,,,,,,,,,,,,
377,15,Memory,7,,,,,,,sunbasypfgzjtomktmu.jpg,,,,,,,,,,,,,,,
378,15,Memory,7,,,,,,,00812941205fa.jpg,,,,,,,,,,,,,,,
379,15,Memory,7,,,,,,,00970960627fa.jpg,,,,,,,,,,,,,,,
380,15,Memory,7,,,,,,,sunarpsxqkduedrrzyi.jpg,,,,,,,,,,,,,,,
381,15,Memory,7,,,,,,,sunagcthdfirrcawoic.jpg,,,,,,,,,,,,,,,
382,15,Memory,7,,,,,,,00988960627fa.jpg,,,,,,,,,,,,,,,
383,15,Memory,7,,,,,,,00149931230fa.jpg,,,,,,,,,,,,,,,
384,15,Memory,7,,,,,,,sunaizgnnplsvajzhkc.jpg,,,,,,,,,,,,,,,
385,15,Memory,7,,,,,,,sunagjeesomrwjsfqie.jpg,,,,,,,,,,,,,,,
386,15,Memory,7,,,,,,,sunbpflsdaxnddnwcqi.jpg,,,,,,,,,,,,,,,
387,15,Memory,7,,,,,,,00778941205fa.jpg,,,,,,,,,,,,,,,
388,15,Memory,7,,,,,,,00943960627fa.jpg,,,,,,,,,,,,,,,
389,15,Memory,7,,,,,,,00862940307fa.jpg,,,,,,,,,,,,,,,
390,15,Memory,7,,,,,,,00783941205fa.jpg,,,,,,,,,,,,,,,
391,15,Memory,7,,,,,,,sunaatpkocdkocwxpkb.jpg,,,,,,,,,,,,,,,
392,15,Memory,7,,,,,,,00990960627fa.jpg,,,,,,,,,,,,,,,
393,15,Memory,7,,,,,,,sunafxokyavhgptyfye.jpg,,,,,,,,,,,,,,,
394,15,Memory,7,,,,,,,00065931230fb.jpg,,,,,,,,,,,,,,,
395,15,Memory,7,,,,,,,00876960620fa.jpg,,,,,,,,,,,,,,,
396,15,Memory,7,,,,,,,00634940928fa.jpg,,,,,,,,,,,,,,,
397,15,Memory,7,,,,,,,00773960620fa.jpg,,,,,,,,,,,,,,,
398,15,Memory,7,,,,,,,00071941031fa.jpg,,,,,,,,,,,,,,,
399,15,Memory,7,,,,,,,sunaatpeezlljqaxlhj.jpg,,,,,,,,,,,,,,,
