,Subject,Trial Type,Run,Cued Composite,Uncued Composite,Cued Face,Cued Place,Uncued Face,Uncued Place,Memory Image,Category,Cued Side,Cued Category,Attention Response Time (s),Familiarity Reaction Time (s),Familiarity Rating,Attention Level,Cue Validity,Post Invalid Cue,Pre Invalid Cue,Attention Button,Rating History,Stimulus Onset,Stimulus End,Attention Probe
0,5,Presentation,0,00766960620fa_sunafijbgncijwykrnl.jpg,00976960627fa_sunbbhqyyzmsxhsbjmp.jpg,00766960620fa.jpg,sunafijbgncijwykrnl.jpg,00976960627fa.jpg,sunbbhqyyzmsxhsbjmp.jpg,,,<,Place,,,,,1,,,,,,,o
1,5,Presentation,0,00635941031fa_sunaddsaeicthrfbkhe.jpg,00543940519fa_sunacepzfrmtkiqonpy.jpg,00635941031fa.jpg,sunaddsaeicthrfbkhe.jpg,00543940519fa.jpg,sunacepzfrmtkiqonpy.jpg,,,<,Place,,,,,1,,,,,,,x
2,5,Presentation,0,00631940928fa_sunadbdqzigzwipuipr.jpg,00787941205fa_sunagmwxxwymwojbvgi.jpg,00631940928fa.jpg,sunadbdqzigzwipuipr.jpg,00787941205fa.jpg,sunagmwxxwymwojbvgi.jpg,,,<,Place,,,,,1,,,,,,,x
3,5,Presentation,0,00650941031fa_sunadikxpvqeabxrvvc.jpg,00825940307fa_sunahrltmuwbiehihpe.jpg,00650941031fa.jpg,sunadikxpvqeabxrvvc.jpg,00825940307fa.jpg,sunahrltmuwbiehihpe.jpg,,,<,Place,,,,,1,,,,,,,o
4,5,Presentation,0,01004960627fa_sunbwtlihsuptkrckid.jpg,00296940422fa_sunabrwnslxalcohfre.jpg,01004960627fa.jpg,sunbwtlihsuptkrckid.jpg,00296940422fa.jpg,sunabrwnslxalcohfre.jpg,,,<,Place,,,,,1,,,,,,,x
5,5,Presentation,0,00776941205fa_sunafxokyavhgptyfye.jpg,00869940307fa_sunajoveqhiprwqgoco.jpg,00776941205fa.jpg,sunafxokyavhgptyfye.jpg,00869940307fa.jpg,sunajoveqhiprwqgoco.jpg,,,<,Place,,,,,1,,,,,,,x
6,5,Presentation,0,00915960620fa_sunapileznnbbmrwoei.jpg,00723941201fa_sunaedtgwjvvziytspa.jpg,00915960620fa.jpg,sunapileznnbbmrwoei.jpg,00723941201fa.jpg,sunaedtgwjvvziytspa.jpg,,,<,Place,,,,,1,,,,,,,o
7,5,Presentation,0,00970960627fa_sunbasypfgzjtomktmu.jpg,00482940519fa_sunabyfxcxhdebvdyfd.jpg,00970960627fa.jpg,sunbasypfgzjtomktmu.jpg,00482940519fa.jpg,sunabyfxcxhdebvdyfd.jpg,,,<,Place,,,,,1,,,,,,,x
8,5,Presentation,0,00574940928fa_sunacvbrcejzwmcgnoq.jpg,00790941205fa_sunagpjzsbltchlwvou.jpg,00574940928fa.jpg,sunacvbrcejzwmcgnoq.jpg,00790941205fa.jpg,sunagpjzsbltchlwvou.jpg,,,<,Place,,,,,1,,,,,,,o
9,5,Presentation,0,00788941205fa_sunagountlxpzkytsmp.jpg,00911960530fa_sunaooaqzputrowwbsw.jpg,00788941205fa.jpg,sunagountlxpzkytsmp.jpg,00911960530fa.jpg,sunaooaqzputrowwbsw.jpg,,,<,Place,,,,,1,,,,,,,o
10,5,Memory,0,,,,,,,00786941205fa.jpg,,,,,,,,,,,,,,,
11,5,Memory,0,,,,,,,00314940422fa.jpg,,,,,,,,,,,,,,,
12,5,Memory,0,,,,,,,sunantryfbloeaomfta.jpg,,,,,,,,,,,,,,,
13,5,Memory,0,,,,,,,00543940519fa.jpg,,,,,,,,,,,,,,,
14,5,Memory,0,,,,,,,sunafijbgncijwykrnl.jpg,,,,,,,,,,,,,,,
15,5,Memory,0,,,,,,,00743941201fa.jpg,,,,,,,,,,,,,,,
16,5,Memory,0,,,,,,,sunbaoizrfijvhpnnjn.jpg,,,,,,,,,,,,,,,
17,5,Memory,0,,,,,,,sunaedtgwjvvziytspa.jpg,,,,,,,,,,,,,,,
18,5,Memory,0,,,,,,,00906960530fa.jpg,,,,,,,,,,,,,,,
19,5,Memory,0,,,,,,,sunbwtlihsuptkrckid.jpg,,,,,,,,,,,,,,,
20,5,Memory,0,,,,,,,00296940422fa.jpg,,,,,,,,,,,,,,,
21,5,Memory,0,,,,,,,00788941205fa.jpg,,,,,,,,,,,,,,,
22,5,Memory,0,,,,,,,00969960627fa.jpg,,,,,,,,,,,,,,,
23,5,Memory,0,,,,,,,sunaeoghzrjarigmwua.jpg,,,,,,,,,,,,,,,
24,5,Memory,0,,,,,,,00851940307fa.jpg,,,,,,,,,,,,,,,
25,5,Memory,0,,,,,,,sunaivflshbyfrfzhqb.jpg,,,,,,,,,,,,,,,
26,5,Memory,0,,,,,,,sunagmhildamktmqjss.jpg,,,,,,,,,,,,,,,
27,5,Memory,0,,,,,,,00267940128fb.jpg,,,,,,,,,,,,,,,
28,5,Memory,0,,,,,,,00825940307fa.jpg,,,,,,,,,,,,,,,
29,5,Memory,0,,,,,,,00787941205fa.jpg,,,,,,,,,,,,,,,
30,5,Memory,0,,,,,,,sunafcofuuzebuadceo.jpg,,,,,,,,,,,,,,,
31,5,Memory,0,,,,,,,00766960620fa.jpg,,,,,,,,,,,,,,,
32,5,Memory,0,,,,,,,sunagmwxxwymwojbvgi.jpg,,,,,,,,,,,,,,,
33,5,Memory,0,,,,,,,sunafxokyavhgptyfye.jpg,,,,,,,,,,,,,,,
34,5,Memory,0,,,,,,,sunabrjdpmoedcdjbpo.jpg,,,,,,,,,,,,,,,
35,5,Memory,0,,,,,,,sunagountlxpzkytsmp.jpg,,,,,,,,,,,,,,,
36,5,Memory,0,,,,,,,00723941201fa.jpg,,,,,,,,,,,,,,,
37,5,Memory,0,,,,,,,sunablfqiwfqomjarht.jpg,,,,,,,,,,,,,,,
38,5,Memory,0,,,,,,,sunabrwnslxalcohfre.jpg,,,,,,,,,,,,,,,
39,5,Memory,0,,,,,,,sunamczizlzavhzhpay.jpg,,,,,,,,,,,,,,,
40,5,Memory,0,,,,,,,sunabwmcbaxwioksdgw.jpg,,,,,,,,,,,,,,,
41,5,Memory,0,,,,,,,00776941205fa.jpg,,,,,,,,,,,,,,,
42,5,Memory,0,,,,,,,00895960530fa.jpg,,,,,,,,,,,,,,,
43,5,Memory,0,,,,,,,sunahrltmuwbiehihpe.jpg,,,,,,,,,,,,,,,
44,5,Memory,0,,,,,,,00970960627fa.jpg,,,,,,,,,,,,,,,
45,5,Memory,0,,,,,,,sunbasypfgzjtomktmu.jpg,,,,,,,,,,,,,,,
46,5,Memory,0,,,,,,,sunacepzfrmtkiqonpy.jpg,,,,,,,,,,,,,,,
47,5,Memory,0,,,,,,,00753941201fa.jpg,,,,,,,,,,,,,,,
48,5,Memory,0,,,,,,,01004960627fa.jpg,,,,,,,,,,,,,,,
49,5,Memory,0,,,,,,,00292940422fb.jpg,,,,,,,,,,,,,,,
50,5,Presentation,1,00815941205fa_sunahiphsekjihkafsl.jpg,00548940519fa_sunacerqowiaeoqkmsq.jpg,00815941205fa.jpg,sunahiphsekjihkafsl.jpg,00548940519fa.jpg,sunacerqowiaeoqkmsq.jpg,,,>,Place,,,,,0,,,,,,,o
51,5,Presentation,1,00133931230fa_sunaanlwnpqndclffxt.jpg,00086931230fa_sunaafynehyrzpsoaml.jpg,00133931230fa.jpg,sunaanlwnpqndclffxt.jpg,00086931230fa.jpg,sunaafynehyrzpsoaml.jpg,,,>,Place,,,,,1,,,,,,,o
52,5,Presentation,1,00294940422fb_sunabrlndkruqokhury.jpg,00131931230fb_sunaangbuylfvckqqoo.jpg,00294940422fb.jpg,sunabrlndkruqokhury.jpg,00131931230fb.jpg,sunaangbuylfvckqqoo.jpg,,,>,Place,,,,,1,,,,,,,x
53,5,Presentation,1,00185940422fb_sunaawqdbpihmlbwyyn.jpg,00126931230fb_sunaamdjwemxpmmtypi.jpg,00185940422fb.jpg,sunaawqdbpihmlbwyyn.jpg,00126931230fb.jpg,sunaamdjwemxpmmtypi.jpg,,,>,Place,,,,,1,,,,,,,x
54,5,Presentation,1,00999960627fa_sunbvbrvgbpanfrawft.jpg,00763941205fa_sunafhmnhsdurlvddpw.jpg,00999960627fa.jpg,sunbvbrvgbpanfrawft.jpg,00763941205fa.jpg,sunafhmnhsdurlvddpw.jpg,,,>,Place,,,,,0,,,,,,,x
55,5,Presentation,1,00162931230fb_sunaavjinpnkappuonm.jpg,00931960627fa_sunaptrqvaooxfvktvw.jpg,00162931230fb.jpg,sunaavjinpnkappuonm.jpg,00931960627fa.jpg,sunaptrqvaooxfvktvw.jpg,,,>,Place,,,,,0,,,,,,,x
56,5,Presentation,1,00787960620fa_sunagoufulkpsxrmklt.jpg,00146960620fb_sunaatpeezlljqaxlhj.jpg,00787960620fa.jpg,sunagoufulkpsxrmklt.jpg,00146960620fb.jpg,sunaatpeezlljqaxlhj.jpg,,,>,Place,,,,,1,,,,,,,x
57,5,Presentation,1,00892960530fa_sunalntxqqadigcletd.jpg,00848940307fa_sunaivdylrawbmhryfp.jpg,00892960530fa.jpg,sunalntxqqadigcletd.jpg,00848940307fa.jpg,sunaivdylrawbmhryfp.jpg,,,>,Place,,,,,1,,,,,,,x
58,5,Presentation,1,00792941205fa_sunagsiwrmuixqgdimb.jpg,00097931230fa_sunaajayojuslbbnneg.jpg,00792941205fa.jpg,sunagsiwrmuixqgdimb.jpg,00097931230fa.jpg,sunaajayojuslbbnneg.jpg,,,>,Place,,,,,1,,,,,,,o
59,5,Presentation,1,00271940422fa_sunabmbnddafmywtjjj.jpg,00132931230fb_sunaanjcbzdvtvblsdy.jpg,00271940422fa.jpg,sunabmbnddafmywtjjj.jpg,00132931230fb.jpg,sunaanjcbzdvtvblsdy.jpg,,,>,Place,,,,,1,,,,,,,o
60,5,Memory,1,,,,,,,00294940422fb.jpg,,,,,,,,,,,,,,,
61,5,Memory,1,,,,,,,00848940307fa.jpg,,,,,,,,,,,,,,,
62,5,Memory,1,,,,,,,00947960627fa.jpg,,,,,,,,,,,,,,,
63,5,Memory,1,,,,,,,sunadpnqovzckyikrjo.jpg,,,,,,,,,,,,,,,
64,5,Memory,1,,,,,,,sunaawqdbpihmlbwyyn.jpg,,,,,,,,,,,,,,,
65,5,Memory,1,,,,,,,01010960627fa.jpg,,,,,,,,,,,,,,,
66,5,Memory,1,,,,,,,00676941121fa.jpg,,,,,,,,,,,,,,,
67,5,Memory,1,,,,,,,00892960530fa.jpg,,,,,,,,,,,,,,,
68,5,Memory,1,,,,,,,00772941201fa.jpg,,,,,,,,,,,,,,,
69,5,Memory,1,,,,,,,00633940928fa.jpg,,,,,,,,,,,,,,,
70,5,Memory,1,,,,,,,00809960620fa.jpg,,,,,,,,,,,,,,,
71,5,Memory,1,,,,,,,00131931230fb.jpg,,,,,,,,,,,,,,,
72,5,Memory,1,,,,,,,sunabrlndkruqokhury.jpg,,,,,,,,,,,,,,,
73,5,Memory,1,,,,,,,sunacerqowiaeoqkmsq.jpg,,,,,,,,,,,,,,,
74,5,Memory,1,,,,,,,sunasnqkkyhilqkxiqm.jpg,,,,,,,,,,,,,,,
75,5,Memory,1,,,,,,,00792941205fa.jpg,,,,,,,,,,,,,,,
76,5,Memory,1,,,,,,,00548940519fa.jpg,,,,,,,,,,,,,,,
77,5,Memory,1,,,,,,,sunaajayojuslbbnneg.jpg,,,,,,,,,,,,,,,
78,5,Memory,1,,,,,,,00185940422fb.jpg,,,,,,,,,,,,,,,
79,5,Memory,1,,,,,,,00097931230fa.jpg,,,,,,,,,,,,,,,
80,5,Memory,1,,,,,,,sunadbhmrgrrpyzglxs.jpg,,,,,,,,,,,,,,,
81,5,Memory,1,,,,,,,sunaejnvnpltdmhbcsi.jpg,,,,,,,,,,,,,,,
82,5,Memory,1,,,,,,,00728941205fa.jpg,,,,,,,,,,,,,,,
83,5,Memory,1,,,,,,,sunahbvlpavurqoxdeq.jpg,,,,,,,,,,,,,,,
84,5,Memory,1,,,,,,,sunahqldjibofgsfdgb.jpg,,,,,,,,,,,,,,,
85,5,Memory,1,,,,,,,suncnkvbhypnivcohyx.jpg,,,,,,,,,,,,,,,
86,5,Memory,1,,,,,,,sunagsiwrmuixqgdimb.jpg,,,,,,,,,,,,,,,
87,5,Memory,1,,,,,,,sunahiphsekjihkafsl.jpg,,,,,,,,,,,,,,,
88,5,Memory,1,,,,,,,sunafpfpiiujzoesnqg.jpg,,,,,,,,,,,,,,,
89,5,Memory,1,,,,,,,00479940519fa.jpg,,,,,,,,,,,,,,,
90,5,Memory,1,,,,,,,sunaivdylrawbmhryfp.jpg,,,,,,,,,,,,,,,
91,5,Memory,1,,,,,,,sunaangbuylfvckqqoo.jpg,,,,,,,,,,,,,,,
92,5,Memory,1,,,,,,,00815941205fa.jpg,,,,,,,,,,,,,,,
93,5,Memory,1,,,,,,,00949960627fb.jpg,,,,,,,,,,,,,,,
94,5,Memory,1,,,,,,,sunalntxqqadigcletd.jpg,,,,,,,,,,,,,,,
95,5,Memory,1,,,,,,,sunaamdjwemxpmmtypi.jpg,,,,,,,,,,,,,,,
96,5,Memory,1,,,,,,,00126931230fb.jpg,,,,,,,,,,,,,,,
97,5,Memory,1,,,,,,,sunasmmcxdddtmtazwx.jpg,,,,,,,,,,,,,,,
98,5,Memory,1,,,,,,,sunabxsbfwjccqxxzxq.jpg,,,,,,,,,,,,,,,
99,5,Memory,1,,,,,,,00819940307fa.jpg,,,,,,,,,,,,,,,
100,5,Presentation,2,00581940928fa_sunacvzhvcksnwqcqbw.jpg,00158931230fb_sunaavchcbptaerhcfy.jpg,00581940928fa.jpg,sunacvzhvcksnwqcqbw.jpg,00158931230fb.jpg,sunaavchcbptaerhcfy.jpg,,,<,Face,,,,,1,,,,,,,x
101,5,Presentation,2,00675941121fa_sunadoxcchtmsxewsau.jpg,00834940307fa_sunaibnpvhkdpdnzcnz.jpg,00675941121fa.jpg,sunadoxcchtmsxewsau.jpg,00834940307fa.jpg,sunaibnpvhkdpdnzcnz.jpg,,,<,Face,,,,,1,,,,,,,o
102,5,Presentation,2,00108960530fa_sunaajtnvzzpsjdzres.jpg,00891960530fa_sunalkiibhqpxfamlll.jpg,00108960530fa.jpg,sunaajtnvzzpsjdzres.jpg,00891960530fa.jpg,sunalkiibhqpxfamlll.jpg,,,<,Face,,,,,1,,,,,,,x
103,5,Presentation,2,00857940307fa_sunaiwfobocrruqznsv.jpg,00935960627fa_sunaqbmgkgqucajzrkp.jpg,00857940307fa.jpg,sunaiwfobocrruqznsv.jpg,00935960627fa.jpg,sunaqbmgkgqucajzrkp.jpg,,,<,Face,,,,,1,,,,,,,o
104,5,Presentation,2,00965960627fa_sunaydywdmvlfddbxbk.jpg,00630940928fa_sunaczwgyukesaajxnx.jpg,00965960627fa.jpg,sunaydywdmvlfddbxbk.jpg,00630940928fa.jpg,sunaczwgyukesaajxnx.jpg,,,<,Face,,,,,1,,,,,,,o
105,5,Presentation,2,00060931230fa_sunaaehaikpckyjsety.jpg,00760960620fa_sunaffstbkappprzxnv.jpg,00060931230fa.jpg,sunaaehaikpckyjsety.jpg,00760960620fa.jpg,sunaffstbkappprzxnv.jpg,,,<,Face,,,,,1,,,,,,,x
106,5,Presentation,2,00221940128fa_sunabcfpwlpolnutyju.jpg,00782941205fa_sunagfvluwixdsozaql.jpg,00221940128fa.jpg,sunabcfpwlpolnutyju.jpg,00782941205fa.jpg,sunagfvluwixdsozaql.jpg,,,<,Face,,,,,1,,,,,,,o
107,5,Presentation,2,00239940128fa_sunabctlikybqabezjv.jpg,00598941031fa_sunacxtcahkymosigud.jpg,00239940128fa.jpg,sunabctlikybqabezjv.jpg,00598941031fa.jpg,sunacxtcahkymosigud.jpg,,,<,Face,,,,,1,,,,,,,o
108,5,Presentation,2,00670941121fa_sunadochqcucscehsgk.jpg,00874940307fa_sunajtrfunvzdfticna.jpg,00670941121fa.jpg,sunadochqcucscehsgk.jpg,00874940307fa.jpg,sunajtrfunvzdfticna.jpg,,,<,Face,,,,,1,,,,,,,o
109,5,Presentation,2,00266940128fb_sunabkngeblodihjvbk.jpg,00938960627fa_sunaqyylsngywqzwfmx.jpg,00266940128fb.jpg,sunabkngeblodihjvbk.jpg,00938960627fa.jpg,sunaqyylsngywqzwfmx.jpg,,,<,Face,,,,,1,,,,,,,x
110,5,Memory,2,,,,,,,00158931230fb.jpg,,,,,,,,,,,,,,,
111,5,Memory,2,,,,,,,sunatstrpjxhvtbaczf.jpg,,,,,,,,,,,,,,,
112,5,Memory,2,,,,,,,00239940128fa.jpg,,,,,,,,,,,,,,,
113,5,Memory,2,,,,,,,sunacvzhvcksnwqcqbw.jpg,,,,,,,,,,,,,,,
114,5,Memory,2,,,,,,,sunacycdoztxoluxjyk.jpg,,,,,,,,,,,,,,,
115,5,Memory,2,,,,,,,00818940307fa.jpg,,,,,,,,,,,,,,,
116,5,Memory,2,,,,,,,sunaakgekhjklxmvulj.jpg,,,,,,,,,,,,,,,
117,5,Memory,2,,,,,,,00857940307fa.jpg,,,,,,,,,,,,,,,
118,5,Memory,2,,,,,,,00208940128fa.jpg,,,,,,,,,,,,,,,
119,5,Memory,2,,,,,,,00073931230fa.jpg,,,,,,,,,,,,,,,
120,5,Memory,2,,,,,,,sunaajtnvzzpsjdzres.jpg,,,,,,,,,,,,,,,
121,5,Memory,2,,,,,,,00581940928fa.jpg,,,,,,,,,,,,,,,
122,5,Memory,2,,,,,,,sunacjnahdmqfnjfwqx.jpg,,,,,,,,,,,,,,,
123,5,Memory,2,,,,,,,sunaavchcbptaerhcfy.jpg,,,,,,,,,,,,,,,
124,5,Memory,2,,,,,,,00111931230fb.jpg,,,,,,,,,,,,,,,
125,5,Memory,2,,,,,,,sunaqbmgkgqucajzrkp.jpg,,,,,,,,,,,,,,,
126,5,Memory,2,,,,,,,sunabtlfmiwtljmoues.jpg,,,,,,,,,,,,,,,
127,5,Memory,2,,,,,,,sunaafbmtoniaasysgu.jpg,,,,,,,,,,,,,,,
128,5,Memory,2,,,,,,,sunaiwfobocrruqznsv.jpg,,,,,,,,,,,,,,,
129,5,Memory,2,,,,,,,00108960530fa.jpg,,,,,,,,,,,,,,,
130,5,Memory,2,,,,,,,sunabjzyxcjnmztdonj.jpg,,,,,,,,,,,,,,,
131,5,Memory,2,,,,,,,00562941031fa.jpg,,,,,,,,,,,,,,,
132,5,Memory,2,,,,,,,00891960530fa.jpg,,,,,,,,,,,,,,,
133,5,Memory,2,,,,,,,sunahpblecxtmuzkmxb.jpg,,,,,,,,,,,,,,,
134,5,Memory,2,,,,,,,00938960627fa.jpg,,,,,,,,,,,,,,,
135,5,Memory,2,,,,,,,sunagwswhkvnsmuszlz.jpg,,,,,,,,,,,,,,,
136,5,Memory,2,,,,,,,sunabctlikybqabezjv.jpg,,,,,,,,,,,,,,,
137,5,Memory,2,,,,,,,00221940128fa.jpg,,,,,,,,,,,,,,,
138,5,Memory,2,,,,,,,sunaqyylsngywqzwfmx.jpg,,,,,,,,,,,,,,,
139,5,Memory,2,,,,,,,00953960627fa.jpg,,,,,,,,,,,,,,,
140,5,Memory,2,,,,,,,00302940422fa.jpg,,,,,,,,,,,,,,,
141,5,Memory,2,,,,,,,sunaibnpvhkdpdnzcnz.jpg,,,,,,,,,,,,,,,
142,5,Memory,2,,,,,,,00609940928fa.jpg,,,,,,,,,,,,,,,
143,5,Memory,2,,,,,,,00264940128fb.jpg,,,,,,,,,,,,,,,
144,5,Memory,2,,,,,,,00935960627fa.jpg,,,,,,,,,,,,,,,
145,5,Memory,2,,,,,,,00834940307fa.jpg,,,,,,,,,,,,,,,
146,5,Memory,2,,,,,,,sunalkiibhqpxfamlll.jpg,,,,,,,,,,,,,,,
147,5,Memory,2,,,,,,,sunabcfpwlpolnutyju.jpg,,,,,,,,,,,,,,,
148,5,Memory,2,,,,,,,sunaazzyhbvqjpmazjq.jpg,,,,,,,,,,,,,,,
149,5,Memory,2,,,,,,,00804960530fa.jpg,,,,,,,,,,,,,,,
150,5,Presentation,3,00144931230fb_sunaathajvxrgptwhoj.jpg,00719960620fa_sunadzuvtmtmgupotmf.jpg,00144931230fb.jpg,sunaathajvxrgptwhoj.jpg,00719960620fa.jpg,sunadzuvtmtmgupotmf.jpg,,,>,Face,,,,,1,,,,,,,x
151,5,Presentation,3,00130931230fa_sunaamvxnvouicstkjb.jpg,00961960627fa_sunawotxrevnqvamsfp.jpg,00130931230fa.jpg,sunaamvxnvouicstkjb.jpg,00961960627fa.jpg,sunawotxrevnqvamsfp.jpg,,,>,Face,,,,,1,,,,,,,o
152,5,Presentation,3,00779941205fa_sunagdzlvkqtpnfxfcg.jpg,00481940519fa_sunabxsuqbleluwczoy.jpg,00779941205fa.jpg,sunagdzlvkqtpnfxfcg.jpg,00481940519fa.jpg,sunabxsuqbleluwczoy.jpg,,,>,Face,,,,,1,,,,,,,x
153,5,Presentation,3,00145931230fb_sunaatjesvdupctftmn.jpg,00987960627fa_sunbloeoiozwjjsiamp.jpg,00145931230fb.jpg,sunaatjesvdupctftmn.jpg,00987960627fa.jpg,sunbloeoiozwjjsiamp.jpg,,,>,Face,,,,,1,,,,,,,x
154,5,Presentation,3,00822940307fa_sunahqrxievfeusiqlt.jpg,00122931230fa_sunaakxjfbrrequcjmx.jpg,00822940307fa.jpg,sunahqrxievfeusiqlt.jpg,00122931230fa.jpg,sunaakxjfbrrequcjmx.jpg,,,>,Face,,,,,1,,,,,,,x
155,5,Presentation,3,00263940128fb_sunabjuovqvyfuzvqwt.jpg,00887960530_sunalcrtwiycqobgelp.jpg,00263940128fb.jpg,sunabjuovqvyfuzvqwt.jpg,00887960530.jpg,sunalcrtwiycqobgelp.jpg,,,>,Face,,,,,1,,,,,,,x
156,5,Presentation,3,00893960530Fa_sunaloffvbvysigxent.jpg,00936960627fa_sunaqgjuuwvdcyiccjt.jpg,00893960530Fa.jpg,sunaloffvbvysigxent.jpg,00936960627fa.jpg,sunaqgjuuwvdcyiccjt.jpg,,,>,Face,,,,,1,,,,,,,x
157,5,Presentation,3,00576941031fa_sunacvjlsylseoghjup.jpg,00880960530fa_sunakmnfgklupjijsgf.jpg,00576941031fa.jpg,sunacvjlsylseoghjup.jpg,00880960530fa.jpg,sunakmnfgklupjijsgf.jpg,,,>,Face,,,,,1,,,,,,,x
158,5,Presentation,3,00120931230fa_sunaakxgygjfqrzpyoz.jpg,00800941205fb_sunagvjurcwdbixvnyi.jpg,00120931230fa.jpg,sunaakxgygjfqrzpyoz.jpg,00800941205fb.jpg,sunagvjurcwdbixvnyi.jpg,,,>,Face,,,,,1,,,,,,,x
159,5,Presentation,3,00191940128fb_sunaawsdjisukbbginm.jpg,00211940128fa_sunabasphceswhwwqvv.jpg,00191940128fb.jpg,sunaawsdjisukbbginm.jpg,00211940128fa.jpg,sunabasphceswhwwqvv.jpg,,,>,Face,,,,,0,,,,,,,o
160,5,Memory,3,,,,,,,sundbixjudsgeuuehrn.jpg,,,,,,,,,,,,,,,
161,5,Memory,3,,,,,,,00987960627fa.jpg,,,,,,,,,,,,,,,
162,5,Memory,3,,,,,,,00197940128fa.jpg,,,,,,,,,,,,,,,
163,5,Memory,3,,,,,,,sunajwqkfsykceonyig.jpg,,,,,,,,,,,,,,,
164,5,Memory,3,,,,,,,00779941205fa.jpg,,,,,,,,,,,,,,,
165,5,Memory,3,,,,,,,00778941205fa.jpg,,,,,,,,,,,,,,,
166,5,Memory,3,,,,,,,sunaloffvbvysigxent.jpg,,,,,,,,,,,,,,,
167,5,Memory,3,,,,,,,sunabjuovqvyfuzvqwt.jpg,,,,,,,,,,,,,,,
168,5,Memory,3,,,,,,,00095931230fa.jpg,,,,,,,,,,,,,,,
169,5,Memory,3,,,,,,,00305940422fa.jpg,,,,,,,,,,,,,,,
170,5,Memory,3,,,,,,,sunaahzooisqkwlxwoz.jpg,,,,,,,,,,,,,,,
171,5,Memory,3,,,,,,,sunadzuvtmtmgupotmf.jpg,,,,,,,,,,,,,,,
172,5,Memory,3,,,,,,,sunaaylzyqlqrsmfwif.jpg,,,,,,,,,,,,,,,
173,5,Memory,3,,,,,,,sunagcthdfirrcawoic.jpg,,,,,,,,,,,,,,,
174,5,Memory,3,,,,,,,00893960530Fa.jpg,,,,,,,,,,,,,,,
175,5,Memory,3,,,,,,,sunawotxrevnqvamsfp.jpg,,,,,,,,,,,,,,,
176,5,Memory,3,,,,,,,sunajjxttslobudoqbv.jpg,,,,,,,,,,,,,,,
177,5,Memory,3,,,,,,,00791941205fa.jpg,,,,,,,,,,,,,,,
178,5,Memory,3,,,,,,,sunagrmyoovzukhxmlo.jpg,,,,,,,,,,,,,,,
179,5,Memory,3,,,,,,,00990960627fa.jpg,,,,,,,,,,,,,,,
180,5,Memory,3,,,,,,,sunabtrnbvpppgczjim.jpg,,,,,,,,,,,,,,,
181,5,Memory,3,,,,,,,sunaamvxnvouicstkjb.jpg,,,,,,,,,,,,,,,
182,5,Memory,3,,,,,,,00887960530.jpg,,,,,,,,,,,,,,,
183,5,Memory,3,,,,,,,sunbloeoiozwjjsiamp.jpg,,,,,,,,,,,,,,,
184,5,Memory,3,,,,,,,00719960620fa.jpg,,,,,,,,,,,,,,,
185,5,Memory,3,,,,,,,00130931230fa.jpg,,,,,,,,,,,,,,,
186,5,Memory,3,,,,,,,00263940128fb.jpg,,,,,,,,,,,,,,,
187,5,Memory,3,,,,,,,00876960620fa.jpg,,,,,,,,,,,,,,,
188,5,Memory,3,,,,,,,sunagdzlvkqtpnfxfcg.jpg,,,,,,,,,,,,,,,
189,5,Memory,3,,,,,,,sunalcrtwiycqobgelp.jpg,,,,,,,,,,,,,,,
190,5,Memory,3,,,,,,,00144931230fb.jpg,,,,,,,,,,,,,,,
191,5,Memory,3,,,,,,,00868960307fa.jpg,,,,,,,,,,,,,,,
192,5,Memory,3,,,,,,,sunabxsuqbleluwczoy.jpg,,,,,,,,,,,,,,,
193,5,Memory,3,,,,,,,00705960530fa.jpg,,,,,,,,,,,,,,,
194,5,Memory,3,,,,,,,sunaduslxfzlbxlllnz.jpg,,,,,,,,,,,,,,,
195,5,Memory,3,,,,,,,00961960627fa.jpg,,,,,,,,,,,,,,,
196,5,Memory,3,,,,,,,01207940128fa.jpg,,,,,,,,,,,,,,,
197,5,Memory,3,,,,,,,sunbpflsdaxnddnwcqi.jpg,,,,,,,,,,,,,,,
198,5,Memory,3,,,,,,,sunaathajvxrgptwhoj.jpg,,,,,,,,,,,,,,,
199,5,Memory,3,,,,,,,00481940519fa.jpg,,,,,,,,,,,,,,,
200,5,Presentation,4,00898960530fa_sunamkmeblgteyggink.jpg,00705941205fa_sunadtlxenqqxsyjvix.jpg,00898960530fa.jpg,sunamkmeblgteyggink.jpg,00705941205fa.jpg,sunadtlxenqqxsyjvix.jpg,,,<,Place,,,,,1,,,,,,,o
201,5,Presentation,4,00235940128fb_sunabclssnoeuigtawp.jpg,00123931230fb_sunaalcrrdbjgdztbiz.jpg,00235940128fb.jpg,sunabclssnoeuigtawp.jpg,00123931230fb.jpg,sunaalcrrdbjgdztbiz.jpg,,,<,Place,,,,,1,,,,,,,o
202,5,Presentation,4,00937960627fa_sunaqsolmfydodnakub.jpg,00979960627fa_sunbdycacjfaujxitbw.jpg,00937960627fa.jpg,sunaqsolmfydodnakub.jpg,00979960627fa.jpg,sunbdycacjfaujxitbw.jpg,,,<,Place,,,,,1,,,,,,,o
203,5,Presentation,4,00138931230fa_sunaapfaivxqoynnwwp.jpg,00784941205fb_sunagjzcrjvmxzqzljx.jpg,00138931230fa.jpg,sunaapfaivxqoynnwwp.jpg,00784941205fb.jpg,sunagjzcrjvmxzqzljx.jpg,,,<,Place,,,,,1,,,,,,,o
204,5,Presentation,4,00218940128fa_sunabbwggenhfbftyvi.jpg,00163931230fb_sunaavodbcpygkggnfp.jpg,00218940128fa.jpg,sunabbwggenhfbftyvi.jpg,00163931230fb.jpg,sunaavodbcpygkggnfp.jpg,,,<,Place,,,,,1,,,,,,,o
205,5,Presentation,4,00836940307fa_sunainqelldeebvxtcz.jpg,00986960627fa_sunbgzjryivyczuvkvm.jpg,00836940307fa.jpg,sunainqelldeebvxtcz.jpg,00986960627fa.jpg,sunbgzjryivyczuvkvm.jpg,,,<,Place,,,,,1,,,,,,,x
206,5,Presentation,4,00943960627fa_sunarpsxqkduedrrzyi.jpg,00877960530fa_sunajxpkuhbizeveguy.jpg,00943960627fa.jpg,sunarpsxqkduedrrzyi.jpg,00877960530fa.jpg,sunajxpkuhbizeveguy.jpg,,,<,Place,,,,,1,,,,,,,o
207,5,Presentation,4,00828940307fa_sunahuynahneraqftyz.jpg,00700941121fa_sunadsgmtznewzyasnk.jpg,00828940307fa.jpg,sunahuynahneraqftyz.jpg,00700941121fa.jpg,sunadsgmtznewzyasnk.jpg,,,<,Place,,,,,0,,,,,,,x
208,5,Presentation,4,00742941201fa_sunaenwuebvlpdmntju.jpg,00858940307fa_sunaixpqndlwhwjtjek.jpg,00742941201fa.jpg,sunaenwuebvlpdmntju.jpg,00858940307fa.jpg,sunaixpqndlwhwjtjek.jpg,,,<,Place,,,,,1,,,,,,,o
209,5,Presentation,4,00950960627fa_sunasrjlmglmjzbmqxb.jpg,00835940307fa_sunaijsqpvodplbwxkf.jpg,00950960627fa.jpg,sunasrjlmglmjzbmqxb.jpg,00835940307fa.jpg,sunaijsqpvodplbwxkf.jpg,,,<,Place,,,,,0,,,,,,,x
210,5,Memory,4,,,,,,,sunajxpkuhbizeveguy.jpg,,,,,,,,,,,,,,,
211,5,Memory,4,,,,,,,00913960530fa.jpg,,,,,,,,,,,,,,,
212,5,Memory,4,,,,,,,00751960620fa.jpg,,,,,,,,,,,,,,,
213,5,Memory,4,,,,,,,00749941201fa.jpg,,,,,,,,,,,,,,,
214,5,Memory,4,,,,,,,sunagjzcrjvmxzqzljx.jpg,,,,,,,,,,,,,,,
215,5,Memory,4,,,,,,,00235940128fb.jpg,,,,,,,,,,,,,,,
216,5,Memory,4,,,,,,,00568940928fa.jpg,,,,,,,,,,,,,,,
217,5,Memory,4,,,,,,,sunadtlxenqqxsyjvix.jpg,,,,,,,,,,,,,,,
218,5,Memory,4,,,,,,,00937960627fa.jpg,,,,,,,,,,,,,,,
219,5,Memory,4,,,,,,,sunabanoxjtqxamkucc.jpg,,,,,,,,,,,,,,,
220,5,Memory,4,,,,,,,sunaqsolmfydodnakub.jpg,,,,,,,,,,,,,,,
221,5,Memory,4,,,,,,,00816941205fa.jpg,,,,,,,,,,,,,,,
222,5,Memory,4,,,,,,,00858940307fa.jpg,,,,,,,,,,,,,,,
223,5,Memory,4,,,,,,,sunarpsxqkduedrrzyi.jpg,,,,,,,,,,,,,,,
224,5,Memory,4,,,,,,,00836940307fa.jpg,,,,,,,,,,,,,,,
225,5,Memory,4,,,,,,,00210940128fb.jpg,,,,,,,,,,,,,,,
226,5,Memory,4,,,,,,,00316940422fa.jpg,,,,,,,,,,,,,,,
227,5,Memory,4,,,,,,,sunasrjlmglmjzbmqxb.jpg,,,,,,,,,,,,,,,
228,5,Memory,4,,,,,,,00950960627fa.jpg,,,,,,,,,,,,,,,
229,5,Memory,4,,,,,,,00877960530fa.jpg,,,,,,,,,,,,,,,
230,5,Memory,4,,,,,,,sunabclssnoeuigtawp.jpg,,,,,,,,,,,,,,,
231,5,Memory,4,,,,,,,sunaeuvjbmdpknaqqaj.jpg,,,,,,,,,,,,,,,
232,5,Memory,4,,,,,,,00245940128fa.jpg,,,,,,,,,,,,,,,
233,5,Memory,4,,,,,,,00163931230fb.jpg,,,,,,,,,,,,,,,
234,5,Memory,4,,,,,,,sunabxmguapjekttvwm.jpg,,,,,,,,,,,,,,,
235,5,Memory,4,,,,,,,00063931230fa.jpg,,,,,,,,,,,,,,,
236,5,Memory,4,,,,,,,sunaavodbcpygkggnfp.jpg,,,,,,,,,,,,,,,
237,5,Memory,4,,,,,,,00841940307fa.jpg,,,,,,,,,,,,,,,
238,5,Memory,4,,,,,,,sunainqelldeebvxtcz.jpg,,,,,,,,,,,,,,,
239,5,Memory,4,,,,,,,00784941205fb.jpg,,,,,,,,,,,,,,,
240,5,Memory,4,,,,,,,sunaisiwfgppimtnmxl.jpg,,,,,,,,,,,,,,,
241,5,Memory,4,,,,,,,00943960627fa.jpg,,,,,,,,,,,,,,,
242,5,Memory,4,,,,,,,sunaooffzffbhcpirmm.jpg,,,,,,,,,,,,,,,
243,5,Memory,4,,,,,,,sunaaelyvurpntclgau.jpg,,,,,,,,,,,,,,,
244,5,Memory,4,,,,,,,sunaezuszgtxnmsxdbk.jpg,,,,,,,,,,,,,,,
245,5,Memory,4,,,,,,,00705941205fa.jpg,,,,,,,,,,,,,,,
246,5,Memory,4,,,,,,,sunahmhrncocyhsjpxk.jpg,,,,,,,,,,,,,,,
247,5,Memory,4,,,,,,,sunabeyhmxodahoieyk.jpg,,,,,,,,,,,,,,,
248,5,Memory,4,,,,,,,sunacsdhbbsybcyxnel.jpg,,,,,,,,,,,,,,,
249,5,Memory,4,,,,,,,sunaixpqndlwhwjtjek.jpg,,,,,,,,,,,,,,,
250,5,Presentation,5,00096931230fa_sunaaiqiqcggrskoqgy.jpg,00860940307fa_sunaizeyhvjzknwjudw.jpg,00096931230fa.jpg,sunaaiqiqcggrskoqgy.jpg,00860940307fa.jpg,sunaizeyhvjzknwjudw.jpg,,,<,Face,,,,,1,,,,,,,o
251,5,Presentation,5,00564941031fa_sunacsaovnjezqwbykf.jpg,00498960627fa_sunabzjxlmkwnwzimua.jpg,00564941031fa.jpg,sunacsaovnjezqwbykf.jpg,00498960627fa.jpg,sunabzjxlmkwnwzimua.jpg,,,<,Face,,,,,1,,,,,,,o
252,5,Presentation,5,00681941121fa_sunadqmjrhfjyuzyvdd.jpg,00598940928fa_sunacxeheuiigkcgquf.jpg,00681941121fa.jpg,sunadqmjrhfjyuzyvdd.jpg,00598940928fa.jpg,sunacxeheuiigkcgquf.jpg,,,<,Face,,,,,1,,,,,,,x
253,5,Presentation,5,00313940422fa_sunabwjvmoaddlyxfjr.jpg,00884960530fa_sunakodkcslgqhqlgwl.jpg,00313940422fa.jpg,sunabwjvmoaddlyxfjr.jpg,00884960530fa.jpg,sunakodkcslgqhqlgwl.jpg,,,<,Face,,,,,0,,,,,,,o
254,5,Presentation,5,00900960530fa_sunamlotskmmsjeogby.jpg,00989960627fa_sunbondbduabvijnmch.jpg,00900960530fa.jpg,sunamlotskmmsjeogby.jpg,00989960627fa.jpg,sunbondbduabvijnmch.jpg,,,<,Face,,,,,1,,,,,,,o
255,5,Presentation,5,00124931230fa_sunaalhlvzmjmitybdn.jpg,00902960530fa_sunanaacmmosxrfwmvl.jpg,00124931230fa.jpg,sunaalhlvzmjmitybdn.jpg,00902960530fa.jpg,sunanaacmmosxrfwmvl.jpg,,,<,Face,,,,,1,,,,,,,x
256,5,Presentation,5,00080931230fb_sunaafjszryxyavjzln.jpg,00885960530fa_sunakwlvxjpddialozd.jpg,00080931230fb.jpg,sunaafjszryxyavjzln.jpg,00885960530fa.jpg,sunakwlvxjpddialozd.jpg,,,<,Face,,,,,1,,,,,,,o
257,5,Presentation,5,01009960627fa_sunbxzweleltykebgan.jpg,00116931230fa_sunaakqepfoeqomfgxf.jpg,01009960627fa.jpg,sunbxzweleltykebgan.jpg,00116931230fa.jpg,sunaakqepfoeqomfgxf.jpg,,,<,Face,,,,,1,,,,,,,x
258,5,Presentation,5,01003960627fb_sunbwdrdvsweerwsdrj.jpg,00878960530fa_sunakgbnzxmfohgehnu.jpg,01003960627fb.jpg,sunbwdrdvsweerwsdrj.jpg,00878960530fa.jpg,sunakgbnzxmfohgehnu.jpg,,,<,Face,,,,,1,,,,,,,x
259,5,Presentation,5,00276940422fa_sunabmytpyhsgigllxu.jpg,00214940128fa_sunabbafjowbzcvbucc.jpg,00276940422fa.jpg,sunabmytpyhsgigllxu.jpg,00214940128fa.jpg,sunabbafjowbzcvbucc.jpg,,,<,Face,,,,,1,,,,,,,o
260,5,Memory,5,,,,,,,sunaafjszryxyavjzln.jpg,,,,,,,,,,,,,,,
261,5,Memory,5,,,,,,,sunacsaovnjezqwbykf.jpg,,,,,,,,,,,,,,,
262,5,Memory,5,,,,,,,sunabmytpyhsgigllxu.jpg,,,,,,,,,,,,,,,
263,5,Memory,5,,,,,,,00564941031fa.jpg,,,,,,,,,,,,,,,
264,5,Memory,5,,,,,,,sunaeouogqolxvggaoq.jpg,,,,,,,,,,,,,,,
265,5,Memory,5,,,,,,,00827940307fa.jpg,,,,,,,,,,,,,,,
266,5,Memory,5,,,,,,,00960960627fa.jpg,,,,,,,,,,,,,,,
267,5,Memory,5,,,,,,,00096931230fa.jpg,,,,,,,,,,,,,,,
268,5,Memory,5,,,,,,,00498960627fa.jpg,,,,,,,,,,,,,,,
269,5,Memory,5,,,,,,,sunakwlvxjpddialozd.jpg,,,,,,,,,,,,,,,
270,5,Memory,5,,,,,,,sunahtfxgsrmkiulnwk.jpg,,,,,,,,,,,,,,,
271,5,Memory,5,,,,,,,00276940422fa.jpg,,,,,,,,,,,,,,,
272,5,Memory,5,,,,,,,sunavhxgmgrqsaptynb.jpg,,,,,,,,,,,,,,,
273,5,Memory,5,,,,,,,00902960530fa.jpg,,,,,,,,,,,,,,,
274,5,Memory,5,,,,,,,sunawksfbacycuhbrsc.jpg,,,,,,,,,,,,,,,
275,5,Memory,5,,,,,,,00598940928fa.jpg,,,,,,,,,,,,,,,
276,5,Memory,5,,,,,,,sunafvwfsmqkjrutjta.jpg,,,,,,,,,,,,,,,
277,5,Memory,5,,,,,,,sunabwjvmoaddlyxfjr.jpg,,,,,,,,,,,,,,,
278,5,Memory,5,,,,,,,sunabzjxlmkwnwzimua.jpg,,,,,,,,,,,,,,,
279,5,Memory,5,,,,,,,00775941205fa.jpg,,,,,,,,,,,,,,,
280,5,Memory,5,,,,,,,sunakodkcslgqhqlgwl.jpg,,,,,,,,,,,,,,,
281,5,Memory,5,,,,,,,sunaaiqiqcggrskoqgy.jpg,,,,,,,,,,,,,,,
282,5,Memory,5,,,,,,,00884960530fa.jpg,,,,,,,,,,,,,,,
283,5,Memory,5,,,,,,,sunanaacmmosxrfwmvl.jpg,,,,,,,,,,,,,,,
284,5,Memory,5,,,,,,,00745941205fa.jpg,,,,,,,,,,,,,,,
285,5,Memory,5,,,,,,,00921960627fa.jpg,,,,,,,,,,,,,,,
286,5,Memory,5,,,,,,,00933960627fa.jpg,,,,,,,,,,,,,,,
287,5,Memory,5,,,,,,,sunapwjkcxdaeqehfql.jpg,,,,,,,,,,,,,,,
288,5,Memory,5,,,,,,,00636941031fa.jpg,,,,,,,,,,,,,,,
289,5,Memory,5,,,,,,,00313940422fa.jpg,,,,,,,,,,,,,,,
290,5,Memory,5,,,,,,,00093931230fa.jpg,,,,,,,,,,,,,,,
291,5,Memory,5,,,,,,,00885960530fa.jpg,,,,,,,,,,,,,,,
292,5,Memory,5,,,,,,,00080931230fb.jpg,,,,,,,,,,,,,,,
293,5,Memory,5,,,,,,,00571940928fa.jpg,,,,,,,,,,,,,,,
294,5,Memory,5,,,,,,,sunacuatpqpqhyjhjqk.jpg,,,,,,,,,,,,,,,
295,5,Memory,5,,,,,,,00957960627fa.jpg,,,,,,,,,,,,,,,
296,5,Memory,5,,,,,,,sunaddtdkycxbqlpfqa.jpg,,,,,,,,,,,,,,,
297,5,Memory,5,,,,,,,sunaahwnmtqsrhocysw.jpg,,,,,,,,,,,,,,,
298,5,Memory,5,,,,,,,sunacxeheuiigkcgquf.jpg,,,,,,,,,,,,,,,
299,5,Memory,5,,,,,,,sunapqkpqdfvxlbqwyo.jpg,,,,,,,,,,,,,,,
300,5,Presentation,6,00972960627fa_sunbbfqwjpdxniyhies.jpg,00532960627fa_sunaccdtpgenvcbcbcf.jpg,00972960627fa.jpg,sunbbfqwjpdxniyhies.jpg,00532960627fa.jpg,sunaccdtpgenvcbcbcf.jpg,,,>,Face,,,,,1,,,,,,,o
301,5,Presentation,6,00785941205fa_sunaglqunwuycxydmyu.jpg,00557940519fa_sunachtuarilwyqnvjx.jpg,00785941205fa.jpg,sunaglqunwuycxydmyu.jpg,00557940519fa.jpg,sunachtuarilwyqnvjx.jpg,,,>,Face,,,,,1,,,,,,,x
302,5,Presentation,6,00483940519fa_sunabyvpwkgsjtijdwj.jpg,00984960627fa_sunbfzchmomnvzhbxdg.jpg,00483940519fa.jpg,sunabyvpwkgsjtijdwj.jpg,00984960627fa.jpg,sunbfzchmomnvzhbxdg.jpg,,,>,Face,,,,,1,,,,,,,x
303,5,Presentation,6,00071940128fa_sunaaexpnawiehinlpy.jpg,00803941205fa_sunagvxkjokqimstxpe.jpg,00071940128fa.jpg,sunaaexpnawiehinlpy.jpg,00803941205fa.jpg,sunagvxkjokqimstxpe.jpg,,,>,Face,,,,,1,,,,,,,o
304,5,Presentation,6,00939960627fa_sunarceibpcyacbmfga.jpg,00988960627fa_sunbmaiocftdtvnzgap.jpg,00939960627fa.jpg,sunarceibpcyacbmfga.jpg,00988960627fa.jpg,sunbmaiocftdtvnzgap.jpg,,,>,Face,,,,,1,,,,,,,x
305,5,Presentation,6,00985960627fa_sunbgklxeqjhdbyfhhy.jpg,00796941205fa_sunaguchqqnrtodtezq.jpg,00985960627fa.jpg,sunbgklxeqjhdbyfhhy.jpg,00796941205fa.jpg,sunaguchqqnrtodtezq.jpg,,,>,Face,,,,,1,,,,,,,o
306,5,Presentation,6,00260940128fa_sunabgfhvifeijihhjw.jpg,01005960627fa_sunbwyuesflwdpqtgoy.jpg,00260940128fa.jpg,sunabgfhvifeijihhjw.jpg,01005960627fa.jpg,sunbwyuesflwdpqtgoy.jpg,,,>,Face,,,,,1,,,,,,,o
307,5,Presentation,6,00929960627fa_sunaprnrbmgkomdbchr.jpg,00894960620fa_sunalqmfgeadpqsyzpd.jpg,00929960627fa.jpg,sunaprnrbmgkomdbchr.jpg,00894960620fa.jpg,sunalqmfgeadpqsyzpd.jpg,,,>,Face,,,,,1,,,,,,,x
308,5,Presentation,6,00789960620fa_sunagpancjmxqfazssf.jpg,00768941205fa_sunafkmnlytenlsywia.jpg,00789960620fa.jpg,sunagpancjmxqfazssf.jpg,00768941205fa.jpg,sunafkmnlytenlsywia.jpg,,,>,Face,,,,,1,,,,,,,x
309,5,Presentation,6,00529940519fa_sunacbeefkxpymwevpk.jpg,00810941205fa_sunahctntqrunhdxhtb.jpg,00529940519fa.jpg,sunacbeefkxpymwevpk.jpg,00810941205fa.jpg,sunahctntqrunhdxhtb.jpg,,,>,Face,,,,,1,,,,,,,o
310,5,Memory,6,,,,,,,00997960627fa.jpg,,,,,,,,,,,,,,,
311,5,Memory,6,,,,,,,sunbbfqwjpdxniyhies.jpg,,,,,,,,,,,,,,,
312,5,Memory,6,,,,,,,sunagutjvdvnhxejerz.jpg,,,,,,,,,,,,,,,
313,5,Memory,6,,,,,,,sunabgfhvifeijihhjw.jpg,,,,,,,,,,,,,,,
314,5,Memory,6,,,,,,,sunahctntqrunhdxhtb.jpg,,,,,,,,,,,,,,,
315,5,Memory,6,,,,,,,sunaetydippjxikifsb.jpg,,,,,,,,,,,,,,,
316,5,Memory,6,,,,,,,00092931230fa.jpg,,,,,,,,,,,,,,,
317,5,Memory,6,,,,,,,sunaflojskatpeqyzqp.jpg,,,,,,,,,,,,,,,
318,5,Memory,6,,,,,,,00242940128fa.jpg,,,,,,,,,,,,,,,
319,5,Memory,6,,,,,,,00768941205fa.jpg,,,,,,,,,,,,,,,
320,5,Memory,6,,,,,,,00810941205fa.jpg,,,,,,,,,,,,,,,
321,5,Memory,6,,,,,,,sunbgklxeqjhdbyfhhy.jpg,,,,,,,,,,,,,,,
322,5,Memory,6,,,,,,,00972960627fa.jpg,,,,,,,,,,,,,,,
323,5,Memory,6,,,,,,,sunacypmnujalygkunp.jpg,,,,,,,,,,,,,,,
324,5,Memory,6,,,,,,,sunagvxkjokqimstxpe.jpg,,,,,,,,,,,,,,,
325,5,Memory,6,,,,,,,sunaccdtpgenvcbcbcf.jpg,,,,,,,,,,,,,,,
326,5,Memory,6,,,,,,,00620940928fa.jpg,,,,,,,,,,,,,,,
327,5,Memory,6,,,,,,,00194940128fb.jpg,,,,,,,,,,,,,,,
328,5,Memory,6,,,,,,,sunapqkyghktgtosuuk.jpg,,,,,,,,,,,,,,,
329,5,Memory,6,,,,,,,00993960627fa.jpg,,,,,,,,,,,,,,,
330,5,Memory,6,,,,,,,00988960627fa.jpg,,,,,,,,,,,,,,,
331,5,Memory,6,,,,,,,00770941201fa.jpg,,,,,,,,,,,,,,,
332,5,Memory,6,,,,,,,00260940128fa.jpg,,,,,,,,,,,,,,,
333,5,Memory,6,,,,,,,sunarceibpcyacbmfga.jpg,,,,,,,,,,,,,,,
334,5,Memory,6,,,,,,,00929960627fa.jpg,,,,,,,,,,,,,,,
335,5,Memory,6,,,,,,,00985960627fa.jpg,,,,,,,,,,,,,,,
336,5,Memory,6,,,,,,,sunafkmnlytenlsywia.jpg,,,,,,,,,,,,,,,
337,5,Memory,6,,,,,,,sunabcuurugvxwparpk.jpg,,,,,,,,,,,,,,,
338,5,Memory,6,,,,,,,sunaayehfdqcyxggsej.jpg,,,,,,,,,,,,,,,
339,5,Memory,6,,,,,,,sunbprywzqxjcezkbch.jpg,,,,,,,,,,,,,,,
340,5,Memory,6,,,,,,,00803941205fa.jpg,,,,,,,,,,,,,,,
341,5,Memory,6,,,,,,,00922960627fa.jpg,,,,,,,,,,,,,,,
342,5,Memory,6,,,,,,,sunbtpilbhhbmhmeuzq.jpg,,,,,,,,,,,,,,,
343,5,Memory,6,,,,,,,sunaaheqzstzxuadglu.jpg,,,,,,,,,,,,,,,
344,5,Memory,6,,,,,,,00532960627fa.jpg,,,,,,,,,,,,,,,
345,5,Memory,6,,,,,,,00799941205fa.jpg,,,,,,,,,,,,,,,
346,5,Memory,6,,,,,,,sunbmaiocftdtvnzgap.jpg,,,,,,,,,,,,,,,
347,5,Memory,6,,,,,,,00939960627fa.jpg,,,,,,,,,,,,,,,
348,5,Memory,6,,,,,,,sunaprnrbmgkomdbchr.jpg,,,,,,,,,,,,,,,
349,5,Memory,6,,,,,,,00746941201fa.jpg,,,,,,,,,,,,,,,
350,5,Presentation,7,01002960627fb_sunbwaafjdebjzttuvq.jpg,00082931230fa_sunaafvitpexrpvumsa.jpg,01002960627fb.jpg,sunbwaafjdebjzttuvq.jpg,00082931230fa.jpg,sunaafvitpexrpvumsa.jpg,,,>,Place,,,,,1,,,,,,,x
351,5,Presentation,7,00730960620fa_sunaekgzpfilgjxpeyq.jpg,00963960627fa_sunayaepykrqvenaqqy.jpg,00730960620fa.jpg,sunaekgzpfilgjxpeyq.jpg,00963960627fa.jpg,sunayaepykrqvenaqqy.jpg,,,>,Place,,,,,1,,,,,,,o
352,5,Presentation,7,00801941205fa_sunagvprlbprarvgdvj.jpg,00910960530fa_sunaofikylqtxphvdem.jpg,00801941205fa.jpg,sunagvprlbprarvgdvj.jpg,00910960530fa.jpg,sunaofikylqtxphvdem.jpg,,,>,Place,,,,,1,,,,,,,x
353,5,Presentation,7,00265940128fb_sunabkmdplkdbvxriff.jpg,00847940307fa_sunaivdjruhkrfywfed.jpg,00265940128fb.jpg,sunabkmdplkdbvxriff.jpg,00847940307fa.jpg,sunaivdjruhkrfywfed.jpg,,,>,Place,,,,,1,,,,,,,o
354,5,Presentation,7,00859940307fa_sunaiycurtqsfkvcaso.jpg,00812941205fa_sunahgtbwgsmtqeodwh.jpg,00859940307fa.jpg,sunaiycurtqsfkvcaso.jpg,00812941205fa.jpg,sunahgtbwgsmtqeodwh.jpg,,,>,Place,,,,,1,,,,,,,o
355,5,Presentation,7,00540940519fa_sunacdnquypmsshhsbk.jpg,00070940307fa_sunaaeplwsfslcbtojr.jpg,00540940519fa.jpg,sunacdnquypmsshhsbk.jpg,00070940307fa.jpg,sunaaeplwsfslcbtojr.jpg,,,>,Place,,,,,1,,,,,,,x
356,5,Presentation,7,00862940307fa_sunaizgnnplsvajzhkc.jpg,00663941121fa_sunadnjjzohjhbohlwq.jpg,00862940307fa.jpg,sunaizgnnplsvajzhkc.jpg,00663941121fa.jpg,sunadnjjzohjhbohlwq.jpg,,,>,Place,,,,,1,,,,,,,o
357,5,Presentation,7,00270940422fb_sunabllobxadqcyttej.jpg,00952960627fa_sunathzzbcwjykldrem.jpg,00270940422fb.jpg,sunabllobxadqcyttej.jpg,00952960627fa.jpg,sunathzzbcwjykldrem.jpg,,,>,Place,,,,,0,,,,,,,x
358,5,Presentation,7,00966960627fa_sunaygrtwrwfezqjizr.jpg,00262940128fa_sunabizydfotqddlnjp.jpg,00966960627fa.jpg,sunaygrtwrwfezqjizr.jpg,00262940128fa.jpg,sunabizydfotqddlnjp.jpg,,,>,Place,,,,,1,,,,,,,o
359,5,Presentation,7,00958960627fa_sunavspxmxubqaeidjt.jpg,00102931230fa_sunaajspcoepticvplv.jpg,00958960627fa.jpg,sunavspxmxubqaeidjt.jpg,00102931230fa.jpg,sunaajspcoepticvplv.jpg,,,>,Place,,,,,1,,,,,,,x
360,5,Memory,7,,,,,,,00854940307fa.jpg,,,,,,,,,,,,,,,
361,5,Memory,7,,,,,,,00082931230fa.jpg,,,,,,,,,,,,,,,
362,5,Memory,7,,,,,,,00540940519fa.jpg,,,,,,,,,,,,,,,
363,5,Memory,7,,,,,,,00070940307fa.jpg,,,,,,,,,,,,,,,
364,5,Memory,7,,,,,,,sunacdnquypmsshhsbk.jpg,,,,,,,,,,,,,,,
365,5,Memory,7,,,,,,,sunaajspcoepticvplv.jpg,,,,,,,,,,,,,,,
366,5,Memory,7,,,,,,,sunagcinxkccdtrjmlv.jpg,,,,,,,,,,,,,,,
367,5,Memory,7,,,,,,,00741941201fa.jpg,,,,,,,,,,,,,,,
368,5,Memory,7,,,,,,,00102931230fa.jpg,,,,,,,,,,,,,,,
369,5,Memory,7,,,,,,,00061931230fb.jpg,,,,,,,,,,,,,,,
370,5,Memory,7,,,,,,,sunafvcflzhlqloapyo.jpg,,,,,,,,,,,,,,,
371,5,Memory,7,,,,,,,01002960627fb.jpg,,,,,,,,,,,,,,,
372,5,Memory,7,,,,,,,00752960620fa.jpg,,,,,,,,,,,,,,,
373,5,Memory,7,,,,,,,sunaaekxzjzrfgtkwjf.jpg,,,,,,,,,,,,,,,
374,5,Memory,7,,,,,,,sunaiwduelojtwaqeyh.jpg,,,,,,,,,,,,,,,
375,5,Memory,7,,,,,,,00777941205fa.jpg,,,,,,,,,,,,,,,
376,5,Memory,7,,,,,,,sunaivdjruhkrfywfed.jpg,,,,,,,,,,,,,,,
377,5,Memory,7,,,,,,,00847940307fa.jpg,,,,,,,,,,,,,,,
378,5,Memory,7,,,,,,,00955960627fb.jpg,,,,,,,,,,,,,,,
379,5,Memory,7,,,,,,,00958960627fa.jpg,,,,,,,,,,,,,,,
380,5,Memory,7,,,,,,,00859940307fa.jpg,,,,,,,,,,,,,,,
381,5,Memory,7,,,,,,,sunaemcowdozyphwknd.jpg,,,,,,,,,,,,,,,
382,5,Memory,7,,,,,,,sunavspxmxubqaeidjt.jpg,,,,,,,,,,,,,,,
383,5,Memory,7,,,,,,,sunagjeesomrwjsfqie.jpg,,,,,,,,,,,,,,,
384,5,Memory,7,,,,,,,00127931230fa.jpg,,,,,,,,,,,,,,,
385,5,Memory,7,,,,,,,sunaaeplwsfslcbtojr.jpg,,,,,,,,,,,,,,,
386,5,Memory,7,,,,,,,00773941201fa.jpg,,,,,,,,,,,,,,,
387,5,Memory,7,,,,,,,00783941205fa.jpg,,,,,,,,,,,,,,,
388,5,Memory,7,,,,,,,sunaiycurtqsfkvcaso.jpg,,,,,,,,,,,,,,,
389,5,Memory,7,,,,,,,sunahgtbwgsmtqeodwh.jpg,,,,,,,,,,,,,,,
390,5,Memory,7,,,,,,,00967960627fa.jpg,,,,,,,,,,,,,,,
391,5,Memory,7,,,,,,,sunabkmdplkdbvxriff.jpg,,,,,,,,,,,,,,,
392,5,Memory,7,,,,,,,00265940128fb.jpg,,,,,,,,,,,,,,,
393,5,Memory,7,,,,,,,sunaafvitpexrpvumsa.jpg,,,,,,,,,,,,,,,
394,5,Memory,7,,,,,,,sunbwaafjdebjzttuvq.jpg,,,,,,,,,,,,,,,
395,5,Memory,7,,,,,,,sunafbwnojpqeyzssoe.jpg,,,,,,,,,,,,,,,
396,5,Memory,7,,,,,,,sunbaejotfklekvpxcz.jpg,,,,,,,,,,,,,,,
397,5,Memory,7,,,,,,,00812941205fa.jpg,,,,,,,,,,,,,,,
398,5,Memory,7,,,,,,,sunauburywlkjszngcq.jpg,,,,,,,,,,,,,,,
399,5,Memory,7,,,,,,,sunaampvucecsfbdafn.jpg,,,,,,,,,,,,,,,
