,Subject,Trial Type,Run,Cued Composite,Uncued Composite,Cued Face,Cued Place,Uncued Face,Uncued Place,Memory Image,Category,Cued Side,Cued Category,Attention Reaction Time (s),Familiarity Reaction Time (s),Familiarity Rating,Attention Level,Cue Validity,Post Invalid Cue,Pre Invalid Cue,Attention Button,Rating History,Stimulus Onset,Stimulus End,Attention Probe
310,10,Memory,6,,,,,,,sunaafbmtoniaasysgu.jpg,,,,,1.424,1.0,,,,,,,1538594114.215245,1538594116.26529,
311,10,Memory,6,,,,,,,00892960530fa.jpg,,,,,1.436,1.0,,,,,,,1538594117.532573,1538594119.516393,
312,10,Memory,6,,,,,,,suncnkvbhypnivcohyx.jpg,,,,,1.788,1.0,,,,,,,1538594120.767696,1538594122.750897,
313,10,Memory,6,,,,,,,00931960627fa.jpg,,,,,0.921,1.0,,,,,,,1538594124.000863,1538594125.98565,
314,10,Memory,6,,,,,,,00880960530fa.jpg,,,,,0.771,1.0,,,,,,,1538594127.235977,1538594129.219036,
315,10,Memory,6,,,,,,,sunaglqunwuycxydmyu.jpg,,,,,1.337,4.0,,,,,,,1538594130.470978,1538594132.454059,
316,10,Memory,6,,,,,,,sunaajspcoepticvplv.jpg,,,,,1.405,3.0,,,,,,,1538594133.721244,1538594135.705371,
317,10,Memory,6,,,,,,,sunalntxqqadigcletd.jpg,,,,,1.387,1.0,,,,,,,1538594136.973205,1538594138.955518,
318,10,Memory,6,,,,,,,00876960620fa.jpg,,,,,0.886,1.0,,,,,,,1538594140.206746,1538594142.190618,
319,10,Memory,6,,,,,,,00834940307fa.jpg,,,,,0.603,1.0,,,,,,,1538594143.45751,1538594145.442084,
320,10,Memory,6,,,,,,,00906960530fa.jpg,,,,,0.453,1.0,,,,,,,1538594146.709065,1538594148.691975,
321,10,Memory,6,,,,,,,sunaibnpvhkdpdnzcnz.jpg,,,,,1.87,2.0,,,,,,,1538594150.00996,1538594151.993964,
322,10,Memory,6,,,,,,,00073931230fa.jpg,,,,,0.554,1.0,,,,,,,1538594153.294363,1538594155.278639,
323,10,Memory,6,,,,,,,00305940422fa.jpg,,,,,0.786,1.0,,,,,,,1538594156.661641,1538594158.645719,
324,10,Memory,6,,,,,,,sunaozisvwfbmlkfhzv.jpg,,,,,0.871,1.0,,,,,,,1538594159.914373,1538594161.896963,
325,10,Memory,6,,,,,,,sunajjxttslobudoqbv.jpg,,,,,1.104,1.0,,,,,,,1538594163.147651,1538594165.132052,
326,10,Memory,6,,,,,,,sunabtrnbvpppgczjim.jpg,,,,,1.137,1.0,,,,,,,1538594166.381882,1538594168.365079,
327,10,Memory,6,,,,,,,sunbbxkanhzjgbwyxqs.jpg,,,,,1.304,2.0,,,,,,,1538594169.615218,1538594171.601122,
328,10,Memory,6,,,,,,,00967960627fa.jpg,,,,,1.303,1.0,,,,,,,1538594172.850556,1538594174.835305,
329,10,Memory,6,,,,,,,sunantryfbloeaomfta.jpg,,,,,0.937,1.0,,,,,,,1538594176.102289,1538594178.084671,
330,10,Memory,6,,,,,,,00914960620fa.jpg,,,,,0.605,1.0,,,,,,,1538594179.351775,1538594181.336659,
331,10,Memory,6,,,,,,,00785941205fa.jpg,,,,,0.504,1.0,,,,,,,1538594182.686688,1538594184.670005,
332,10,Memory,6,,,,,,,sunaygrtwrwfezqjizr.jpg,,,,,0.787,2.0,,,,,,,1538594185.921104,1538594187.905783,
333,10,Memory,6,,,,,,,sunaaelyvurpntclgau.jpg,,,,,1.187,1.0,,,,,,,1538594189.155229,1538594191.139427,
334,10,Memory,6,,,,,,,sunaptrqvaooxfvktvw.jpg,,,,,1.053,1.0,,,,,,,1538594192.390226,1538594194.374238,
335,10,Memory,6,,,,,,,01010960627fa.jpg,,,,,0.486,1.0,,,,,,,1538594195.657633,1538594197.641535,
336,10,Memory,6,,,,,,,00868960307fa.jpg,,,,,0.686,1.0,,,,,,,1538594198.97566,1538594200.9596,
337,10,Memory,6,,,,,,,00966960627fa.jpg,,,,,1.153,1.0,,,,,,,1538594202.22693,1538594204.209962,
338,10,Memory,6,,,,,,,sunakmnfgklupjijsgf.jpg,,,,,0.72,1.0,,,,,,,1538594205.461129,1538594207.44529,
339,10,Memory,6,,,,,,,00977960627fa.jpg,,,,,0.453,1.0,,,,,,,1538594208.695266,1538594210.680144,
340,10,Memory,6,,,,,,,00102931230fa.jpg,,,,,0.436,1.0,,,,,,,1538594211.93026,1538594213.913407,
341,10,Memory,6,,,,,,,00142931230fb.jpg,,,,,0.437,1.0,,,,,,,1538594215.164559,1538594217.148609,
342,10,Memory,6,,,,,,,sunaapxkpvrhpjplsok.jpg,,,,,0.37,1.0,,,,,,,1538594218.398503,1538594220.382978,
343,10,Memory,6,,,,,,,sunacacflqoyxhsqzhe.jpg,,,,,0.286,1.0,,,,,,,1538594221.766919,1538594223.749951,
344,10,Memory,6,,,,,,,sunajwqkfsykceonyig.jpg,,,,,0.953,1.0,,,,,,,1538594225.001406,1538594226.985031,
345,10,Memory,6,,,,,,,sunacerqowiaeoqkmsq.jpg,,,,,0.519,1.0,,,,,,,1538594228.251237,1538594230.236445,
346,10,Memory,6,,,,,,,00548940519fa.jpg,,,,,0.469,1.0,,,,,,,1538594231.486407,1538594233.470342,
347,10,Memory,6,,,,,,,sunbaejotfklekvpxcz.jpg,,,,,0.486,1.0,,,,,,,1538594234.887305,1538594236.871626,
348,10,Memory,6,,,,,,,00507940519fa.jpg,,,,,0.803,1.0,,,,,,,1538594238.120772,1538594240.106723,
349,10,Memory,6,,,,,,,00063931230fa.jpg,,,,,1.604,2.0,,,,,,,1538594241.356113,1538594243.339883,
