,Subject,Trial Type,Run,Cued Composite,Uncued Composite,Cued Face,Cued Place,Uncued Face,Uncued Place,Memory Image,Category,Cued Side,Cued Category,Attention Reaction Time (s),Familiarity Reaction Time (s),Familiarity Rating,Attention Level,Cue Validity,Post Invalid Cue,Pre Invalid Cue,Attention Button,Rating History,Stimulus Onset,Stimulus End,Attention Probe
0,11,Presentation,0,00816941205fa_sunahmhrncocyhsjpxk.jpg,00630940928fa_sunaczwgyukesaajxnx.jpg,00816941205fa.jpg,sunahmhrncocyhsjpxk.jpg,00630940928fa.jpg,sunaczwgyukesaajxnx.jpg,,,<,Place,,,,,1,,,,,,,x
1,11,Presentation,0,00976960627fa_sunbbhqyyzmsxhsbjmp.jpg,00860940307fa_sunaizeyhvjzknwjudw.jpg,00976960627fa.jpg,sunbbhqyyzmsxhsbjmp.jpg,00860940307fa.jpg,sunaizeyhvjzknwjudw.jpg,,,<,Place,,,,,1,,,,,,,x
2,11,Presentation,0,00972960627fa_sunbbfqwjpdxniyhies.jpg,00901960530fa_sunammbnoambmhdxdwd.jpg,00972960627fa.jpg,sunbbfqwjpdxniyhies.jpg,00901960530fa.jpg,sunammbnoambmhdxdwd.jpg,,,<,Place,,,,,1,,,,,,,o
3,11,Presentation,0,00779941205fa_sunagdzlvkqtpnfxfcg.jpg,00874940307fa_sunajtrfunvzdfticna.jpg,00779941205fa.jpg,sunagdzlvkqtpnfxfcg.jpg,00874940307fa.jpg,sunajtrfunvzdfticna.jpg,,,<,Place,,,,,1,,,,,,,x
4,11,Presentation,0,00132931230fb_sunaanjcbzdvtvblsdy.jpg,00140931230fb_sunaapllqyqlykszopd.jpg,00132931230fb.jpg,sunaanjcbzdvtvblsdy.jpg,00140931230fb.jpg,sunaapllqyqlykszopd.jpg,,,<,Place,,,,,1,,,,,,,x
5,11,Presentation,0,00638941031fa_sunadfktsqjthoglcsm.jpg,00153931230fa_sunaauhozyxzeeqstxi.jpg,00638941031fa.jpg,sunadfktsqjthoglcsm.jpg,00153931230fa.jpg,sunaauhozyxzeeqstxi.jpg,,,<,Place,,,,,1,,,,,,,o
6,11,Presentation,0,00754941201fa_sunaffgsyyvoqdlkmnk.jpg,00760960620fa_sunaffstbkappprzxnv.jpg,00754941201fa.jpg,sunaffgsyyvoqdlkmnk.jpg,00760960620fa.jpg,sunaffstbkappprzxnv.jpg,,,<,Place,,,,,0,,,,,,,o
7,11,Presentation,0,00952960627fa_sunathzzbcwjykldrem.jpg,00796941205fa_sunaguchqqnrtodtezq.jpg,00952960627fa.jpg,sunathzzbcwjykldrem.jpg,00796941205fa.jpg,sunaguchqqnrtodtezq.jpg,,,<,Place,,,,,1,,,,,,,o
8,11,Presentation,0,00227940128fa_sunabckqabszusgcykj.jpg,00116931230fa_sunaakqepfoeqomfgxf.jpg,00227940128fa.jpg,sunabckqabszusgcykj.jpg,00116931230fa.jpg,sunaakqepfoeqomfgxf.jpg,,,<,Place,,,,,1,,,,,,,x
9,11,Presentation,0,00783941205fa_sunagjeesomrwjsfqie.jpg,00162931230fb_sunaavjinpnkappuonm.jpg,00783941205fa.jpg,sunagjeesomrwjsfqie.jpg,00162931230fb.jpg,sunaavjinpnkappuonm.jpg,,,<,Place,,,,,1,,,,,,,x
10,11,Memory,0,,,,,,,00952960627fa.jpg,,,,,,,,,,,,,,,
11,11,Memory,0,,,,,,,sunaivflshbyfrfzhqb.jpg,,,,,,,,,,,,,,,
12,11,Memory,0,,,,,,,00860940307fa.jpg,,,,,,,,,,,,,,,
13,11,Memory,0,,,,,,,sunabyfxcxhdebvdyfd.jpg,,,,,,,,,,,,,,,
14,11,Memory,0,,,,,,,sunammbnoambmhdxdwd.jpg,,,,,,,,,,,,,,,
15,11,Memory,0,,,,,,,sunbmaiocftdtvnzgap.jpg,,,,,,,,,,,,,,,
16,11,Memory,0,,,,,,,00957960627fa.jpg,,,,,,,,,,,,,,,
17,11,Memory,0,,,,,,,sunaanjcbzdvtvblsdy.jpg,,,,,,,,,,,,,,,
18,11,Memory,0,,,,,,,00132931230fb.jpg,,,,,,,,,,,,,,,
19,11,Memory,0,,,,,,,00816941205fa.jpg,,,,,,,,,,,,,,,
20,11,Memory,0,,,,,,,00796941205fa.jpg,,,,,,,,,,,,,,,
21,11,Memory,0,,,,,,,00851940307fa.jpg,,,,,,,,,,,,,,,
22,11,Memory,0,,,,,,,sunaizeyhvjzknwjudw.jpg,,,,,,,,,,,,,,,
23,11,Memory,0,,,,,,,00574940928fa.jpg,,,,,,,,,,,,,,,
24,11,Memory,0,,,,,,,sunbprywzqxjcezkbch.jpg,,,,,,,,,,,,,,,
25,11,Memory,0,,,,,,,sunbwtlihsuptkrckid.jpg,,,,,,,,,,,,,,,
26,11,Memory,0,,,,,,,sunabanoxjtqxamkucc.jpg,,,,,,,,,,,,,,,
27,11,Memory,0,,,,,,,00976960627fa.jpg,,,,,,,,,,,,,,,
28,11,Memory,0,,,,,,,sunaawsdjisukbbginm.jpg,,,,,,,,,,,,,,,
29,11,Memory,0,,,,,,,00140931230fb.jpg,,,,,,,,,,,,,,,
30,11,Memory,0,,,,,,,sunaguchqqnrtodtezq.jpg,,,,,,,,,,,,,,,
31,11,Memory,0,,,,,,,sunajtrfunvzdfticna.jpg,,,,,,,,,,,,,,,
32,11,Memory,0,,,,,,,sunahmhrncocyhsjpxk.jpg,,,,,,,,,,,,,,,
33,11,Memory,0,,,,,,,00901960530fa.jpg,,,,,,,,,,,,,,,
34,11,Memory,0,,,,,,,00972960627fa.jpg,,,,,,,,,,,,,,,
35,11,Memory,0,,,,,,,00095931230fa.jpg,,,,,,,,,,,,,,,
36,11,Memory,0,,,,,,,sunathzzbcwjykldrem.jpg,,,,,,,,,,,,,,,
37,11,Memory,0,,,,,,,00482940519fa.jpg,,,,,,,,,,,,,,,
38,11,Memory,0,,,,,,,00191940128fb.jpg,,,,,,,,,,,,,,,
39,11,Memory,0,,,,,,,01004960627fa.jpg,,,,,,,,,,,,,,,
40,11,Memory,0,,,,,,,sunavhxgmgrqsaptynb.jpg,,,,,,,,,,,,,,,
41,11,Memory,0,,,,,,,sunacvbrcejzwmcgnoq.jpg,,,,,,,,,,,,,,,
42,11,Memory,0,,,,,,,00993960627fa.jpg,,,,,,,,,,,,,,,
43,11,Memory,0,,,,,,,sunbbfqwjpdxniyhies.jpg,,,,,,,,,,,,,,,
44,11,Memory,0,,,,,,,sunbbhqyyzmsxhsbjmp.jpg,,,,,,,,,,,,,,,
45,11,Memory,0,,,,,,,00210940128fb.jpg,,,,,,,,,,,,,,,
46,11,Memory,0,,,,,,,00874940307fa.jpg,,,,,,,,,,,,,,,
47,11,Memory,0,,,,,,,sunaapllqyqlykszopd.jpg,,,,,,,,,,,,,,,
48,11,Memory,0,,,,,,,00988960627fa.jpg,,,,,,,,,,,,,,,
49,11,Memory,0,,,,,,,sunaahzooisqkwlxwoz.jpg,,,,,,,,,,,,,,,
50,11,Presentation,1,00071940128fa_sunaaexpnawiehinlpy.jpg,00548940519fa_sunacerqowiaeoqkmsq.jpg,00071940128fa.jpg,sunaaexpnawiehinlpy.jpg,00548940519fa.jpg,sunacerqowiaeoqkmsq.jpg,,,<,Face,,,,,0,,,,,,,x
51,11,Presentation,1,00131931230fb_sunaangbuylfvckqqoo.jpg,00540940519fa_sunacdnquypmsshhsbk.jpg,00131931230fb.jpg,sunaangbuylfvckqqoo.jpg,00540940519fa.jpg,sunacdnquypmsshhsbk.jpg,,,<,Face,,,,,0,,,,,,,x
52,11,Presentation,1,00481940519fa_sunabxsuqbleluwczoy.jpg,00636941031fa_sunaddtdkycxbqlpfqa.jpg,00481940519fa.jpg,sunabxsuqbleluwczoy.jpg,00636941031fa.jpg,sunaddtdkycxbqlpfqa.jpg,,,<,Face,,,,,1,,,,,,,o
53,11,Presentation,1,00270940422fb_sunabllobxadqcyttej.jpg,00609940928fa_sunacycdoztxoluxjyk.jpg,00270940422fb.jpg,sunabllobxadqcyttej.jpg,00609940928fa.jpg,sunacycdoztxoluxjyk.jpg,,,<,Face,,,,,1,,,,,,,o
54,11,Presentation,1,00743941201fa_sunaeoghzrjarigmwua.jpg,00887960530_sunalcrtwiycqobgelp.jpg,00743941201fa.jpg,sunaeoghzrjarigmwua.jpg,00887960530.jpg,sunalcrtwiycqobgelp.jpg,,,<,Face,,,,,1,,,,,,,o
55,11,Presentation,1,00126931230fb_sunaamdjwemxpmmtypi.jpg,00749941201fa_sunaeuvjbmdpknaqqaj.jpg,00126931230fb.jpg,sunaamdjwemxpmmtypi.jpg,00749941201fa.jpg,sunaeuvjbmdpknaqqaj.jpg,,,<,Face,,,,,1,,,,,,,o
56,11,Presentation,1,00960960627fa_sunawksfbacycuhbrsc.jpg,00847940307fa_sunaivdjruhkrfywfed.jpg,00960960627fa.jpg,sunawksfbacycuhbrsc.jpg,00847940307fa.jpg,sunaivdjruhkrfywfed.jpg,,,<,Face,,,,,1,,,,,,,o
57,11,Presentation,1,00809960620fa_sunahbvlpavurqoxdeq.jpg,00302940422fa_sunabtlfmiwtljmoues.jpg,00809960620fa.jpg,sunahbvlpavurqoxdeq.jpg,00302940422fa.jpg,sunabtlfmiwtljmoues.jpg,,,<,Face,,,,,1,,,,,,,x
58,11,Presentation,1,00239940128fa_sunabctlikybqabezjv.jpg,00276940422fa_sunabmytpyhsgigllxu.jpg,00239940128fa.jpg,sunabctlikybqabezjv.jpg,00276940422fa.jpg,sunabmytpyhsgigllxu.jpg,,,<,Face,,,,,1,,,,,,,o
59,11,Presentation,1,00147931230fb_sunaatpkocdkocwxpkb.jpg,00961960627fa_sunawotxrevnqvamsfp.jpg,00147931230fb.jpg,sunaatpkocdkocwxpkb.jpg,00961960627fa.jpg,sunawotxrevnqvamsfp.jpg,,,<,Face,,,,,1,,,,,,,x
60,11,Memory,1,,,,,,,00270940422fb.jpg,,,,,,,,,,,,,,,
61,11,Memory,1,,,,,,,sunapqwnqzxlsfvgsjm.jpg,,,,,,,,,,,,,,,
62,11,Memory,1,,,,,,,00276940422fa.jpg,,,,,,,,,,,,,,,
63,11,Memory,1,,,,,,,00752960620fa.jpg,,,,,,,,,,,,,,,
64,11,Memory,1,,,,,,,00809960620fa.jpg,,,,,,,,,,,,,,,
65,11,Memory,1,,,,,,,sunamkmeblgteyggink.jpg,,,,,,,,,,,,,,,
66,11,Memory,1,,,,,,,00242940128fa.jpg,,,,,,,,,,,,,,,
67,11,Memory,1,,,,,,,00847940307fa.jpg,,,,,,,,,,,,,,,
68,11,Memory,1,,,,,,,sunahbvlpavurqoxdeq.jpg,,,,,,,,,,,,,,,
69,11,Memory,1,,,,,,,00147931230fb.jpg,,,,,,,,,,,,,,,
70,11,Memory,1,,,,,,,00749941201fa.jpg,,,,,,,,,,,,,,,
71,11,Memory,1,,,,,,,sunagmwxxwymwojbvgi.jpg,,,,,,,,,,,,,,,
72,11,Memory,1,,,,,,,00507940519fa.jpg,,,,,,,,,,,,,,,
73,11,Memory,1,,,,,,,sunaaexpnawiehinlpy.jpg,,,,,,,,,,,,,,,
74,11,Memory,1,,,,,,,sunaatpkocdkocwxpkb.jpg,,,,,,,,,,,,,,,
75,11,Memory,1,,,,,,,sunawksfbacycuhbrsc.jpg,,,,,,,,,,,,,,,
76,11,Memory,1,,,,,,,sunaeuvjbmdpknaqqaj.jpg,,,,,,,,,,,,,,,
77,11,Memory,1,,,,,,,sunabllobxadqcyttej.jpg,,,,,,,,,,,,,,,
78,11,Memory,1,,,,,,,00811960530fa.jpg,,,,,,,,,,,,,,,
79,11,Memory,1,,,,,,,00071940128fa.jpg,,,,,,,,,,,,,,,
80,11,Memory,1,,,,,,,sunahedfrhtcwpneund.jpg,,,,,,,,,,,,,,,
81,11,Memory,1,,,,,,,00898960530fa.jpg,,,,,,,,,,,,,,,
82,11,Memory,1,,,,,,,00540940519fa.jpg,,,,,,,,,,,,,,,
83,11,Memory,1,,,,,,,sunacacflqoyxhsqzhe.jpg,,,,,,,,,,,,,,,
84,11,Memory,1,,,,,,,sunabcuurugvxwparpk.jpg,,,,,,,,,,,,,,,
85,11,Memory,1,,,,,,,00960960627fa.jpg,,,,,,,,,,,,,,,
86,11,Memory,1,,,,,,,00670941121fa.jpg,,,,,,,,,,,,,,,
87,11,Memory,1,,,,,,,00787941205fa.jpg,,,,,,,,,,,,,,,
88,11,Memory,1,,,,,,,00925960627fa.jpg,,,,,,,,,,,,,,,
89,11,Memory,1,,,,,,,sunafhmnhsdurlvddpw.jpg,,,,,,,,,,,,,,,
90,11,Memory,1,,,,,,,sunaivdjruhkrfywfed.jpg,,,,,,,,,,,,,,,
91,11,Memory,1,,,,,,,sunacdnquypmsshhsbk.jpg,,,,,,,,,,,,,,,
92,11,Memory,1,,,,,,,00763941205fa.jpg,,,,,,,,,,,,,,,
93,11,Memory,1,,,,,,,00961960627fa.jpg,,,,,,,,,,,,,,,
94,11,Memory,1,,,,,,,sunabmytpyhsgigllxu.jpg,,,,,,,,,,,,,,,
95,11,Memory,1,,,,,,,sunasbbntuiheekqyaq.jpg,,,,,,,,,,,,,,,
96,11,Memory,1,,,,,,,sunawotxrevnqvamsfp.jpg,,,,,,,,,,,,,,,
97,11,Memory,1,,,,,,,00944960627fa.jpg,,,,,,,,,,,,,,,
98,11,Memory,1,,,,,,,sunadochqcucscehsgk.jpg,,,,,,,,,,,,,,,
99,11,Memory,1,,,,,,,sunafbwnojpqeyzssoe.jpg,,,,,,,,,,,,,,,
100,11,Presentation,2,00915960620fa_sunapileznnbbmrwoei.jpg,00761960627fa_sunafgdqbclkwfocdhg.jpg,00915960620fa.jpg,sunapileznnbbmrwoei.jpg,00761960627fa.jpg,sunafgdqbclkwfocdhg.jpg,,,<,Place,,,,,1,,,,,,,x
101,11,Presentation,2,00968960627fa_sunbagfpovqwbuexqdn.jpg,00102931230fa_sunaajspcoepticvplv.jpg,00968960627fa.jpg,sunbagfpovqwbuexqdn.jpg,00102931230fa.jpg,sunaajspcoepticvplv.jpg,,,<,Place,,,,,1,,,,,,,o
102,11,Presentation,2,00909960530_sunaobtizabegtwfwul.jpg,00966960627fa_sunaygrtwrwfezqjizr.jpg,00909960530.jpg,sunaobtizabegtwfwul.jpg,00966960627fa.jpg,sunaygrtwrwfezqjizr.jpg,,,<,Place,,,,,1,,,,,,,x
103,11,Presentation,2,00194940128fb_sunaayehfdqcyxggsej.jpg,00568940928fa_sunacsdhbbsybcyxnel.jpg,00194940128fb.jpg,sunaayehfdqcyxggsej.jpg,00568940928fa.jpg,sunacsdhbbsybcyxnel.jpg,,,<,Place,,,,,1,,,,,,,x
104,11,Presentation,2,00073931230fa_sunaafbmtoniaasysgu.jpg,00789960620fa_sunagpancjmxqfazssf.jpg,00073931230fa.jpg,sunaafbmtoniaasysgu.jpg,00789960620fa.jpg,sunagpancjmxqfazssf.jpg,,,<,Place,,,,,1,,,,,,,o
105,11,Presentation,2,00700941121fa_sunadsgmtznewzyasnk.jpg,00081941031fa_sunaaftlyfudyzuhqzf.jpg,00700941121fa.jpg,sunadsgmtznewzyasnk.jpg,00081941031fa.jpg,sunaaftlyfudyzuhqzf.jpg,,,<,Place,,,,,1,,,,,,,o
106,11,Presentation,2,00884960530fa_sunakodkcslgqhqlgwl.jpg,00589940928fa_sunacwggadqsfpovdjv.jpg,00884960530fa.jpg,sunakodkcslgqhqlgwl.jpg,00589940928fa.jpg,sunacwggadqsfpovdjv.jpg,,,<,Place,,,,,1,,,,,,,x
107,11,Presentation,2,00543940519fa_sunacepzfrmtkiqonpy.jpg,00977960627fa_sunbbxkanhzjgbwyxqs.jpg,00543940519fa.jpg,sunacepzfrmtkiqonpy.jpg,00977960627fa.jpg,sunbbxkanhzjgbwyxqs.jpg,,,<,Place,,,,,1,,,,,,,x
108,11,Presentation,2,00133931230fa_sunaanlwnpqndclffxt.jpg,00211940128fa_sunabasphceswhwwqvv.jpg,00133931230fa.jpg,sunaanlwnpqndclffxt.jpg,00211940128fa.jpg,sunabasphceswhwwqvv.jpg,,,<,Place,,,,,1,,,,,,,x
109,11,Presentation,2,00894960620fa_sunalqmfgeadpqsyzpd.jpg,00902960530fa_sunanaacmmosxrfwmvl.jpg,00894960620fa.jpg,sunalqmfgeadpqsyzpd.jpg,00902960530fa.jpg,sunanaacmmosxrfwmvl.jpg,,,<,Place,,,,,1,,,,,,,o
110,11,Memory,2,,,,,,,sunafvcflzhlqloapyo.jpg,,,,,,,,,,,,,,,
111,11,Memory,2,,,,,,,sunadsgmtznewzyasnk.jpg,,,,,,,,,,,,,,,
112,11,Memory,2,,,,,,,00543940519fa.jpg,,,,,,,,,,,,,,,
113,11,Memory,2,,,,,,,sunaddsaeicthrfbkhe.jpg,,,,,,,,,,,,,,,
114,11,Memory,2,,,,,,,sunanaacmmosxrfwmvl.jpg,,,,,,,,,,,,,,,
115,11,Memory,2,,,,,,,sunaayehfdqcyxggsej.jpg,,,,,,,,,,,,,,,
116,11,Memory,2,,,,,,,sunacsdhbbsybcyxnel.jpg,,,,,,,,,,,,,,,
117,11,Memory,2,,,,,,,sunaekgzpfilgjxpeyq.jpg,,,,,,,,,,,,,,,
118,11,Memory,2,,,,,,,sunagufzbeteqdjxais.jpg,,,,,,,,,,,,,,,
119,11,Memory,2,,,,,,,00194940128fb.jpg,,,,,,,,,,,,,,,
120,11,Memory,2,,,,,,,sunacwggadqsfpovdjv.jpg,,,,,,,,,,,,,,,
121,11,Memory,2,,,,,,,00902960530fa.jpg,,,,,,,,,,,,,,,
122,11,Memory,2,,,,,,,sunabwmcbaxwioksdgw.jpg,,,,,,,,,,,,,,,
123,11,Memory,2,,,,,,,sunakodkcslgqhqlgwl.jpg,,,,,,,,,,,,,,,
124,11,Memory,2,,,,,,,sunaobtizabegtwfwul.jpg,,,,,,,,,,,,,,,
125,11,Memory,2,,,,,,,00635941031fa.jpg,,,,,,,,,,,,,,,
126,11,Memory,2,,,,,,,00773941201fa.jpg,,,,,,,,,,,,,,,
127,11,Memory,2,,,,,,,00884960530fa.jpg,,,,,,,,,,,,,,,
128,11,Memory,2,,,,,,,sunafijbgncijwykrnl.jpg,,,,,,,,,,,,,,,
129,11,Memory,2,,,,,,,sunacepzfrmtkiqonpy.jpg,,,,,,,,,,,,,,,
130,11,Memory,2,,,,,,,00090931230fa.jpg,,,,,,,,,,,,,,,
131,11,Memory,2,,,,,,,00081941031fa.jpg,,,,,,,,,,,,,,,
132,11,Memory,2,,,,,,,00909960530.jpg,,,,,,,,,,,,,,,
133,11,Memory,2,,,,,,,sunabkmdplkdbvxriff.jpg,,,,,,,,,,,,,,,
134,11,Memory,2,,,,,,,sunaahedjlmtqekgyvj.jpg,,,,,,,,,,,,,,,
135,11,Memory,2,,,,,,,sunaaftlyfudyzuhqzf.jpg,,,,,,,,,,,,,,,
136,11,Memory,2,,,,,,,00766960620fa.jpg,,,,,,,,,,,,,,,
137,11,Memory,2,,,,,,,sunadnjjzohjhbohlwq.jpg,,,,,,,,,,,,,,,
138,11,Memory,2,,,,,,,00700941121fa.jpg,,,,,,,,,,,,,,,
139,11,Memory,2,,,,,,,00265940128fb.jpg,,,,,,,,,,,,,,,
140,11,Memory,2,,,,,,,00663941121fa.jpg,,,,,,,,,,,,,,,
141,11,Memory,2,,,,,,,00589940928fa.jpg,,,,,,,,,,,,,,,
142,11,Memory,2,,,,,,,sunajbwkywmsqkldfml.jpg,,,,,,,,,,,,,,,
143,11,Memory,2,,,,,,,00789960620fa.jpg,,,,,,,,,,,,,,,
144,11,Memory,2,,,,,,,00314940422fa.jpg,,,,,,,,,,,,,,,
145,11,Memory,2,,,,,,,00866940307fa.jpg,,,,,,,,,,,,,,,
146,11,Memory,2,,,,,,,sunagpancjmxqfazssf.jpg,,,,,,,,,,,,,,,
147,11,Memory,2,,,,,,,00568940928fa.jpg,,,,,,,,,,,,,,,
148,11,Memory,2,,,,,,,00730960620fa.jpg,,,,,,,,,,,,,,,
149,11,Memory,2,,,,,,,00797960620fa.jpg,,,,,,,,,,,,,,,
150,11,Presentation,3,00097931230fa_sunaajayojuslbbnneg.jpg,00123931230fb_sunaalcrrdbjgdztbiz.jpg,00097931230fa.jpg,sunaajayojuslbbnneg.jpg,00123931230fb.jpg,sunaalcrrdbjgdztbiz.jpg,,,>,Face,,,,,1,,,,,,,o
151,11,Presentation,3,00060931230fa_sunaaehaikpckyjsety.jpg,01010960627fa_suncnkvbhypnivcohyx.jpg,00060931230fa.jpg,sunaaehaikpckyjsety.jpg,01010960627fa.jpg,suncnkvbhypnivcohyx.jpg,,,>,Face,,,,,1,,,,,,,x
152,11,Presentation,3,00910960530fa_sunaofikylqtxphvdem.jpg,00559940519fa_sunacjkmnpawfzbyvae.jpg,00910960530fa.jpg,sunaofikylqtxphvdem.jpg,00559940519fa.jpg,sunacjkmnpawfzbyvae.jpg,,,>,Face,,,,,1,,,,,,,x
153,11,Presentation,3,00184940128fa_sunaavtbadenwnzeutj.jpg,00871940307_sunajrujcsdxmfbssmc.jpg,00184940128fa.jpg,sunaavtbadenwnzeutj.jpg,00871940307.jpg,sunajrujcsdxmfbssmc.jpg,,,>,Face,,,,,1,,,,,,,o
154,11,Presentation,3,00723941201fa_sunaedtgwjvvziytspa.jpg,00949960627fb_sunasnqkkyhilqkxiqm.jpg,00723941201fa.jpg,sunaedtgwjvvziytspa.jpg,00949960627fb.jpg,sunasnqkkyhilqkxiqm.jpg,,,>,Face,,,,,1,,,,,,,o
155,11,Presentation,3,00093931230fa_sunaahwnmtqsrhocysw.jpg,00801941205fa_sunagvprlbprarvgdvj.jpg,00093931230fa.jpg,sunaahwnmtqsrhocysw.jpg,00801941205fa.jpg,sunagvprlbprarvgdvj.jpg,,,>,Face,,,,,1,,,,,,,x
156,11,Presentation,3,00864940307fa_sunajawzbrlrwafowen.jpg,00854940307fa_sunaiwduelojtwaqeyh.jpg,00864940307fa.jpg,sunajawzbrlrwafowen.jpg,00854940307fa.jpg,sunaiwduelojtwaqeyh.jpg,,,>,Face,,,,,1,,,,,,,o
157,11,Presentation,3,00263940128fb_sunabjuovqvyfuzvqwt.jpg,00799941205fa_sunagutjvdvnhxejerz.jpg,00263940128fb.jpg,sunabjuovqvyfuzvqwt.jpg,00799941205fa.jpg,sunagutjvdvnhxejerz.jpg,,,>,Face,,,,,1,,,,,,,x
158,11,Presentation,3,00800941205fb_sunagvjurcwdbixvnyi.jpg,01005960627fa_sunbwyuesflwdpqtgoy.jpg,00800941205fb.jpg,sunagvjurcwdbixvnyi.jpg,01005960627fa.jpg,sunbwyuesflwdpqtgoy.jpg,,,>,Face,,,,,0,,,,,,,o
159,11,Presentation,3,00267940128fb_sunablfqiwfqomjarht.jpg,00620940928fa_sunacypmnujalygkunp.jpg,00267940128fb.jpg,sunablfqiwfqomjarht.jpg,00620940928fa.jpg,sunacypmnujalygkunp.jpg,,,>,Face,,,,,1,,,,,,,x
160,11,Memory,3,,,,,,,sunbwyuesflwdpqtgoy.jpg,,,,,,,,,,,,,,,
161,11,Memory,3,,,,,,,sunaedtgwjvvziytspa.jpg,,,,,,,,,,,,,,,
162,11,Memory,3,,,,,,,00316940422fa.jpg,,,,,,,,,,,,,,,
163,11,Memory,3,,,,,,,00799941205fa.jpg,,,,,,,,,,,,,,,
164,11,Memory,3,,,,,,,sunacypmnujalygkunp.jpg,,,,,,,,,,,,,,,
165,11,Memory,3,,,,,,,00559940519fa.jpg,,,,,,,,,,,,,,,
166,11,Memory,3,,,,,,,00260940128fa.jpg,,,,,,,,,,,,,,,
167,11,Memory,3,,,,,,,sunaaehaikpckyjsety.jpg,,,,,,,,,,,,,,,
168,11,Memory,3,,,,,,,00803941205fa.jpg,,,,,,,,,,,,,,,
169,11,Memory,3,,,,,,,00949960627fb.jpg,,,,,,,,,,,,,,,
170,11,Memory,3,,,,,,,sunabjuovqvyfuzvqwt.jpg,,,,,,,,,,,,,,,
171,11,Memory,3,,,,,,,00723941201fa.jpg,,,,,,,,,,,,,,,
172,11,Memory,3,,,,,,,sunagsiwrmuixqgdimb.jpg,,,,,,,,,,,,,,,
173,11,Memory,3,,,,,,,01005960627fa.jpg,,,,,,,,,,,,,,,
174,11,Memory,3,,,,,,,00792941205fa.jpg,,,,,,,,,,,,,,,
175,11,Memory,3,,,,,,,sunaajayojuslbbnneg.jpg,,,,,,,,,,,,,,,
176,11,Memory,3,,,,,,,00864940307fa.jpg,,,,,,,,,,,,,,,
177,11,Memory,3,,,,,,,00288940422fa.jpg,,,,,,,,,,,,,,,
178,11,Memory,3,,,,,,,00807941205fa.jpg,,,,,,,,,,,,,,,
179,11,Memory,3,,,,,,,00097931230fa.jpg,,,,,,,,,,,,,,,
180,11,Memory,3,,,,,,,00060931230fa.jpg,,,,,,,,,,,,,,,
181,11,Memory,3,,,,,,,sunacjkmnpawfzbyvae.jpg,,,,,,,,,,,,,,,
182,11,Memory,3,,,,,,,sunauburywlkjszngcq.jpg,,,,,,,,,,,,,,,
183,11,Memory,3,,,,,,,00620940928fa.jpg,,,,,,,,,,,,,,,
184,11,Memory,3,,,,,,,sunajawzbrlrwafowen.jpg,,,,,,,,,,,,,,,
185,11,Memory,3,,,,,,,sunadoxcchtmsxewsau.jpg,,,,,,,,,,,,,,,
186,11,Memory,3,,,,,,,sunahtfxgsrmkiulnwk.jpg,,,,,,,,,,,,,,,
187,11,Memory,3,,,,,,,sunagutjvdvnhxejerz.jpg,,,,,,,,,,,,,,,
188,11,Memory,3,,,,,,,sunabxmguapjekttvwm.jpg,,,,,,,,,,,,,,,
189,11,Memory,3,,,,,,,00955960627fb.jpg,,,,,,,,,,,,,,,
190,11,Memory,3,,,,,,,sunasnqkkyhilqkxiqm.jpg,,,,,,,,,,,,,,,
191,11,Memory,3,,,,,,,sunagvxkjokqimstxpe.jpg,,,,,,,,,,,,,,,
192,11,Memory,3,,,,,,,sunadcphrizvfpljiqt.jpg,,,,,,,,,,,,,,,
193,11,Memory,3,,,,,,,00634940928fa.jpg,,,,,,,,,,,,,,,
194,11,Memory,3,,,,,,,sunabgfhvifeijihhjw.jpg,,,,,,,,,,,,,,,
195,11,Memory,3,,,,,,,00827940307fa.jpg,,,,,,,,,,,,,,,
196,11,Memory,3,,,,,,,00675941121fa.jpg,,,,,,,,,,,,,,,
197,11,Memory,3,,,,,,,sunabppokiyglaxpcha.jpg,,,,,,,,,,,,,,,
198,11,Memory,3,,,,,,,00263940128fb.jpg,,,,,,,,,,,,,,,
199,11,Memory,3,,,,,,,sunahawfngukizslzsd.jpg,,,,,,,,,,,,,,,
200,11,Presentation,4,00786941205fa_sunagmhildamktmqjss.jpg,00877960530fa_sunajxpkuhbizeveguy.jpg,00786941205fa.jpg,sunagmhildamktmqjss.jpg,00877960530fa.jpg,sunajxpkuhbizeveguy.jpg,,,<,Face,,,,,1,,,,,,,x
201,11,Presentation,4,00598941031fa_sunacxtcahkymosigud.jpg,00971960627fa_sunbbegcweqnetpdlrh.jpg,00598941031fa.jpg,sunacxtcahkymosigud.jpg,00971960627fa.jpg,sunbbegcweqnetpdlrh.jpg,,,<,Face,,,,,0,,,,,,,o
202,11,Presentation,4,00146960620fb_sunaatpeezlljqaxlhj.jpg,00720960620fa_sunaecpkgfewqqreqwe.jpg,00146960620fb.jpg,sunaatpeezlljqaxlhj.jpg,00720960620fa.jpg,sunaecpkgfewqqreqwe.jpg,,,<,Face,,,,,1,,,,,,,o
203,11,Presentation,4,00158931230fb_sunaavchcbptaerhcfy.jpg,00768941205fa_sunafkmnlytenlsywia.jpg,00158931230fb.jpg,sunaavchcbptaerhcfy.jpg,00768941205fa.jpg,sunafkmnlytenlsywia.jpg,,,<,Face,,,,,0,,,,,,,x
204,11,Presentation,4,00209940128fb_sunabaergayifsgacxt.jpg,00280940422fb_sunabohxbskznglnrhv.jpg,00209940128fb.jpg,sunabaergayifsgacxt.jpg,00280940422fb.jpg,sunabohxbskznglnrhv.jpg,,,<,Face,,,,,0,,,,,,,x
205,11,Presentation,4,00919960620fa_sunapmfmzadmosuogaz.jpg,00935960627fa_sunaqbmgkgqucajzrkp.jpg,00919960620fa.jpg,sunapmfmzadmosuogaz.jpg,00935960627fa.jpg,sunaqbmgkgqucajzrkp.jpg,,,<,Face,,,,,1,,,,,,,x
206,11,Presentation,4,00936960627fa_sunaqgjuuwvdcyiccjt.jpg,00774941201fa_sunafvtpfczkzopbgue.jpg,00936960627fa.jpg,sunaqgjuuwvdcyiccjt.jpg,00774941201fa.jpg,sunafvtpfczkzopbgue.jpg,,,<,Face,,,,,1,,,,,,,o
207,11,Presentation,4,00836940307fa_sunainqelldeebvxtcz.jpg,00245940128fa_sunabeyhmxodahoieyk.jpg,00836940307fa.jpg,sunainqelldeebvxtcz.jpg,00245940128fa.jpg,sunabeyhmxodahoieyk.jpg,,,<,Face,,,,,1,,,,,,,o
208,11,Presentation,4,00818940307fa_sunahpblecxtmuzkmxb.jpg,00787960620fa_sunagoufulkpsxrmklt.jpg,00818940307fa.jpg,sunahpblecxtmuzkmxb.jpg,00787960620fa.jpg,sunagoufulkpsxrmklt.jpg,,,<,Face,,,,,1,,,,,,,x
209,11,Presentation,4,00598940928fa_sunacxeheuiigkcgquf.jpg,00775941205fa_sunafvwfsmqkjrutjta.jpg,00598940928fa.jpg,sunacxeheuiigkcgquf.jpg,00775941205fa.jpg,sunafvwfsmqkjrutjta.jpg,,,<,Face,,,,,1,,,,,,,o
210,11,Memory,4,,,,,,,00787960620fa.jpg,,,,,,,,,,,,,,,
211,11,Memory,4,,,,,,,sunajxpkuhbizeveguy.jpg,,,,,,,,,,,,,,,
212,11,Memory,4,,,,,,,sunapmfmzadmosuogaz.jpg,,,,,,,,,,,,,,,
213,11,Memory,4,,,,,,,00877960530fa.jpg,,,,,,,,,,,,,,,
214,11,Memory,4,,,,,,,sunbbegcweqnetpdlrh.jpg,,,,,,,,,,,,,,,
215,11,Memory,4,,,,,,,00786941205fa.jpg,,,,,,,,,,,,,,,
216,11,Memory,4,,,,,,,sunaakxjfbrrequcjmx.jpg,,,,,,,,,,,,,,,
217,11,Memory,4,,,,,,,00598940928fa.jpg,,,,,,,,,,,,,,,
218,11,Memory,4,,,,,,,sunabaergayifsgacxt.jpg,,,,,,,,,,,,,,,
219,11,Memory,4,,,,,,,sunanmoqeyprjjjfxjt.jpg,,,,,,,,,,,,,,,
220,11,Memory,4,,,,,,,00071941031fa.jpg,,,,,,,,,,,,,,,
221,11,Memory,4,,,,,,,00921960627fa.jpg,,,,,,,,,,,,,,,
222,11,Memory,4,,,,,,,00772941201fa.jpg,,,,,,,,,,,,,,,
223,11,Memory,4,,,,,,,00647941031fa.jpg,,,,,,,,,,,,,,,
224,11,Memory,4,,,,,,,sunacxeheuiigkcgquf.jpg,,,,,,,,,,,,,,,
225,11,Memory,4,,,,,,,00775941205fa.jpg,,,,,,,,,,,,,,,
226,11,Memory,4,,,,,,,sunaloffvbvysigxent.jpg,,,,,,,,,,,,,,,
227,11,Memory,4,,,,,,,00919960620fa.jpg,,,,,,,,,,,,,,,
228,11,Memory,4,,,,,,,sunasrjlmglmjzbmqxb.jpg,,,,,,,,,,,,,,,
229,11,Memory,4,,,,,,,00905960530fa.jpg,,,,,,,,,,,,,,,
230,11,Memory,4,,,,,,,sunaavchcbptaerhcfy.jpg,,,,,,,,,,,,,,,
231,11,Memory,4,,,,,,,00306940422fa.jpg,,,,,,,,,,,,,,,
232,11,Memory,4,,,,,,,sunapqkpqdfvxlbqwyo.jpg,,,,,,,,,,,,,,,
233,11,Memory,4,,,,,,,00893960530Fa.jpg,,,,,,,,,,,,,,,
234,11,Memory,4,,,,,,,sunadflbrkckmepztql.jpg,,,,,,,,,,,,,,,
235,11,Memory,4,,,,,,,00971960627fa.jpg,,,,,,,,,,,,,,,
236,11,Memory,4,,,,,,,sunagoufulkpsxrmklt.jpg,,,,,,,,,,,,,,,
237,11,Memory,4,,,,,,,sunaaexqbtdswxrqjvz.jpg,,,,,,,,,,,,,,,
238,11,Memory,4,,,,,,,00969960627fa.jpg,,,,,,,,,,,,,,,
239,11,Memory,4,,,,,,,sunabeyhmxodahoieyk.jpg,,,,,,,,,,,,,,,
240,11,Memory,4,,,,,,,00209940128fb.jpg,,,,,,,,,,,,,,,
241,11,Memory,4,,,,,,,sunagmhildamktmqjss.jpg,,,,,,,,,,,,,,,
242,11,Memory,4,,,,,,,00122931230fa.jpg,,,,,,,,,,,,,,,
243,11,Memory,4,,,,,,,00950960627fa.jpg,,,,,,,,,,,,,,,
244,11,Memory,4,,,,,,,00158931230fb.jpg,,,,,,,,,,,,,,,
245,11,Memory,4,,,,,,,00245940128fa.jpg,,,,,,,,,,,,,,,
246,11,Memory,4,,,,,,,sunafpfpiiujzoesnqg.jpg,,,,,,,,,,,,,,,
247,11,Memory,4,,,,,,,sunbaoizrfijvhpnnjn.jpg,,,,,,,,,,,,,,,
248,11,Memory,4,,,,,,,sunafvwfsmqkjrutjta.jpg,,,,,,,,,,,,,,,
249,11,Memory,4,,,,,,,sunabueyoajufbkraki.jpg,,,,,,,,,,,,,,,
250,11,Presentation,5,00145931230fb_sunaatjesvdupctftmn.jpg,00098931230fa_sunaajpqmulidejvjsr.jpg,00145931230fb.jpg,sunaatjesvdupctftmn.jpg,00098931230fa.jpg,sunaajpqmulidejvjsr.jpg,,,>,Place,,,,,1,,,,,,,x
251,11,Presentation,5,00878960530fa_sunakgbnzxmfohgehnu.jpg,00926960627Fa_sunapqwoeotxshkukbh.jpg,00878960530fa.jpg,sunakgbnzxmfohgehnu.jpg,00926960627Fa.jpg,sunapqwoeotxshkukbh.jpg,,,>,Place,,,,,1,,,,,,,o
252,11,Presentation,5,00841940307fa_sunaisiwfgppimtnmxl.jpg,00746941201fa_sunaetydippjxikifsb.jpg,00841940307fa.jpg,sunaisiwfgppimtnmxl.jpg,00746941201fa.jpg,sunaetydippjxikifsb.jpg,,,>,Place,,,,,1,,,,,,,o
253,11,Presentation,5,00115931230fa_sunaakmxzhuceuiryah.jpg,00895960530fa_sunamczizlzavhzhpay.jpg,00115931230fa.jpg,sunaakmxzhuceuiryah.jpg,00895960530fa.jpg,sunamczizlzavhzhpay.jpg,,,>,Place,,,,,1,,,,,,,o
254,11,Presentation,5,00564941031fa_sunacsaovnjezqwbykf.jpg,00292940422fb_sunabrjdpmoedcdjbpo.jpg,00564941031fa.jpg,sunacsaovnjezqwbykf.jpg,00292940422fb.jpg,sunabrjdpmoedcdjbpo.jpg,,,>,Place,,,,,1,,,,,,,o
255,11,Presentation,5,00198940128fb_sunaazezcsunmhttzxz.jpg,00984960627fa_sunbfzchmomnvzhbxdg.jpg,00198940128fb.jpg,sunaazezcsunmhttzxz.jpg,00984960627fa.jpg,sunbfzchmomnvzhbxdg.jpg,,,>,Place,,,,,1,,,,,,,x
256,11,Presentation,5,00862940307fa_sunaizgnnplsvajzhkc.jpg,00771941205fa_sunafowswglhxcsufpo.jpg,00862940307fa.jpg,sunaizgnnplsvajzhkc.jpg,00771941205fa.jpg,sunafowswglhxcsufpo.jpg,,,>,Place,,,,,1,,,,,,,o
257,11,Presentation,5,00983960627fa_sunbfyvfqiimvdaxlqn.jpg,00197940128fa_sunaaylzyqlqrsmfwif.jpg,00983960627fa.jpg,sunbfyvfqiimvdaxlqn.jpg,00197940128fa.jpg,sunaaylzyqlqrsmfwif.jpg,,,>,Place,,,,,1,,,,,,,o
258,11,Presentation,5,00571940928fa_sunacuatpqpqhyjhjqk.jpg,00214940128fa_sunabbafjowbzcvbucc.jpg,00571940928fa.jpg,sunacuatpqpqhyjhjqk.jpg,00214940128fa.jpg,sunabbafjowbzcvbucc.jpg,,,>,Place,,,,,1,,,,,,,x
259,11,Presentation,5,00942960627fa_sunarfdklgdnjgeqfjg.jpg,00719941201fa_sunadvithllcgmfxsrn.jpg,00942960627fa.jpg,sunarfdklgdnjgeqfjg.jpg,00719941201fa.jpg,sunadvithllcgmfxsrn.jpg,,,>,Place,,,,,1,,,,,,,o
260,11,Memory,5,,,,,,,01207940128fa.jpg,,,,,,,,,,,,,,,
261,11,Memory,5,,,,,,,sunacbeefkxpymwevpk.jpg,,,,,,,,,,,,,,,
262,11,Memory,5,,,,,,,sunbfyvfqiimvdaxlqn.jpg,,,,,,,,,,,,,,,
263,11,Memory,5,,,,,,,00271940422fa.jpg,,,,,,,,,,,,,,,
264,11,Memory,5,,,,,,,sunbpvgllfdejxcpjqp.jpg,,,,,,,,,,,,,,,
265,11,Memory,5,,,,,,,sunaakvmbftkrgqhjun.jpg,,,,,,,,,,,,,,,
266,11,Memory,5,,,,,,,00571940928fa.jpg,,,,,,,,,,,,,,,
267,11,Memory,5,,,,,,,00983960627fa.jpg,,,,,,,,,,,,,,,
268,11,Memory,5,,,,,,,00292940422fb.jpg,,,,,,,,,,,,,,,
269,11,Memory,5,,,,,,,00214940128fa.jpg,,,,,,,,,,,,,,,
270,11,Memory,5,,,,,,,sundbixjudsgeuuehrn.jpg,,,,,,,,,,,,,,,
271,11,Memory,5,,,,,,,00529940519fa.jpg,,,,,,,,,,,,,,,
272,11,Memory,5,,,,,,,sunaajpqmulidejvjsr.jpg,,,,,,,,,,,,,,,
273,11,Memory,5,,,,,,,sunabmbnddafmywtjjj.jpg,,,,,,,,,,,,,,,
274,11,Memory,5,,,,,,,sunacuatpqpqhyjhjqk.jpg,,,,,,,,,,,,,,,
275,11,Memory,5,,,,,,,sunacvzhvcksnwqcqbw.jpg,,,,,,,,,,,,,,,
276,11,Memory,5,,,,,,,00149931230fa.jpg,,,,,,,,,,,,,,,
277,11,Memory,5,,,,,,,sunaazezcsunmhttzxz.jpg,,,,,,,,,,,,,,,
278,11,Memory,5,,,,,,,00581940928fa.jpg,,,,,,,,,,,,,,,
279,11,Memory,5,,,,,,,00963960627fa.jpg,,,,,,,,,,,,,,,
280,11,Memory,5,,,,,,,sunacsaovnjezqwbykf.jpg,,,,,,,,,,,,,,,
281,11,Memory,5,,,,,,,sunamczizlzavhzhpay.jpg,,,,,,,,,,,,,,,
282,11,Memory,5,,,,,,,00115931230fa.jpg,,,,,,,,,,,,,,,
283,11,Memory,5,,,,,,,sunaooaqzputrowwbsw.jpg,,,,,,,,,,,,,,,
284,11,Memory,5,,,,,,,sunaauglwmctnkxyird.jpg,,,,,,,,,,,,,,,
285,11,Memory,5,,,,,,,00576941031fa.jpg,,,,,,,,,,,,,,,
286,11,Memory,5,,,,,,,sunabrjdpmoedcdjbpo.jpg,,,,,,,,,,,,,,,
287,11,Memory,5,,,,,,,sunaakmxzhuceuiryah.jpg,,,,,,,,,,,,,,,
288,11,Memory,5,,,,,,,sunapqwoeotxshkukbh.jpg,,,,,,,,,,,,,,,
289,11,Memory,5,,,,,,,00926960627Fa.jpg,,,,,,,,,,,,,,,
290,11,Memory,5,,,,,,,00098931230fa.jpg,,,,,,,,,,,,,,,
291,11,Memory,5,,,,,,,00895960530fa.jpg,,,,,,,,,,,,,,,
292,11,Memory,5,,,,,,,sunayaepykrqvenaqqy.jpg,,,,,,,,,,,,,,,
293,11,Memory,5,,,,,,,00119931230fb.jpg,,,,,,,,,,,,,,,
294,11,Memory,5,,,,,,,sunabbafjowbzcvbucc.jpg,,,,,,,,,,,,,,,
295,11,Memory,5,,,,,,,00198940128fb.jpg,,,,,,,,,,,,,,,
296,11,Memory,5,,,,,,,00911960530fa.jpg,,,,,,,,,,,,,,,
297,11,Memory,5,,,,,,,00996960627fa.jpg,,,,,,,,,,,,,,,
298,11,Memory,5,,,,,,,sunacvjlsylseoghjup.jpg,,,,,,,,,,,,,,,
299,11,Memory,5,,,,,,,00564941031fa.jpg,,,,,,,,,,,,,,,
300,11,Presentation,6,00266940128fb_sunabkngeblodihjvbk.jpg,00294940422fb_sunabrlndkruqokhury.jpg,00266940128fb.jpg,sunabkngeblodihjvbk.jpg,00294940422fb.jpg,sunabrlndkruqokhury.jpg,,,>,Face,,,,,1,,,,,,,x
301,11,Presentation,6,00882960530fa_sunaknlirqjqiwbbeeg.jpg,00112931230fa_sunaakjaacuzulqckgl.jpg,00882960530fa.jpg,sunaknlirqjqiwbbeeg.jpg,00112931230fa.jpg,sunaakjaacuzulqckgl.jpg,,,>,Face,,,,,1,,,,,,,x
302,11,Presentation,6,00070940307fa_sunaaeplwsfslcbtojr.jpg,00985960627fa_sunbgklxeqjhdbyfhhy.jpg,00070940307fa.jpg,sunaaeplwsfslcbtojr.jpg,00985960627fa.jpg,sunbgklxeqjhdbyfhhy.jpg,,,>,Face,,,,,0,,,,,,,x
303,11,Presentation,6,00120931230fa_sunaakxgygjfqrzpyoz.jpg,00880960530fa_sunakmnfgklupjijsgf.jpg,00120931230fa.jpg,sunaakxgygjfqrzpyoz.jpg,00880960530fa.jpg,sunakmnfgklupjijsgf.jpg,,,>,Face,,,,,1,,,,,,,o
304,11,Presentation,6,00144931230fb_sunaathajvxrgptwhoj.jpg,00776941205fa_sunafxokyavhgptyfye.jpg,00144931230fb.jpg,sunaathajvxrgptwhoj.jpg,00776941205fa.jpg,sunafxokyavhgptyfye.jpg,,,>,Face,,,,,1,,,,,,,x
305,11,Presentation,6,00931960627fa_sunaptrqvaooxfvktvw.jpg,00747941201fa_sunaeutbrtswvsozxyk.jpg,00931960627fa.jpg,sunaptrqvaooxfvktvw.jpg,00747941201fa.jpg,sunaeutbrtswvsozxyk.jpg,,,>,Face,,,,,1,,,,,,,o
306,11,Presentation,6,00922960627fa_sunapqkyghktgtosuuk.jpg,00785941205fa_sunaglqunwuycxydmyu.jpg,00922960627fa.jpg,sunapqkyghktgtosuuk.jpg,00785941205fa.jpg,sunaglqunwuycxydmyu.jpg,,,>,Face,,,,,1,,,,,,,o
307,11,Presentation,6,00793941205fa_sunagtjwilqjvxohypn.jpg,00825940307fa_sunahrltmuwbiehihpe.jpg,00793941205fa.jpg,sunagtjwilqjvxohypn.jpg,00825940307fa.jpg,sunahrltmuwbiehihpe.jpg,,,>,Face,,,,,1,,,,,,,x
308,11,Presentation,6,00953960627fa_sunatstrpjxhvtbaczf.jpg,00937960627fa_sunaqsolmfydodnakub.jpg,00953960627fa.jpg,sunatstrpjxhvtbaczf.jpg,00937960627fa.jpg,sunaqsolmfydodnakub.jpg,,,>,Face,,,,,1,,,,,,,x
309,11,Presentation,6,00185940422fb_sunaawqdbpihmlbwyyn.jpg,00719960620fa_sunadzuvtmtmgupotmf.jpg,00185940422fb.jpg,sunaawqdbpihmlbwyyn.jpg,00719960620fa.jpg,sunadzuvtmtmgupotmf.jpg,,,>,Face,,,,,1,,,,,,,o
310,11,Memory,6,,,,,,,sunbgklxeqjhdbyfhhy.jpg,,,,,,,,,,,,,,,
311,11,Memory,6,,,,,,,00953960627fa.jpg,,,,,,,,,,,,,,,
312,11,Memory,6,,,,,,,00163931230fb.jpg,,,,,,,,,,,,,,,
313,11,Memory,6,,,,,,,00982960627fa.jpg,,,,,,,,,,,,,,,
314,11,Memory,6,,,,,,,sunatstrpjxhvtbaczf.jpg,,,,,,,,,,,,,,,
315,11,Memory,6,,,,,,,sunbondbduabvijnmch.jpg,,,,,,,,,,,,,,,
316,11,Memory,6,,,,,,,00112931230fa.jpg,,,,,,,,,,,,,,,
317,11,Memory,6,,,,,,,sunaakjaacuzulqckgl.jpg,,,,,,,,,,,,,,,
318,11,Memory,6,,,,,,,00804960530fa.jpg,,,,,,,,,,,,,,,
319,11,Memory,6,,,,,,,00120931230fa.jpg,,,,,,,,,,,,,,,
320,11,Memory,6,,,,,,,00933960627fa.jpg,,,,,,,,,,,,,,,
321,11,Memory,6,,,,,,,sunahrltmuwbiehihpe.jpg,,,,,,,,,,,,,,,
322,11,Memory,6,,,,,,,00505960627fa.jpg,,,,,,,,,,,,,,,
323,11,Memory,6,,,,,,,sunagtjwilqjvxohypn.jpg,,,,,,,,,,,,,,,
324,11,Memory,6,,,,,,,sunbesrwkdsffeogeqq.jpg,,,,,,,,,,,,,,,
325,11,Memory,6,,,,,,,01003960627fb.jpg,,,,,,,,,,,,,,,
326,11,Memory,6,,,,,,,00967960627fa.jpg,,,,,,,,,,,,,,,
327,11,Memory,6,,,,,,,00985960627fa.jpg,,,,,,,,,,,,,,,
328,11,Memory,6,,,,,,,00266940128fb.jpg,,,,,,,,,,,,,,,
329,11,Memory,6,,,,,,,00294940422fb.jpg,,,,,,,,,,,,,,,
330,11,Memory,6,,,,,,,sunabkngeblodihjvbk.jpg,,,,,,,,,,,,,,,
331,11,Memory,6,,,,,,,sunabzuqsrgcsonqlkz.jpg,,,,,,,,,,,,,,,
332,11,Memory,6,,,,,,,sunaavodbcpygkggnfp.jpg,,,,,,,,,,,,,,,
333,11,Memory,6,,,,,,,sunaknlirqjqiwbbeeg.jpg,,,,,,,,,,,,,,,
334,11,Memory,6,,,,,,,sunapwjkcxdaeqehfql.jpg,,,,,,,,,,,,,,,
335,11,Memory,6,,,,,,,00882960530fa.jpg,,,,,,,,,,,,,,,
336,11,Memory,6,,,,,,,sunagwswhkvnsmuszlz.jpg,,,,,,,,,,,,,,,
337,11,Memory,6,,,,,,,00880960530fa.jpg,,,,,,,,,,,,,,,
338,11,Memory,6,,,,,,,00825940307fa.jpg,,,,,,,,,,,,,,,
339,11,Memory,6,,,,,,,00125931230fa.jpg,,,,,,,,,,,,,,,
340,11,Memory,6,,,,,,,00793941205fa.jpg,,,,,,,,,,,,,,,
341,11,Memory,6,,,,,,,00959960627fa.jpg,,,,,,,,,,,,,,,
342,11,Memory,6,,,,,,,00989960627fa.jpg,,,,,,,,,,,,,,,
343,11,Memory,6,,,,,,,sunbaejotfklekvpxcz.jpg,,,,,,,,,,,,,,,
344,11,Memory,6,,,,,,,sunbwdrdvsweerwsdrj.jpg,,,,,,,,,,,,,,,
345,11,Memory,6,,,,,,,sunaakxgygjfqrzpyoz.jpg,,,,,,,,,,,,,,,
346,11,Memory,6,,,,,,,sunakmnfgklupjijsgf.jpg,,,,,,,,,,,,,,,
347,11,Memory,6,,,,,,,sunavxokzybtomhbmvm.jpg,,,,,,,,,,,,,,,
348,11,Memory,6,,,,,,,sunaalltyvjhbzhkmvg.jpg,,,,,,,,,,,,,,,
349,11,Memory,6,,,,,,,sunabrlndkruqokhury.jpg,,,,,,,,,,,,,,,
350,11,Presentation,7,00978960627fa_sunbddbivbptlrlauhy.jpg,00889960530fa_sunaletopenvvozhpxc.jpg,00978960627fa.jpg,sunbddbivbptlrlauhy.jpg,00889960530fa.jpg,sunaletopenvvozhpxc.jpg,,,>,Place,,,,,1,,,,,,,o
351,11,Presentation,7,00947960627fa_sunasmmcxdddtmtazwx.jpg,00262940128fa_sunabizydfotqddlnjp.jpg,00947960627fa.jpg,sunasmmcxdddtmtazwx.jpg,00262940128fa.jpg,sunabizydfotqddlnjp.jpg,,,>,Place,,,,,1,,,,,,,o
352,11,Presentation,7,00129931230fb_sunaamsdyakblkfoydx.jpg,00076931230fa_sunaafewhewbxmjiurz.jpg,00129931230fb.jpg,sunaamsdyakblkfoydx.jpg,00076931230fa.jpg,sunaafewhewbxmjiurz.jpg,,,>,Place,,,,,1,,,,,,,o
353,11,Presentation,7,00784941205fb_sunagjzcrjvmxzqzljx.jpg,00900960530fa_sunamlotskmmsjeogby.jpg,00784941205fb.jpg,sunagjzcrjvmxzqzljx.jpg,00900960530fa.jpg,sunamlotskmmsjeogby.jpg,,,>,Place,,,,,1,,,,,,,x
354,11,Presentation,7,00810941205fa_sunahctntqrunhdxhtb.jpg,00795941205fa_sunagtumacdlmciqamz.jpg,00810941205fa.jpg,sunahctntqrunhdxhtb.jpg,00795941205fa.jpg,sunagtumacdlmciqamz.jpg,,,>,Place,,,,,1,,,,,,,x
355,11,Presentation,7,01000960627fa_sunbvzmgrdvaakxusbu.jpg,01007960627fa_sunbxarcshsnqsefemx.jpg,01000960627fa.jpg,sunbvzmgrdvaakxusbu.jpg,01007960627fa.jpg,sunbxarcshsnqsefemx.jpg,,,>,Place,,,,,1,,,,,,,x
356,11,Presentation,7,00727941205fa_sunaeisnjeetzmkbuad.jpg,00870940307fa_sunajrgtewnualfcerj.jpg,00727941205fa.jpg,sunaeisnjeetzmkbuad.jpg,00870940307fa.jpg,sunajrgtewnualfcerj.jpg,,,>,Place,,,,,1,,,,,,,o
357,11,Presentation,7,00130931230fa_sunaamvxnvouicstkjb.jpg,00914960620fa_sunaozisvwfbmlkfhzv.jpg,00130931230fa.jpg,sunaamvxnvouicstkjb.jpg,00914960620fa.jpg,sunaozisvwfbmlkfhzv.jpg,,,>,Place,,,,,1,,,,,,,o
358,11,Presentation,7,00782941205fa_sunagfvluwixdsozaql.jpg,00077931230fb_sunaafgqutfaishsxyu.jpg,00782941205fa.jpg,sunagfvluwixdsozaql.jpg,00077931230fb.jpg,sunaafgqutfaishsxyu.jpg,,,>,Place,,,,,1,,,,,,,x
359,11,Presentation,7,00753941201fa_sunafcofuuzebuadceo.jpg,00869940307fa_sunajoveqhiprwqgoco.jpg,00753941201fa.jpg,sunafcofuuzebuadceo.jpg,00869940307fa.jpg,sunajoveqhiprwqgoco.jpg,,,>,Place,,,,,1,,,,,,,x
360,11,Memory,7,,,,,,,sunaafgqutfaishsxyu.jpg,,,,,,,,,,,,,,,
361,11,Memory,7,,,,,,,00077931230fb.jpg,,,,,,,,,,,,,,,
362,11,Memory,7,,,,,,,00108960530fa.jpg,,,,,,,,,,,,,,,
363,11,Memory,7,,,,,,,00762941201fa.jpg,,,,,,,,,,,,,,,
364,11,Memory,7,,,,,,,sunafgzgbisbopcyslr.jpg,,,,,,,,,,,,,,,
365,11,Memory,7,,,,,,,00869940307fa.jpg,,,,,,,,,,,,,,,
366,11,Memory,7,,,,,,,00770941201fa.jpg,,,,,,,,,,,,,,,
367,11,Memory,7,,,,,,,sunaaeowapdkwzqpgqr.jpg,,,,,,,,,,,,,,,
368,11,Memory,7,,,,,,,sunagfvluwixdsozaql.jpg,,,,,,,,,,,,,,,
369,11,Memory,7,,,,,,,00788941205fa.jpg,,,,,,,,,,,,,,,
370,11,Memory,7,,,,,,,00870940307fa.jpg,,,,,,,,,,,,,,,
371,11,Memory,7,,,,,,,sunahctntqrunhdxhtb.jpg,,,,,,,,,,,,,,,
372,11,Memory,7,,,,,,,sunaemcowdozyphwknd.jpg,,,,,,,,,,,,,,,
373,11,Memory,7,,,,,,,sunaqyylsngywqzwfmx.jpg,,,,,,,,,,,,,,,
374,11,Memory,7,,,,,,,sunadakkdovnuzlycvp.jpg,,,,,,,,,,,,,,,
375,11,Memory,7,,,,,,,sunbddbivbptlrlauhy.jpg,,,,,,,,,,,,,,,
376,11,Memory,7,,,,,,,00129931230fb.jpg,,,,,,,,,,,,,,,
377,11,Memory,7,,,,,,,sunaflojskatpeqyzqp.jpg,,,,,,,,,,,,,,,
378,11,Memory,7,,,,,,,00742941201fa.jpg,,,,,,,,,,,,,,,
379,11,Memory,7,,,,,,,sunaajtnvzzpsjdzres.jpg,,,,,,,,,,,,,,,
380,11,Memory,7,,,,,,,sunagtumacdlmciqamz.jpg,,,,,,,,,,,,,,,
381,11,Memory,7,,,,,,,00741941201fa.jpg,,,,,,,,,,,,,,,
382,11,Memory,7,,,,,,,00630941031fa.jpg,,,,,,,,,,,,,,,
383,11,Memory,7,,,,,,,sunasmmcxdddtmtazwx.jpg,,,,,,,,,,,,,,,
384,11,Memory,7,,,,,,,00782941205fa.jpg,,,,,,,,,,,,,,,
385,11,Memory,7,,,,,,,00795941205fa.jpg,,,,,,,,,,,,,,,
386,11,Memory,7,,,,,,,00822940307fa.jpg,,,,,,,,,,,,,,,
387,11,Memory,7,,,,,,,sunaamsdyakblkfoydx.jpg,,,,,,,,,,,,,,,
388,11,Memory,7,,,,,,,sunbxarcshsnqsefemx.jpg,,,,,,,,,,,,,,,
389,11,Memory,7,,,,,,,sunagountlxpzkytsmp.jpg,,,,,,,,,,,,,,,
390,11,Memory,7,,,,,,,00938960627fa.jpg,,,,,,,,,,,,,,,
391,11,Memory,7,,,,,,,sunaenwuebvlpdmntju.jpg,,,,,,,,,,,,,,,
392,11,Memory,7,,,,,,,01007960627fa.jpg,,,,,,,,,,,,,,,
393,11,Memory,7,,,,,,,00069931230fb.jpg,,,,,,,,,,,,,,,
394,11,Memory,7,,,,,,,00810941205fa.jpg,,,,,,,,,,,,,,,
395,11,Memory,7,,,,,,,sunahqrxievfeusiqlt.jpg,,,,,,,,,,,,,,,
396,11,Memory,7,,,,,,,00978960627fa.jpg,,,,,,,,,,,,,,,
397,11,Memory,7,,,,,,,sunajrgtewnualfcerj.jpg,,,,,,,,,,,,,,,
398,11,Memory,7,,,,,,,00947960627fa.jpg,,,,,,,,,,,,,,,
399,11,Memory,7,,,,,,,sunajoveqhiprwqgoco.jpg,,,,,,,,,,,,,,,
