,Subject,Trial Type,Run,Cued Composite,Uncued Composite,Cued Face,Cued Place,Uncued Face,Uncued Place,Memory Image,Category,Cued Side,Cued Category,Attention Reaction Time (s),Familiarity Reaction Time (s),Familiarity Rating,Attention Level,Cue Validity,Post Invalid Cue,Pre Invalid Cue,Attention Button,Rating History,Stimulus Onset,Stimulus End,Attention Probe
0,34,Presentation,0,00936960627fa_sunaqgjuuwvdcyiccjt.jpg,00750941201fa_sunaeuzwggvibufclwf.jpg,00936960627fa.jpg,sunaqgjuuwvdcyiccjt.jpg,00750941201fa.jpg,sunaeuzwggvibufclwf.jpg,,,<,Face,,,,,1,,,,,,,o
1,34,Presentation,0,00913960530fa_sunaooffzffbhcpirmm.jpg,00761960627fa_sunafgdqbclkwfocdhg.jpg,00913960530fa.jpg,sunaooffzffbhcpirmm.jpg,00761960627fa.jpg,sunafgdqbclkwfocdhg.jpg,,,<,Face,,,,,1,,,,,,,o
2,34,Presentation,0,00211940128fa_sunabasphceswhwwqvv.jpg,00609940928fa_sunacycdoztxoluxjyk.jpg,00211940128fa.jpg,sunabasphceswhwwqvv.jpg,00609940928fa.jpg,sunacycdoztxoluxjyk.jpg,,,<,Face,,,,,1,,,,,,,o
3,34,Presentation,0,00809960620fa_sunahbvlpavurqoxdeq.jpg,00977960627fa_sunbbxkanhzjgbwyxqs.jpg,00809960620fa.jpg,sunahbvlpavurqoxdeq.jpg,00977960627fa.jpg,sunbbxkanhzjgbwyxqs.jpg,,,<,Face,,,,,0,,,,,,,o
4,34,Presentation,0,00670941121fa_sunadochqcucscehsgk.jpg,00124931230fa_sunaalhlvzmjmitybdn.jpg,00670941121fa.jpg,sunadochqcucscehsgk.jpg,00124931230fa.jpg,sunaalhlvzmjmitybdn.jpg,,,<,Face,,,,,1,,,,,,,x
5,34,Presentation,0,01007960627fa_sunbxarcshsnqsefemx.jpg,00302940422fa_sunabtlfmiwtljmoues.jpg,01007960627fa.jpg,sunbxarcshsnqsefemx.jpg,00302940422fa.jpg,sunabtlfmiwtljmoues.jpg,,,<,Face,,,,,1,,,,,,,o
6,34,Presentation,0,00754941201fa_sunaffgsyyvoqdlkmnk.jpg,00818940307fa_sunahpblecxtmuzkmxb.jpg,00754941201fa.jpg,sunaffgsyyvoqdlkmnk.jpg,00818940307fa.jpg,sunahpblecxtmuzkmxb.jpg,,,<,Face,,,,,1,,,,,,,o
7,34,Presentation,0,00958960627fa_sunavspxmxubqaeidjt.jpg,00780960530fa_sunagetqixeypsysbpn.jpg,00958960627fa.jpg,sunavspxmxubqaeidjt.jpg,00780960530fa.jpg,sunagetqixeypsysbpn.jpg,,,<,Face,,,,,1,,,,,,,o
8,34,Presentation,0,00197940128fa_sunaaylzyqlqrsmfwif.jpg,00773941201fa_sunafvcflzhlqloapyo.jpg,00197940128fa.jpg,sunaaylzyqlqrsmfwif.jpg,00773941201fa.jpg,sunafvcflzhlqloapyo.jpg,,,<,Face,,,,,1,,,,,,,x
9,34,Presentation,0,00884960530fa_sunakodkcslgqhqlgwl.jpg,00568940928fa_sunacsdhbbsybcyxnel.jpg,00884960530fa.jpg,sunakodkcslgqhqlgwl.jpg,00568940928fa.jpg,sunacsdhbbsybcyxnel.jpg,,,<,Face,,,,,1,,,,,,,o
10,34,Memory,0,,,,,,,00185940422fb.jpg,,,,,,,,,,,,,,,
11,34,Memory,0,,,,,,,00305940422fa.jpg,,,,,,,,,,,,,,,
12,34,Memory,0,,,,,,,sunbbxkanhzjgbwyxqs.jpg,,,,,,,,,,,,,,,
13,34,Memory,0,,,,,,,sunafvcflzhlqloapyo.jpg,,,,,,,,,,,,,,,
14,34,Memory,0,,,,,,,00211940128fa.jpg,,,,,,,,,,,,,,,
15,34,Memory,0,,,,,,,00197940128fa.jpg,,,,,,,,,,,,,,,
16,34,Memory,0,,,,,,,sunaaheqzstzxuadglu.jpg,,,,,,,,,,,,,,,
17,34,Memory,0,,,,,,,00302940422fa.jpg,,,,,,,,,,,,,,,
18,34,Memory,0,,,,,,,00762941201fa.jpg,,,,,,,,,,,,,,,
19,34,Memory,0,,,,,,,sunahbvlpavurqoxdeq.jpg,,,,,,,,,,,,,,,
20,34,Memory,0,,,,,,,sunacsdhbbsybcyxnel.jpg,,,,,,,,,,,,,,,
21,34,Memory,0,,,,,,,sunabtrnbvpppgczjim.jpg,,,,,,,,,,,,,,,
22,34,Memory,0,,,,,,,00092931230fa.jpg,,,,,,,,,,,,,,,
23,34,Memory,0,,,,,,,sunafgzgbisbopcyslr.jpg,,,,,,,,,,,,,,,
24,34,Memory,0,,,,,,,sunagetqixeypsysbpn.jpg,,,,,,,,,,,,,,,
25,34,Memory,0,,,,,,,00809960620fa.jpg,,,,,,,,,,,,,,,
26,34,Memory,0,,,,,,,sunabasphceswhwwqvv.jpg,,,,,,,,,,,,,,,
27,34,Memory,0,,,,,,,00670941121fa.jpg,,,,,,,,,,,,,,,
28,34,Memory,0,,,,,,,sunaamsdyakblkfoydx.jpg,,,,,,,,,,,,,,,
29,34,Memory,0,,,,,,,00751960620fa.jpg,,,,,,,,,,,,,,,
30,34,Memory,0,,,,,,,sunaezuszgtxnmsxdbk.jpg,,,,,,,,,,,,,,,
31,34,Memory,0,,,,,,,sunabtlfmiwtljmoues.jpg,,,,,,,,,,,,,,,
32,34,Memory,0,,,,,,,00745941205fa.jpg,,,,,,,,,,,,,,,
33,34,Memory,0,,,,,,,sunadfktsqjthoglcsm.jpg,,,,,,,,,,,,,,,
34,34,Memory,0,,,,,,,sunaawqdbpihmlbwyyn.jpg,,,,,,,,,,,,,,,
35,34,Memory,0,,,,,,,00977960627fa.jpg,,,,,,,,,,,,,,,
36,34,Memory,0,,,,,,,00568940928fa.jpg,,,,,,,,,,,,,,,
37,34,Memory,0,,,,,,,00638941031fa.jpg,,,,,,,,,,,,,,,
38,34,Memory,0,,,,,,,sunaaylzyqlqrsmfwif.jpg,,,,,,,,,,,,,,,
39,34,Memory,0,,,,,,,00780960530fa.jpg,,,,,,,,,,,,,,,
40,34,Memory,0,,,,,,,00129931230fb.jpg,,,,,,,,,,,,,,,
41,34,Memory,0,,,,,,,00936960627fa.jpg,,,,,,,,,,,,,,,
42,34,Memory,0,,,,,,,sunaefgzwiramypjvtd.jpg,,,,,,,,,,,,,,,
43,34,Memory,0,,,,,,,00705941205fa.jpg,,,,,,,,,,,,,,,
44,34,Memory,0,,,,,,,00773941201fa.jpg,,,,,,,,,,,,,,,
45,34,Memory,0,,,,,,,sunadochqcucscehsgk.jpg,,,,,,,,,,,,,,,
46,34,Memory,0,,,,,,,00725941201fa.jpg,,,,,,,,,,,,,,,
47,34,Memory,0,,,,,,,sunaeouogqolxvggaoq.jpg,,,,,,,,,,,,,,,
48,34,Memory,0,,,,,,,sunaqgjuuwvdcyiccjt.jpg,,,,,,,,,,,,,,,
49,34,Memory,0,,,,,,,sunadtlxenqqxsyjvix.jpg,,,,,,,,,,,,,,,
50,34,Presentation,1,00866940307fa_sunajbwkywmsqkldfml.jpg,00851940307fa_sunaivflshbyfrfzhqb.jpg,00866940307fa.jpg,sunajbwkywmsqkldfml.jpg,00851940307fa.jpg,sunaivflshbyfrfzhqb.jpg,,,>,Place,,,,,0,,,,,,,x
51,34,Presentation,1,00676941121fa_sunadpnqovzckyikrjo.jpg,00263940128fb_sunabjuovqvyfuzvqwt.jpg,00676941121fa.jpg,sunadpnqovzckyikrjo.jpg,00263940128fb.jpg,sunabjuovqvyfuzvqwt.jpg,,,>,Place,,,,,1,,,,,,,o
52,34,Presentation,1,00876960620fa_sunajwqkfsykceonyig.jpg,00112931230fa_sunaakjaacuzulqckgl.jpg,00876960620fa.jpg,sunajwqkfsykceonyig.jpg,00112931230fa.jpg,sunaakjaacuzulqckgl.jpg,,,>,Place,,,,,1,,,,,,,o
53,34,Presentation,1,00062931230fb_sunaaelotvjgibjtjhs.jpg,00650941031fa_sunadikxpvqeabxrvvc.jpg,00062931230fb.jpg,sunaaelotvjgibjtjhs.jpg,00650941031fa.jpg,sunadikxpvqeabxrvvc.jpg,,,>,Place,,,,,1,,,,,,,x
54,34,Presentation,1,00973960627fa_sunbbgtoeuzierkkajt.jpg,00967960627fa_sunbaejotfklekvpxcz.jpg,00973960627fa.jpg,sunbbgtoeuzierkkajt.jpg,00967960627fa.jpg,sunbaejotfklekvpxcz.jpg,,,>,Place,,,,,0,,,,,,,x
55,34,Presentation,1,00543940519fa_sunacepzfrmtkiqonpy.jpg,00723941201fa_sunaedtgwjvvziytspa.jpg,00543940519fa.jpg,sunacepzfrmtkiqonpy.jpg,00723941201fa.jpg,sunaedtgwjvvziytspa.jpg,,,>,Place,,,,,1,,,,,,,o
56,34,Presentation,1,00149931230fa_sunaauglwmctnkxyird.jpg,01005960627fa_sunbwyuesflwdpqtgoy.jpg,00149931230fa.jpg,sunaauglwmctnkxyird.jpg,01005960627fa.jpg,sunbwyuesflwdpqtgoy.jpg,,,>,Place,,,,,1,,,,,,,x
57,34,Presentation,1,00766960620fa_sunafijbgncijwykrnl.jpg,00771941205fa_sunafowswglhxcsufpo.jpg,00766960620fa.jpg,sunafijbgncijwykrnl.jpg,00771941205fa.jpg,sunafowswglhxcsufpo.jpg,,,>,Place,,,,,1,,,,,,,o
58,34,Presentation,1,00589940928fa_sunacwggadqsfpovdjv.jpg,00208940128fa_sunaazzyhbvqjpmazjq.jpg,00589940928fa.jpg,sunacwggadqsfpovdjv.jpg,00208940128fa.jpg,sunaazzyhbvqjpmazjq.jpg,,,>,Place,,,,,1,,,,,,,o
59,34,Presentation,1,00910960530fa_sunaofikylqtxphvdem.jpg,00115931230fa_sunaakmxzhuceuiryah.jpg,00910960530fa.jpg,sunaofikylqtxphvdem.jpg,00115931230fa.jpg,sunaakmxzhuceuiryah.jpg,,,>,Place,,,,,1,,,,,,,o
60,34,Memory,1,,,,,,,sunbwyuesflwdpqtgoy.jpg,,,,,,,,,,,,,,,
61,34,Memory,1,,,,,,,00796941205fa.jpg,,,,,,,,,,,,,,,
62,34,Memory,1,,,,,,,sunaazzyhbvqjpmazjq.jpg,,,,,,,,,,,,,,,
63,34,Memory,1,,,,,,,01005960627fa.jpg,,,,,,,,,,,,,,,
64,34,Memory,1,,,,,,,sunavhxgmgrqsaptynb.jpg,,,,,,,,,,,,,,,
65,34,Memory,1,,,,,,,00835940307fa.jpg,,,,,,,,,,,,,,,
66,34,Memory,1,,,,,,,00876960620fa.jpg,,,,,,,,,,,,,,,
67,34,Memory,1,,,,,,,sunaizeyhvjzknwjudw.jpg,,,,,,,,,,,,,,,
68,34,Memory,1,,,,,,,00963960627fa.jpg,,,,,,,,,,,,,,,
69,34,Memory,1,,,,,,,00262940128fa.jpg,,,,,,,,,,,,,,,
70,34,Memory,1,,,,,,,sunaafjszryxyavjzln.jpg,,,,,,,,,,,,,,,
71,34,Memory,1,,,,,,,sunayaepykrqvenaqqy.jpg,,,,,,,,,,,,,,,
72,34,Memory,1,,,,,,,00543940519fa.jpg,,,,,,,,,,,,,,,
73,34,Memory,1,,,,,,,sunaedtgwjvvziytspa.jpg,,,,,,,,,,,,,,,
74,34,Memory,1,,,,,,,sunabizydfotqddlnjp.jpg,,,,,,,,,,,,,,,
75,34,Memory,1,,,,,,,sunadpnqovzckyikrjo.jpg,,,,,,,,,,,,,,,
76,34,Memory,1,,,,,,,00957960627fa.jpg,,,,,,,,,,,,,,,
77,34,Memory,1,,,,,,,sunajwqkfsykceonyig.jpg,,,,,,,,,,,,,,,
78,34,Memory,1,,,,,,,00973960627fa.jpg,,,,,,,,,,,,,,,
79,34,Memory,1,,,,,,,sunafowswglhxcsufpo.jpg,,,,,,,,,,,,,,,
80,34,Memory,1,,,,,,,00967960627fa.jpg,,,,,,,,,,,,,,,
81,34,Memory,1,,,,,,,00062931230fb.jpg,,,,,,,,,,,,,,,
82,34,Memory,1,,,,,,,sunaijsqpvodplbwxkf.jpg,,,,,,,,,,,,,,,
83,34,Memory,1,,,,,,,sunaekgzpfilgjxpeyq.jpg,,,,,,,,,,,,,,,
84,34,Memory,1,,,,,,,sunbaejotfklekvpxcz.jpg,,,,,,,,,,,,,,,
85,34,Memory,1,,,,,,,00676941121fa.jpg,,,,,,,,,,,,,,,
86,34,Memory,1,,,,,,,00860940307fa.jpg,,,,,,,,,,,,,,,
87,34,Memory,1,,,,,,,sunaguchqqnrtodtezq.jpg,,,,,,,,,,,,,,,
88,34,Memory,1,,,,,,,sunabxmguapjekttvwm.jpg,,,,,,,,,,,,,,,
89,34,Memory,1,,,,,,,sunaaelotvjgibjtjhs.jpg,,,,,,,,,,,,,,,
90,34,Memory,1,,,,,,,00771941205fa.jpg,,,,,,,,,,,,,,,
91,34,Memory,1,,,,,,,00208940128fa.jpg,,,,,,,,,,,,,,,
92,34,Memory,1,,,,,,,sunbbgtoeuzierkkajt.jpg,,,,,,,,,,,,,,,
93,34,Memory,1,,,,,,,00080931230fb.jpg,,,,,,,,,,,,,,,
94,34,Memory,1,,,,,,,00723941201fa.jpg,,,,,,,,,,,,,,,
95,34,Memory,1,,,,,,,00316940422fa.jpg,,,,,,,,,,,,,,,
96,34,Memory,1,,,,,,,00799941205fa.jpg,,,,,,,,,,,,,,,
97,34,Memory,1,,,,,,,sunagutjvdvnhxejerz.jpg,,,,,,,,,,,,,,,
98,34,Memory,1,,,,,,,00730960620fa.jpg,,,,,,,,,,,,,,,
99,34,Memory,1,,,,,,,sunacepzfrmtkiqonpy.jpg,,,,,,,,,,,,,,,
100,34,Presentation,2,00778941205fa_sunagcthdfirrcawoic.jpg,00812941205fa_sunahgtbwgsmtqeodwh.jpg,00778941205fa.jpg,sunagcthdfirrcawoic.jpg,00812941205fa.jpg,sunahgtbwgsmtqeodwh.jpg,,,<,Face,,,,,1,,,,,,,o
101,34,Presentation,2,00942960627fa_sunarfdklgdnjgeqfjg.jpg,00848940307fa_sunaivdylrawbmhryfp.jpg,00942960627fa.jpg,sunarfdklgdnjgeqfjg.jpg,00848940307fa.jpg,sunaivdylrawbmhryfp.jpg,,,<,Face,,,,,1,,,,,,,x
102,34,Presentation,2,00681941121fa_sunadqmjrhfjyuzyvdd.jpg,00747941201fa_sunaeutbrtswvsozxyk.jpg,00681941121fa.jpg,sunadqmjrhfjyuzyvdd.jpg,00747941201fa.jpg,sunaeutbrtswvsozxyk.jpg,,,<,Face,,,,,1,,,,,,,x
103,34,Presentation,2,00868960307fa_sunajjxttslobudoqbv.jpg,00260940128fa_sunabgfhvifeijihhjw.jpg,00868960307fa.jpg,sunajjxttslobudoqbv.jpg,00260940128fa.jpg,sunabgfhvifeijihhjw.jpg,,,<,Face,,,,,1,,,,,,,x
104,34,Presentation,2,00136931230fb_sunaanptmsknhirrzed.jpg,00825940307fa_sunahrltmuwbiehihpe.jpg,00136931230fb.jpg,sunaanptmsknhirrzed.jpg,00825940307fa.jpg,sunahrltmuwbiehihpe.jpg,,,<,Face,,,,,1,,,,,,,x
105,34,Presentation,2,00763941205fa_sunafhmnhsdurlvddpw.jpg,00071940128fa_sunaaexpnawiehinlpy.jpg,00763941205fa.jpg,sunafhmnhsdurlvddpw.jpg,00071940128fa.jpg,sunaaexpnawiehinlpy.jpg,,,<,Face,,,,,1,,,,,,,o
106,34,Presentation,2,00158931230fb_sunaavchcbptaerhcfy.jpg,00746941201fa_sunaetydippjxikifsb.jpg,00158931230fb.jpg,sunaavchcbptaerhcfy.jpg,00746941201fa.jpg,sunaetydippjxikifsb.jpg,,,<,Face,,,,,1,,,,,,,o
107,34,Presentation,2,00889960530fa_sunaletopenvvozhpxc.jpg,00984960627fa_sunbfzchmomnvzhbxdg.jpg,00889960530fa.jpg,sunaletopenvvozhpxc.jpg,00984960627fa.jpg,sunbfzchmomnvzhbxdg.jpg,,,<,Face,,,,,1,,,,,,,o
108,34,Presentation,2,00123931230fb_sunaalcrrdbjgdztbiz.jpg,00970960627fa_sunbasypfgzjtomktmu.jpg,00123931230fb.jpg,sunaalcrrdbjgdztbiz.jpg,00970960627fa.jpg,sunbasypfgzjtomktmu.jpg,,,<,Face,,,,,1,,,,,,,o
109,34,Presentation,2,00163931230fb_sunaavodbcpygkggnfp.jpg,00270940422fb_sunabllobxadqcyttej.jpg,00163931230fb.jpg,sunaavodbcpygkggnfp.jpg,00270940422fb.jpg,sunabllobxadqcyttej.jpg,,,<,Face,,,,,1,,,,,,,o
110,34,Memory,2,,,,,,,sunaletopenvvozhpxc.jpg,,,,,,,,,,,,,,,
111,34,Memory,2,,,,,,,00746941201fa.jpg,,,,,,,,,,,,,,,
112,34,Memory,2,,,,,,,00763941205fa.jpg,,,,,,,,,,,,,,,
113,34,Memory,2,,,,,,,sunabllobxadqcyttej.jpg,,,,,,,,,,,,,,,
114,34,Memory,2,,,,,,,00557940519fa.jpg,,,,,,,,,,,,,,,
115,34,Memory,2,,,,,,,00939960627fa.jpg,,,,,,,,,,,,,,,
116,34,Memory,2,,,,,,,sunaetydippjxikifsb.jpg,,,,,,,,,,,,,,,
117,34,Memory,2,,,,,,,00778941205fa.jpg,,,,,,,,,,,,,,,
118,34,Memory,2,,,,,,,00812941205fa.jpg,,,,,,,,,,,,,,,
119,34,Memory,2,,,,,,,00071940128fa.jpg,,,,,,,,,,,,,,,
120,34,Memory,2,,,,,,,sunahrltmuwbiehihpe.jpg,,,,,,,,,,,,,,,
121,34,Memory,2,,,,,,,sunarceibpcyacbmfga.jpg,,,,,,,,,,,,,,,
122,34,Memory,2,,,,,,,00942960627fa.jpg,,,,,,,,,,,,,,,
123,34,Memory,2,,,,,,,00772941201fa.jpg,,,,,,,,,,,,,,,
124,34,Memory,2,,,,,,,sunaqbmgkgqucajzrkp.jpg,,,,,,,,,,,,,,,
125,34,Memory,2,,,,,,,sunahgtbwgsmtqeodwh.jpg,,,,,,,,,,,,,,,
126,34,Memory,2,,,,,,,00270940422fb.jpg,,,,,,,,,,,,,,,
127,34,Memory,2,,,,,,,00774941201fa.jpg,,,,,,,,,,,,,,,
128,34,Memory,2,,,,,,,sunarfdklgdnjgeqfjg.jpg,,,,,,,,,,,,,,,
129,34,Memory,2,,,,,,,00938960627fa.jpg,,,,,,,,,,,,,,,
130,34,Memory,2,,,,,,,00210940128fb.jpg,,,,,,,,,,,,,,,
131,34,Memory,2,,,,,,,sunafvtpfczkzopbgue.jpg,,,,,,,,,,,,,,,
132,34,Memory,2,,,,,,,sunafpfpiiujzoesnqg.jpg,,,,,,,,,,,,,,,
133,34,Memory,2,,,,,,,sunachtuarilwyqnvjx.jpg,,,,,,,,,,,,,,,
134,34,Memory,2,,,,,,,sunaaexpnawiehinlpy.jpg,,,,,,,,,,,,,,,
135,34,Memory,2,,,,,,,sunaangbuylfvckqqoo.jpg,,,,,,,,,,,,,,,
136,34,Memory,2,,,,,,,sunaqyylsngywqzwfmx.jpg,,,,,,,,,,,,,,,
137,34,Memory,2,,,,,,,sunadqmjrhfjyuzyvdd.jpg,,,,,,,,,,,,,,,
138,34,Memory,2,,,,,,,sunagcthdfirrcawoic.jpg,,,,,,,,,,,,,,,
139,34,Memory,2,,,,,,,00598940928fa.jpg,,,,,,,,,,,,,,,
140,34,Memory,2,,,,,,,sunafhmnhsdurlvddpw.jpg,,,,,,,,,,,,,,,
141,34,Memory,2,,,,,,,00825940307fa.jpg,,,,,,,,,,,,,,,
142,34,Memory,2,,,,,,,00681941121fa.jpg,,,,,,,,,,,,,,,
143,34,Memory,2,,,,,,,00889960530fa.jpg,,,,,,,,,,,,,,,
144,34,Memory,2,,,,,,,sunaygrtwrwfezqjizr.jpg,,,,,,,,,,,,,,,
145,34,Memory,2,,,,,,,sunabanoxjtqxamkucc.jpg,,,,,,,,,,,,,,,
146,34,Memory,2,,,,,,,00935960627fa.jpg,,,,,,,,,,,,,,,
147,34,Memory,2,,,,,,,00966960627fa.jpg,,,,,,,,,,,,,,,
148,34,Memory,2,,,,,,,00131931230fb.jpg,,,,,,,,,,,,,,,
149,34,Memory,2,,,,,,,sunacxeheuiigkcgquf.jpg,,,,,,,,,,,,,,,
150,34,Presentation,3,01000960627fa_sunbvzmgrdvaakxusbu.jpg,00804960530fa_sunagwswhkvnsmuszlz.jpg,01000960627fa.jpg,sunbvzmgrdvaakxusbu.jpg,00804960530fa.jpg,sunagwswhkvnsmuszlz.jpg,,,>,Place,,,,,1,,,,,,,o
151,34,Presentation,3,00532960627fa_sunaccdtpgenvcbcbcf.jpg,00630940928fa_sunaczwgyukesaajxnx.jpg,00532960627fa.jpg,sunaccdtpgenvcbcbcf.jpg,00630940928fa.jpg,sunaczwgyukesaajxnx.jpg,,,>,Place,,,,,1,,,,,,,o
152,34,Presentation,3,00140931230fb_sunaapllqyqlykszopd.jpg,00276940422fa_sunabmytpyhsgigllxu.jpg,00140931230fb.jpg,sunaapllqyqlykszopd.jpg,00276940422fa.jpg,sunabmytpyhsgigllxu.jpg,,,>,Place,,,,,0,,,,,,,x
153,34,Presentation,3,00925960627fa_sunapqwnqzxlsfvgsjm.jpg,00267940128fb_sunablfqiwfqomjarht.jpg,00925960627fa.jpg,sunapqwnqzxlsfvgsjm.jpg,00267940128fb.jpg,sunablfqiwfqomjarht.jpg,,,>,Place,,,,,1,,,,,,,o
154,34,Presentation,3,00864940307fa_sunajawzbrlrwafowen.jpg,00479940519fa_sunabxsbfwjccqxxzxq.jpg,00864940307fa.jpg,sunajawzbrlrwafowen.jpg,00479940519fa.jpg,sunabxsbfwjccqxxzxq.jpg,,,>,Place,,,,,1,,,,,,,x
155,34,Presentation,3,00803941205fa_sunagvxkjokqimstxpe.jpg,00102931230fa_sunaajspcoepticvplv.jpg,00803941205fa.jpg,sunagvxkjokqimstxpe.jpg,00102931230fa.jpg,sunaajspcoepticvplv.jpg,,,>,Place,,,,,1,,,,,,,x
156,34,Presentation,3,00108960530fa_sunaajtnvzzpsjdzres.jpg,00793941205fa_sunagtjwilqjvxohypn.jpg,00108960530fa.jpg,sunaajtnvzzpsjdzres.jpg,00793941205fa.jpg,sunagtjwilqjvxohypn.jpg,,,>,Place,,,,,1,,,,,,,o
157,34,Presentation,3,00540940519fa_sunacdnquypmsshhsbk.jpg,00505960627fa_sunabzuqsrgcsonqlkz.jpg,00540940519fa.jpg,sunacdnquypmsshhsbk.jpg,00505960627fa.jpg,sunabzuqsrgcsonqlkz.jpg,,,>,Place,,,,,1,,,,,,,x
158,34,Presentation,3,00971960627fa_sunbbegcweqnetpdlrh.jpg,00153931230fa_sunaauhozyxzeeqstxi.jpg,00971960627fa.jpg,sunbbegcweqnetpdlrh.jpg,00153931230fa.jpg,sunaauhozyxzeeqstxi.jpg,,,>,Place,,,,,1,,,,,,,o
159,34,Presentation,3,00728941205fa_sunaejnvnpltdmhbcsi.jpg,00125931230fa_sunaalltyvjhbzhkmvg.jpg,00728941205fa.jpg,sunaejnvnpltdmhbcsi.jpg,00125931230fa.jpg,sunaalltyvjhbzhkmvg.jpg,,,>,Place,,,,,0,,,,,,,o
160,34,Memory,3,,,,,,,00540940519fa.jpg,,,,,,,,,,,,,,,
161,34,Memory,3,,,,,,,sunagvxkjokqimstxpe.jpg,,,,,,,,,,,,,,,
162,34,Memory,3,,,,,,,00505960627fa.jpg,,,,,,,,,,,,,,,
163,34,Memory,3,,,,,,,sunabjzyxcjnmztdonj.jpg,,,,,,,,,,,,,,,
164,34,Memory,3,,,,,,,00760960620fa.jpg,,,,,,,,,,,,,,,
165,34,Memory,3,,,,,,,00227940128fa.jpg,,,,,,,,,,,,,,,
166,34,Memory,3,,,,,,,sunabzuqsrgcsonqlkz.jpg,,,,,,,,,,,,,,,
167,34,Memory,3,,,,,,,00838940307fa.jpg,,,,,,,,,,,,,,,
168,34,Memory,3,,,,,,,00479940519fa.jpg,,,,,,,,,,,,,,,
169,34,Memory,3,,,,,,,00264940128fb.jpg,,,,,,,,,,,,,,,
170,34,Memory,3,,,,,,,sunaajspcoepticvplv.jpg,,,,,,,,,,,,,,,
171,34,Memory,3,,,,,,,sunabckqabszusgcykj.jpg,,,,,,,,,,,,,,,
172,34,Memory,3,,,,,,,00532960627fa.jpg,,,,,,,,,,,,,,,
173,34,Memory,3,,,,,,,sunajawzbrlrwafowen.jpg,,,,,,,,,,,,,,,
174,34,Memory,3,,,,,,,00895960530fa.jpg,,,,,,,,,,,,,,,
175,34,Memory,3,,,,,,,sunaapllqyqlykszopd.jpg,,,,,,,,,,,,,,,
176,34,Memory,3,,,,,,,00803941205fa.jpg,,,,,,,,,,,,,,,
177,34,Memory,3,,,,,,,sunaatpkocdkocwxpkb.jpg,,,,,,,,,,,,,,,
178,34,Memory,3,,,,,,,sunamczizlzavhzhpay.jpg,,,,,,,,,,,,,,,
179,34,Memory,3,,,,,,,sunaiozxhxgtfrmoagh.jpg,,,,,,,,,,,,,,,
180,34,Memory,3,,,,,,,00864940307fa.jpg,,,,,,,,,,,,,,,
181,34,Memory,3,,,,,,,00862940307fa.jpg,,,,,,,,,,,,,,,
182,34,Memory,3,,,,,,,00140931230fb.jpg,,,,,,,,,,,,,,,
183,34,Memory,3,,,,,,,00147931230fb.jpg,,,,,,,,,,,,,,,
184,34,Memory,3,,,,,,,00753941201fa.jpg,,,,,,,,,,,,,,,
185,34,Memory,3,,,,,,,sunaaelyvurpntclgau.jpg,,,,,,,,,,,,,,,
186,34,Memory,3,,,,,,,sunabxsbfwjccqxxzxq.jpg,,,,,,,,,,,,,,,
187,34,Memory,3,,,,,,,00804960530fa.jpg,,,,,,,,,,,,,,,
188,34,Memory,3,,,,,,,sunacdnquypmsshhsbk.jpg,,,,,,,,,,,,,,,
189,34,Memory,3,,,,,,,sunaemcowdozyphwknd.jpg,,,,,,,,,,,,,,,
190,34,Memory,3,,,,,,,00630940928fa.jpg,,,,,,,,,,,,,,,
191,34,Memory,3,,,,,,,00063931230fa.jpg,,,,,,,,,,,,,,,
192,34,Memory,3,,,,,,,sunaczwgyukesaajxnx.jpg,,,,,,,,,,,,,,,
193,34,Memory,3,,,,,,,00102931230fa.jpg,,,,,,,,,,,,,,,
194,34,Memory,3,,,,,,,sunaccdtpgenvcbcbcf.jpg,,,,,,,,,,,,,,,
195,34,Memory,3,,,,,,,sunaizgnnplsvajzhkc.jpg,,,,,,,,,,,,,,,
196,34,Memory,3,,,,,,,sunafcofuuzebuadceo.jpg,,,,,,,,,,,,,,,
197,34,Memory,3,,,,,,,00741941201fa.jpg,,,,,,,,,,,,,,,
198,34,Memory,3,,,,,,,sunaffstbkappprzxnv.jpg,,,,,,,,,,,,,,,
199,34,Memory,3,,,,,,,sunagwswhkvnsmuszlz.jpg,,,,,,,,,,,,,,,
200,34,Presentation,4,00266940128fb_sunabkngeblodihjvbk.jpg,00239940128fa_sunabctlikybqabezjv.jpg,00266940128fb.jpg,sunabkngeblodihjvbk.jpg,00239940128fa.jpg,sunabctlikybqabezjv.jpg,,,<,Place,,,,,1,,,,,,,o
201,34,Presentation,4,00235940128fb_sunabclssnoeuigtawp.jpg,00792941205fa_sunagsiwrmuixqgdimb.jpg,00235940128fb.jpg,sunabclssnoeuigtawp.jpg,00792941205fa.jpg,sunagsiwrmuixqgdimb.jpg,,,<,Place,,,,,1,,,,,,,x
202,34,Presentation,4,00648941031fa_sunadfndyrtqqiasoig.jpg,00636941031fa_sunaddtdkycxbqlpfqa.jpg,00648941031fa.jpg,sunadfndyrtqqiasoig.jpg,00636941031fa.jpg,sunaddtdkycxbqlpfqa.jpg,,,<,Place,,,,,1,,,,,,,o
203,34,Presentation,4,00979960627fa_sunbdycacjfaujxitbw.jpg,00944960627fa_sunasbbntuiheekqyaq.jpg,00979960627fa.jpg,sunbdycacjfaujxitbw.jpg,00944960627fa.jpg,sunasbbntuiheekqyaq.jpg,,,<,Place,,,,,1,,,,,,,x
204,34,Presentation,4,00785941205fa_sunaglqunwuycxydmyu.jpg,00828940307fa_sunahuynahneraqftyz.jpg,00785941205fa.jpg,sunaglqunwuycxydmyu.jpg,00828940307fa.jpg,sunahuynahneraqftyz.jpg,,,<,Place,,,,,0,,,,,,,x
205,34,Presentation,4,00901960530fa_sunammbnoambmhdxdwd.jpg,00950960627fa_sunasrjlmglmjzbmqxb.jpg,00901960530fa.jpg,sunammbnoambmhdxdwd.jpg,00950960627fa.jpg,sunasrjlmglmjzbmqxb.jpg,,,<,Place,,,,,1,,,,,,,o
206,34,Presentation,4,00564940928fa_sunacmpqqfbsvlzinzl.jpg,00096931230fa_sunaaiqiqcggrskoqgy.jpg,00564940928fa.jpg,sunacmpqqfbsvlzinzl.jpg,00096931230fa.jpg,sunaaiqiqcggrskoqgy.jpg,,,<,Place,,,,,1,,,,,,,o
207,34,Presentation,4,00988960627fa_sunbmaiocftdtvnzgap.jpg,00146960620fb_sunaatpeezlljqaxlhj.jpg,00988960627fa.jpg,sunbmaiocftdtvnzgap.jpg,00146960620fb.jpg,sunaatpeezlljqaxlhj.jpg,,,<,Place,,,,,1,,,,,,,x
208,34,Presentation,4,00076931230fa_sunaafewhewbxmjiurz.jpg,00775941205fa_sunafvwfsmqkjrutjta.jpg,00076931230fa.jpg,sunaafewhewbxmjiurz.jpg,00775941205fa.jpg,sunafvwfsmqkjrutjta.jpg,,,<,Place,,,,,1,,,,,,,x
209,34,Presentation,4,00245940128fa_sunabeyhmxodahoieyk.jpg,00221940128fa_sunabcfpwlpolnutyju.jpg,00245940128fa.jpg,sunabeyhmxodahoieyk.jpg,00221940128fa.jpg,sunabcfpwlpolnutyju.jpg,,,<,Place,,,,,1,,,,,,,o
210,34,Memory,4,,,,,,,00076931230fa.jpg,,,,,,,,,,,,,,,
211,34,Memory,4,,,,,,,00290940422fa.jpg,,,,,,,,,,,,,,,
212,34,Memory,4,,,,,,,00239940128fa.jpg,,,,,,,,,,,,,,,
213,34,Memory,4,,,,,,,00235940128fb.jpg,,,,,,,,,,,,,,,
214,34,Memory,4,,,,,,,00564940928fa.jpg,,,,,,,,,,,,,,,
215,34,Memory,4,,,,,,,sunagvjurcwdbixvnyi.jpg,,,,,,,,,,,,,,,
216,34,Memory,4,,,,,,,sunammbnoambmhdxdwd.jpg,,,,,,,,,,,,,,,
217,34,Memory,4,,,,,,,00221940128fa.jpg,,,,,,,,,,,,,,,
218,34,Memory,4,,,,,,,sunbdycacjfaujxitbw.jpg,,,,,,,,,,,,,,,
219,34,Memory,4,,,,,,,00874940307fa.jpg,,,,,,,,,,,,,,,
220,34,Memory,4,,,,,,,00915960620fa.jpg,,,,,,,,,,,,,,,
221,34,Memory,4,,,,,,,00944960627fa.jpg,,,,,,,,,,,,,,,
222,34,Memory,4,,,,,,,sunbfyvfqiimvdaxlqn.jpg,,,,,,,,,,,,,,,
223,34,Memory,4,,,,,,,sunbaoizrfijvhpnnjn.jpg,,,,,,,,,,,,,,,
224,34,Memory,4,,,,,,,sunaydywdmvlfddbxbk.jpg,,,,,,,,,,,,,,,
225,34,Memory,4,,,,,,,sunaaiqiqcggrskoqgy.jpg,,,,,,,,,,,,,,,
226,34,Memory,4,,,,,,,00146960620fb.jpg,,,,,,,,,,,,,,,
227,34,Memory,4,,,,,,,sunabctlikybqabezjv.jpg,,,,,,,,,,,,,,,
228,34,Memory,4,,,,,,,00983960627fa.jpg,,,,,,,,,,,,,,,
229,34,Memory,4,,,,,,,sunahiphsekjihkafsl.jpg,,,,,,,,,,,,,,,
230,34,Memory,4,,,,,,,sunabqowuarvqqcnipn.jpg,,,,,,,,,,,,,,,
231,34,Memory,4,,,,,,,sunabclssnoeuigtawp.jpg,,,,,,,,,,,,,,,
232,34,Memory,4,,,,,,,00901960530fa.jpg,,,,,,,,,,,,,,,
233,34,Memory,4,,,,,,,00800941205fb.jpg,,,,,,,,,,,,,,,
234,34,Memory,4,,,,,,,00096931230fa.jpg,,,,,,,,,,,,,,,
235,34,Memory,4,,,,,,,sunasbbntuiheekqyaq.jpg,,,,,,,,,,,,,,,
236,34,Memory,4,,,,,,,00815941205fa.jpg,,,,,,,,,,,,,,,
237,34,Memory,4,,,,,,,00979960627fa.jpg,,,,,,,,,,,,,,,
238,34,Memory,4,,,,,,,00288940422fa.jpg,,,,,,,,,,,,,,,
239,34,Memory,4,,,,,,,sunacmpqqfbsvlzinzl.jpg,,,,,,,,,,,,,,,
240,34,Memory,4,,,,,,,sunajtrfunvzdfticna.jpg,,,,,,,,,,,,,,,
241,34,Memory,4,,,,,,,sunaiwduelojtwaqeyh.jpg,,,,,,,,,,,,,,,
242,34,Memory,4,,,,,,,00969960627fa.jpg,,,,,,,,,,,,,,,
243,34,Memory,4,,,,,,,sunaafewhewbxmjiurz.jpg,,,,,,,,,,,,,,,
244,34,Memory,4,,,,,,,00965960627fa.jpg,,,,,,,,,,,,,,,
245,34,Memory,4,,,,,,,sunabcfpwlpolnutyju.jpg,,,,,,,,,,,,,,,
246,34,Memory,4,,,,,,,sunaatpeezlljqaxlhj.jpg,,,,,,,,,,,,,,,
247,34,Memory,4,,,,,,,sunapileznnbbmrwoei.jpg,,,,,,,,,,,,,,,
248,34,Memory,4,,,,,,,sunabppokiyglaxpcha.jpg,,,,,,,,,,,,,,,
249,34,Memory,4,,,,,,,00854940307fa.jpg,,,,,,,,,,,,,,,
250,34,Presentation,5,00145931230fb_sunaatjesvdupctftmn.jpg,00776941205fa_sunafxokyavhgptyfye.jpg,00145931230fb.jpg,sunaatjesvdupctftmn.jpg,00776941205fa.jpg,sunafxokyavhgptyfye.jpg,,,<,Place,,,,,1,,,,,,,x
251,34,Presentation,5,00968960627fa_sunbagfpovqwbuexqdn.jpg,00926960627Fa_sunapqwoeotxshkukbh.jpg,00968960627fa.jpg,sunbagfpovqwbuexqdn.jpg,00926960627Fa.jpg,sunapqwoeotxshkukbh.jpg,,,<,Place,,,,,1,,,,,,,o
252,34,Presentation,5,00900960530fa_sunamlotskmmsjeogby.jpg,00882960530fa_sunaknlirqjqiwbbeeg.jpg,00900960530fa.jpg,sunamlotskmmsjeogby.jpg,00882960530fa.jpg,sunaknlirqjqiwbbeeg.jpg,,,<,Place,,,,,1,,,,,,,x
253,34,Presentation,5,00184940128fa_sunaavtbadenwnzeutj.jpg,00663941121fa_sunadnjjzohjhbohlwq.jpg,00184940128fa.jpg,sunaavtbadenwnzeutj.jpg,00663941121fa.jpg,sunadnjjzohjhbohlwq.jpg,,,<,Place,,,,,1,,,,,,,x
254,34,Presentation,5,00630941031fa_sunadakkdovnuzlycvp.jpg,00308940422fb_sunabwfvcqqidycwypa.jpg,00630941031fa.jpg,sunadakkdovnuzlycvp.jpg,00308940422fb.jpg,sunabwfvcqqidycwypa.jpg,,,<,Place,,,,,1,,,,,,,x
255,34,Presentation,5,00209940128fb_sunabaergayifsgacxt.jpg,00782941205fa_sunagfvluwixdsozaql.jpg,00209940128fb.jpg,sunabaergayifsgacxt.jpg,00782941205fa.jpg,sunagfvluwixdsozaql.jpg,,,<,Place,,,,,1,,,,,,,x
256,34,Presentation,5,00902960530fa_sunanaacmmosxrfwmvl.jpg,00242940128fa_sunabcuurugvxwparpk.jpg,00902960530fa.jpg,sunanaacmmosxrfwmvl.jpg,00242940128fa.jpg,sunabcuurugvxwparpk.jpg,,,<,Place,,,,,1,,,,,,,x
257,34,Presentation,5,00870940307fa_sunajrgtewnualfcerj.jpg,00144931230fb_sunaathajvxrgptwhoj.jpg,00870940307fa.jpg,sunajrgtewnualfcerj.jpg,00144931230fb.jpg,sunaathajvxrgptwhoj.jpg,,,<,Place,,,,,1,,,,,,,x
258,34,Presentation,5,00892960530fa_sunalntxqqadigcletd.jpg,01009960627fa_sunbxzweleltykebgan.jpg,00892960530fa.jpg,sunalntxqqadigcletd.jpg,01009960627fa.jpg,sunbxzweleltykebgan.jpg,,,<,Place,,,,,1,,,,,,,o
259,34,Presentation,5,00961960627fa_sunawotxrevnqvamsfp.jpg,00564941031fa_sunacsaovnjezqwbykf.jpg,00961960627fa.jpg,sunawotxrevnqvamsfp.jpg,00564941031fa.jpg,sunacsaovnjezqwbykf.jpg,,,<,Place,,,,,1,,,,,,,x
260,34,Memory,5,,,,,,,sunaajuzribjrizdshh.jpg,,,,,,,,,,,,,,,
261,34,Memory,5,,,,,,,sunanaacmmosxrfwmvl.jpg,,,,,,,,,,,,,,,
262,34,Memory,5,,,,,,,sunagountlxpzkytsmp.jpg,,,,,,,,,,,,,,,
263,34,Memory,5,,,,,,,00786941205fa.jpg,,,,,,,,,,,,,,,
264,34,Memory,5,,,,,,,sunamlotskmmsjeogby.jpg,,,,,,,,,,,,,,,
265,34,Memory,5,,,,,,,sunaeisnjeetzmkbuad.jpg,,,,,,,,,,,,,,,
266,34,Memory,5,,,,,,,00894960620fa.jpg,,,,,,,,,,,,,,,
267,34,Memory,5,,,,,,,sunaknlirqjqiwbbeeg.jpg,,,,,,,,,,,,,,,
268,34,Memory,5,,,,,,,sunapmfmzadmosuogaz.jpg,,,,,,,,,,,,,,,
269,34,Memory,5,,,,,,,00986960627fa.jpg,,,,,,,,,,,,,,,
270,34,Memory,5,,,,,,,sunadakkdovnuzlycvp.jpg,,,,,,,,,,,,,,,
271,34,Memory,5,,,,,,,00209940128fb.jpg,,,,,,,,,,,,,,,
272,34,Memory,5,,,,,,,00663941121fa.jpg,,,,,,,,,,,,,,,
273,34,Memory,5,,,,,,,00214940128fa.jpg,,,,,,,,,,,,,,,
274,34,Memory,5,,,,,,,00931960627fa.jpg,,,,,,,,,,,,,,,
275,34,Memory,5,,,,,,,sunawotxrevnqvamsfp.jpg,,,,,,,,,,,,,,,
276,34,Memory,5,,,,,,,01009960627fa.jpg,,,,,,,,,,,,,,,
277,34,Memory,5,,,,,,,00961960627fa.jpg,,,,,,,,,,,,,,,
278,34,Memory,5,,,,,,,sunaptrqvaooxfvktvw.jpg,,,,,,,,,,,,,,,
279,34,Memory,5,,,,,,,00985960627fa.jpg,,,,,,,,,,,,,,,
280,34,Memory,5,,,,,,,00902960530fa.jpg,,,,,,,,,,,,,,,
281,34,Memory,5,,,,,,,sunafxokyavhgptyfye.jpg,,,,,,,,,,,,,,,
282,34,Memory,5,,,,,,,sunadnjjzohjhbohlwq.jpg,,,,,,,,,,,,,,,
283,34,Memory,5,,,,,,,00900960530fa.jpg,,,,,,,,,,,,,,,
284,34,Memory,5,,,,,,,sunabaergayifsgacxt.jpg,,,,,,,,,,,,,,,
285,34,Memory,5,,,,,,,00788941205fa.jpg,,,,,,,,,,,,,,,
286,34,Memory,5,,,,,,,00630941031fa.jpg,,,,,,,,,,,,,,,
287,34,Memory,5,,,,,,,sunalqmfgeadpqsyzpd.jpg,,,,,,,,,,,,,,,
288,34,Memory,5,,,,,,,00882960530fa.jpg,,,,,,,,,,,,,,,
289,34,Memory,5,,,,,,,00727941205fa.jpg,,,,,,,,,,,,,,,
290,34,Memory,5,,,,,,,00919960620fa.jpg,,,,,,,,,,,,,,,
291,34,Memory,5,,,,,,,sunbgzjryivyczuvkvm.jpg,,,,,,,,,,,,,,,
292,34,Memory,5,,,,,,,sunbgklxeqjhdbyfhhy.jpg,,,,,,,,,,,,,,,
293,34,Memory,5,,,,,,,00776941205fa.jpg,,,,,,,,,,,,,,,
294,34,Memory,5,,,,,,,sunabbafjowbzcvbucc.jpg,,,,,,,,,,,,,,,
295,34,Memory,5,,,,,,,00144931230fb.jpg,,,,,,,,,,,,,,,
296,34,Memory,5,,,,,,,sunaathajvxrgptwhoj.jpg,,,,,,,,,,,,,,,
297,34,Memory,5,,,,,,,sunbxzweleltykebgan.jpg,,,,,,,,,,,,,,,
298,34,Memory,5,,,,,,,00109931230fa.jpg,,,,,,,,,,,,,,,
299,34,Memory,5,,,,,,,sunagmhildamktmqjss.jpg,,,,,,,,,,,,,,,
300,34,Presentation,6,00720960620fa_sunaecpkgfewqqreqwe.jpg,00069931230fb_sunaaeowapdkwzqpgqr.jpg,00720960620fa.jpg,sunaecpkgfewqqreqwe.jpg,00069931230fb.jpg,sunaaeowapdkwzqpgqr.jpg,,,>,Face,,,,,0,,,,,,,o
301,34,Presentation,6,00675941121fa_sunadoxcchtmsxewsau.jpg,00898960530fa_sunamkmeblgteyggink.jpg,00675941121fa.jpg,sunadoxcchtmsxewsau.jpg,00898960530fa.jpg,sunamkmeblgteyggink.jpg,,,>,Face,,,,,1,,,,,,,x
302,34,Presentation,6,00127931230fa_sunaampvucecsfbdafn.jpg,00857940307fa_sunaiwfobocrruqznsv.jpg,00127931230fa.jpg,sunaampvucecsfbdafn.jpg,00857940307fa.jpg,sunaiwfobocrruqznsv.jpg,,,>,Face,,,,,1,,,,,,,x
303,34,Presentation,6,00647941031fa_sunadflbrkckmepztql.jpg,00996960627fa_sunbpvgllfdejxcpjqp.jpg,00647941031fa.jpg,sunadflbrkckmepztql.jpg,00996960627fa.jpg,sunbpvgllfdejxcpjqp.jpg,,,>,Face,,,,,1,,,,,,,o
304,34,Presentation,6,00810941205fa_sunahctntqrunhdxhtb.jpg,00829940307fa_sunahwgbqkqcrwprgvh.jpg,00810941205fa.jpg,sunahctntqrunhdxhtb.jpg,00829940307fa.jpg,sunahwgbqkqcrwprgvh.jpg,,,>,Face,,,,,1,,,,,,,o
305,34,Presentation,6,00598941031fa_sunacxtcahkymosigud.jpg,00805941205fa_sunagwzdbtlixdhgolm.jpg,00598941031fa.jpg,sunacxtcahkymosigud.jpg,00805941205fa.jpg,sunagwzdbtlixdhgolm.jpg,,,>,Face,,,,,1,,,,,,,x
306,34,Presentation,6,00314940422fa_sunabwmcbaxwioksdgw.jpg,00976960627fa_sunbbhqyyzmsxhsbjmp.jpg,00314940422fa.jpg,sunabwmcbaxwioksdgw.jpg,00976960627fa.jpg,sunbbhqyyzmsxhsbjmp.jpg,,,>,Face,,,,,1,,,,,,,o
307,34,Presentation,6,01011960627fa_sundahdxwmcdluscvot.jpg,00922960627fa_sunapqkyghktgtosuuk.jpg,01011960627fa.jpg,sundahdxwmcdluscvot.jpg,00922960627fa.jpg,sunapqkyghktgtosuuk.jpg,,,>,Face,,,,,1,,,,,,,x
308,34,Presentation,6,00784941205fb_sunagjzcrjvmxzqzljx.jpg,00869940307fa_sunajoveqhiprwqgoco.jpg,00784941205fb.jpg,sunagjzcrjvmxzqzljx.jpg,00869940307fa.jpg,sunajoveqhiprwqgoco.jpg,,,>,Face,,,,,1,,,,,,,o
309,34,Presentation,6,00719941201fa_sunadvithllcgmfxsrn.jpg,00132931230fb_sunaanjcbzdvtvblsdy.jpg,00719941201fa.jpg,sunadvithllcgmfxsrn.jpg,00132931230fb.jpg,sunaanjcbzdvtvblsdy.jpg,,,>,Face,,,,,0,,,,,,,x
310,34,Memory,6,,,,,,,sunagjzcrjvmxzqzljx.jpg,,,,,,,,,,,,,,,
311,34,Memory,6,,,,,,,sunacxtcahkymosigud.jpg,,,,,,,,,,,,,,,
312,34,Memory,6,,,,,,,00898960530fa.jpg,,,,,,,,,,,,,,,
313,34,Memory,6,,,,,,,00801941205fa.jpg,,,,,,,,,,,,,,,
314,34,Memory,6,,,,,,,00069931230fb.jpg,,,,,,,,,,,,,,,
315,34,Memory,6,,,,,,,sunadvithllcgmfxsrn.jpg,,,,,,,,,,,,,,,
316,34,Memory,6,,,,,,,sunamkmeblgteyggink.jpg,,,,,,,,,,,,,,,
317,34,Memory,6,,,,,,,00065931230fb.jpg,,,,,,,,,,,,,,,
318,34,Memory,6,,,,,,,sunaaemixhfquhnxxlm.jpg,,,,,,,,,,,,,,,
319,34,Memory,6,,,,,,,sunaiwfobocrruqznsv.jpg,,,,,,,,,,,,,,,
320,34,Memory,6,,,,,,,sunaecpkgfewqqreqwe.jpg,,,,,,,,,,,,,,,
321,34,Memory,6,,,,,,,suncnkvbhypnivcohyx.jpg,,,,,,,,,,,,,,,
322,34,Memory,6,,,,,,,01010960627fa.jpg,,,,,,,,,,,,,,,
323,34,Memory,6,,,,,,,sunapqkyghktgtosuuk.jpg,,,,,,,,,,,,,,,
324,34,Memory,6,,,,,,,00893960530Fa.jpg,,,,,,,,,,,,,,,
325,34,Memory,6,,,,,,,sunahqrxievfeusiqlt.jpg,,,,,,,,,,,,,,,
326,34,Memory,6,,,,,,,sunantryfbloeaomfta.jpg,,,,,,,,,,,,,,,
327,34,Memory,6,,,,,,,00869940307fa.jpg,,,,,,,,,,,,,,,
328,34,Memory,6,,,,,,,sunabwmcbaxwioksdgw.jpg,,,,,,,,,,,,,,,
329,34,Memory,6,,,,,,,sunajoveqhiprwqgoco.jpg,,,,,,,,,,,,,,,
330,34,Memory,6,,,,,,,00922960627fa.jpg,,,,,,,,,,,,,,,
331,34,Memory,6,,,,,,,sunaahedjlmtqekgyvj.jpg,,,,,,,,,,,,,,,
332,34,Memory,6,,,,,,,00906960530fa.jpg,,,,,,,,,,,,,,,
333,34,Memory,6,,,,,,,sunatstrpjxhvtbaczf.jpg,,,,,,,,,,,,,,,
334,34,Memory,6,,,,,,,00314940422fa.jpg,,,,,,,,,,,,,,,
335,34,Memory,6,,,,,,,sunaaeowapdkwzqpgqr.jpg,,,,,,,,,,,,,,,
336,34,Memory,6,,,,,,,00784941205fb.jpg,,,,,,,,,,,,,,,
337,34,Memory,6,,,,,,,00138931230fa.jpg,,,,,,,,,,,,,,,
338,34,Memory,6,,,,,,,00598941031fa.jpg,,,,,,,,,,,,,,,
339,34,Memory,6,,,,,,,00857940307fa.jpg,,,,,,,,,,,,,,,
340,34,Memory,6,,,,,,,sunaapfaivxqoynnwwp.jpg,,,,,,,,,,,,,,,
341,34,Memory,6,,,,,,,sunaiycurtqsfkvcaso.jpg,,,,,,,,,,,,,,,
342,34,Memory,6,,,,,,,00822940307fa.jpg,,,,,,,,,,,,,,,
343,34,Memory,6,,,,,,,sunagvprlbprarvgdvj.jpg,,,,,,,,,,,,,,,
344,34,Memory,6,,,,,,,00720960620fa.jpg,,,,,,,,,,,,,,,
345,34,Memory,6,,,,,,,sunaloffvbvysigxent.jpg,,,,,,,,,,,,,,,
346,34,Memory,6,,,,,,,00953960627fa.jpg,,,,,,,,,,,,,,,
347,34,Memory,6,,,,,,,00090931230fa.jpg,,,,,,,,,,,,,,,
348,34,Memory,6,,,,,,,00719941201fa.jpg,,,,,,,,,,,,,,,
349,34,Memory,6,,,,,,,00859940307fa.jpg,,,,,,,,,,,,,,,
350,34,Presentation,7,00700941121fa_sunadsgmtznewzyasnk.jpg,00694941121fa_sunadrmfzmstgdjdcod.jpg,00700941121fa.jpg,sunadsgmtznewzyasnk.jpg,00694941121fa.jpg,sunadrmfzmstgdjdcod.jpg,,,>,Face,,,,,1,,,,,,,o
351,34,Presentation,7,00292940422fb_sunabrjdpmoedcdjbpo.jpg,00126931230fb_sunaamdjwemxpmmtypi.jpg,00292940422fb.jpg,sunabrjdpmoedcdjbpo.jpg,00126931230fb.jpg,sunaamdjwemxpmmtypi.jpg,,,>,Face,,,,,1,,,,,,,o
352,34,Presentation,7,00705960530fa_sunaduslxfzlbxlllnz.jpg,00993960627fa_sunbprywzqxjcezkbch.jpg,00705960530fa.jpg,sunaduslxfzlbxlllnz.jpg,00993960627fa.jpg,sunbprywzqxjcezkbch.jpg,,,>,Face,,,,,1,,,,,,,x
353,34,Presentation,7,00768941205fa_sunafkmnlytenlsywia.jpg,00819940307fa_sunahqldjibofgsfdgb.jpg,00768941205fa.jpg,sunafkmnlytenlsywia.jpg,00819940307fa.jpg,sunahqldjibofgsfdgb.jpg,,,>,Face,,,,,1,,,,,,,x
354,34,Presentation,7,00787941205fa_sunagmwxxwymwojbvgi.jpg,00952960627fa_sunathzzbcwjykldrem.jpg,00787941205fa.jpg,sunagmwxxwymwojbvgi.jpg,00952960627fa.jpg,sunathzzbcwjykldrem.jpg,,,>,Face,,,,,1,,,,,,,x
355,34,Presentation,7,00885960530fa_sunakwlvxjpddialozd.jpg,00576941031fa_sunacvjlsylseoghjup.jpg,00885960530fa.jpg,sunakwlvxjpddialozd.jpg,00576941031fa.jpg,sunacvjlsylseoghjup.jpg,,,>,Face,,,,,1,,,,,,,x
356,34,Presentation,7,00060931230fa_sunaaehaikpckyjsety.jpg,00905960530fa_sunanmoqeyprjjjfxjt.jpg,00060931230fa.jpg,sunaaehaikpckyjsety.jpg,00905960530fa.jpg,sunanmoqeyprjjjfxjt.jpg,,,>,Face,,,,,1,,,,,,,x
357,34,Presentation,7,00779941205fa_sunagdzlvkqtpnfxfcg.jpg,00130931230fa_sunaamvxnvouicstkjb.jpg,00779941205fa.jpg,sunagdzlvkqtpnfxfcg.jpg,00130931230fa.jpg,sunaamvxnvouicstkjb.jpg,,,>,Face,,,,,1,,,,,,,x
358,34,Presentation,7,00098931230fa_sunaajpqmulidejvjsr.jpg,00773960620fa_sunafvsxtzaizojicxx.jpg,00098931230fa.jpg,sunaajpqmulidejvjsr.jpg,00773960620fa.jpg,sunafvsxtzaizojicxx.jpg,,,>,Face,,,,,1,,,,,,,x
359,34,Presentation,7,00858940307fa_sunaixpqndlwhwjtjek.jpg,00777941205fa_sunagcinxkccdtrjmlv.jpg,00858940307fa.jpg,sunaixpqndlwhwjtjek.jpg,00777941205fa.jpg,sunagcinxkccdtrjmlv.jpg,,,>,Face,,,,,1,,,,,,,x
360,34,Memory,7,,,,,,,00126931230fb.jpg,,,,,,,,,,,,,,,
361,34,Memory,7,,,,,,,00885960530fa.jpg,,,,,,,,,,,,,,,
362,34,Memory,7,,,,,,,sunakwlvxjpddialozd.jpg,,,,,,,,,,,,,,,
363,34,Memory,7,,,,,,,00908960530fa.jpg,,,,,,,,,,,,,,,
364,34,Memory,7,,,,,,,00700941121fa.jpg,,,,,,,,,,,,,,,
365,34,Memory,7,,,,,,,00816941205fa.jpg,,,,,,,,,,,,,,,
366,34,Memory,7,,,,,,,sunaamdjwemxpmmtypi.jpg,,,,,,,,,,,,,,,
367,34,Memory,7,,,,,,,00576941031fa.jpg,,,,,,,,,,,,,,,
368,34,Memory,7,,,,,,,sunabkmdplkdbvxriff.jpg,,,,,,,,,,,,,,,
369,34,Memory,7,,,,,,,00787960620fa.jpg,,,,,,,,,,,,,,,
370,34,Memory,7,,,,,,,sunagmwxxwymwojbvgi.jpg,,,,,,,,,,,,,,,
371,34,Memory,7,,,,,,,00313940422fa.jpg,,,,,,,,,,,,,,,
372,34,Memory,7,,,,,,,sunasmmcxdddtmtazwx.jpg,,,,,,,,,,,,,,,
373,34,Memory,7,,,,,,,00265940128fb.jpg,,,,,,,,,,,,,,,
374,34,Memory,7,,,,,,,00819940307fa.jpg,,,,,,,,,,,,,,,
375,34,Memory,7,,,,,,,sunbondbduabvijnmch.jpg,,,,,,,,,,,,,,,
376,34,Memory,7,,,,,,,sunaajpqmulidejvjsr.jpg,,,,,,,,,,,,,,,
377,34,Memory,7,,,,,,,sunaafgqutfaishsxyu.jpg,,,,,,,,,,,,,,,
378,34,Memory,7,,,,,,,00077931230fb.jpg,,,,,,,,,,,,,,,
379,34,Memory,7,,,,,,,00098931230fa.jpg,,,,,,,,,,,,,,,
380,34,Memory,7,,,,,,,sunbprywzqxjcezkbch.jpg,,,,,,,,,,,,,,,
381,34,Memory,7,,,,,,,00947960627fa.jpg,,,,,,,,,,,,,,,
382,34,Memory,7,,,,,,,sunaamvxnvouicstkjb.jpg,,,,,,,,,,,,,,,
383,34,Memory,7,,,,,,,sunagdzlvkqtpnfxfcg.jpg,,,,,,,,,,,,,,,
384,34,Memory,7,,,,,,,sunadsgmtznewzyasnk.jpg,,,,,,,,,,,,,,,
385,34,Memory,7,,,,,,,sunabwjvmoaddlyxfjr.jpg,,,,,,,,,,,,,,,
386,34,Memory,7,,,,,,,00130931230fa.jpg,,,,,,,,,,,,,,,
387,34,Memory,7,,,,,,,00790941205fa.jpg,,,,,,,,,,,,,,,
388,34,Memory,7,,,,,,,sunanwjjyqqwzqrqagd.jpg,,,,,,,,,,,,,,,
389,34,Memory,7,,,,,,,00989960627fa.jpg,,,,,,,,,,,,,,,
390,34,Memory,7,,,,,,,sunagoufulkpsxrmklt.jpg,,,,,,,,,,,,,,,
391,34,Memory,7,,,,,,,sunabohxbskznglnrhv.jpg,,,,,,,,,,,,,,,
392,34,Memory,7,,,,,,,00993960627fa.jpg,,,,,,,,,,,,,,,
393,34,Memory,7,,,,,,,00787941205fa.jpg,,,,,,,,,,,,,,,
394,34,Memory,7,,,,,,,sunagpjzsbltchlwvou.jpg,,,,,,,,,,,,,,,
395,34,Memory,7,,,,,,,sunacvjlsylseoghjup.jpg,,,,,,,,,,,,,,,
396,34,Memory,7,,,,,,,sunahqldjibofgsfdgb.jpg,,,,,,,,,,,,,,,
397,34,Memory,7,,,,,,,00280940422fb.jpg,,,,,,,,,,,,,,,
398,34,Memory,7,,,,,,,sunahmhrncocyhsjpxk.jpg,,,,,,,,,,,,,,,
399,34,Memory,7,,,,,,,00779941205fa.jpg,,,,,,,,,,,,,,,
