,Subject,Trial Type,Run,Cued Composite,Uncued Composite,Cued Face,Cued Place,Uncued Face,Uncued Place,Memory Image,Category,Cued Side,Cued Category,Attention Response Time (s),Familiarity Reaction Time (s),Familiarity Rating,Attention Level,Cue Validity,Post Invalid Cue,Pre Invalid Cue,Attention Button,Rating History,Stimulus Onset,Stimulus End,Attention Probe
0,6,Presentation,0,00784941205fb_sunagjzcrjvmxzqzljx.jpg,00129931230fb_sunaamsdyakblkfoydx.jpg,,,,,,,>,Place,,,,,1,,,,,,,o
1,6,Presentation,0,00807941205fa_sunahawfngukizslzsd.jpg,00227940128fa_sunabckqabszusgcykj.jpg,,,,,,,<,Place,,,,,1,,,,,,,o
2,6,Presentation,0,00636941031fa_sunaddtdkycxbqlpfqa.jpg,00124931230fa_sunaalhlvzmjmitybdn.jpg,,,,,,,>,Place,,,,,1,,,,,,,o
3,6,Presentation,0,00834940307fa_sunaibnpvhkdpdnzcnz.jpg,00700941121fa_sunadsgmtznewzyasnk.jpg,,,,,,,<,Face,,,,,1,,,,,,,x
4,6,Presentation,0,00138931230fa_sunaapfaivxqoynnwwp.jpg,00741941201fa_sunaemcowdozyphwknd.jpg,,,,,,,>,Place,,,,,1,,,,,,,o
5,6,Presentation,0,00071940128fa_sunaaexpnawiehinlpy.jpg,00112931230fa_sunaakjaacuzulqckgl.jpg,,,,,,,>,Face,,,,,1,,,,,,,o
6,6,Presentation,0,01009960627fa_sunbxzweleltykebgan.jpg,00848940307fa_sunaivdylrawbmhryfp.jpg,,,,,,,<,Place,,,,,1,,,,,,,x
7,6,Presentation,0,00313940422fa_sunabwjvmoaddlyxfjr.jpg,00958960627fa_sunavspxmxubqaeidjt.jpg,,,,,,,<,Face,,,,,1,,,,,,,o
8,6,Presentation,0,00631940928fa_sunadbdqzigzwipuipr.jpg,00280940422fb_sunabohxbskznglnrhv.jpg,,,,,,,>,Face,,,,,1,,,,,,,x
9,6,Presentation,0,00131931230fb_sunaangbuylfvckqqoo.jpg,00662941121fa_sunadkazmlajmohnwfl.jpg,,,,,,,<,Face,,,,,1,,,,,,,x
10,6,Memory,0,,,,,,,sunacxeheuiigkcgquf.jpg,,,,,,,,,,,,,,,
11,6,Memory,0,,,,,,,sunbfzchmomnvzhbxdg.jpg,,,,,,,,,,,,,,,
12,6,Memory,0,,,,,,,sunaaexpnawiehinlpy.jpg,,,,,,,,,,,,,,,
13,6,Memory,0,,,,,,,00144931230fb.jpg,,,,,,,,,,,,,,,
14,6,Memory,0,,,,,,,00984960627fa.jpg,,,,,,,,,,,,,,,
15,6,Memory,0,,,,,,,00719941201fa.jpg,,,,,,,,,,,,,,,
16,6,Memory,0,,,,,,,sunabwjvmoaddlyxfjr.jpg,,,,,,,,,,,,,,,
17,6,Memory,0,,,,,,,sunaeuvjbmdpknaqqaj.jpg,,,,,,,,,,,,,,,
18,6,Memory,0,,,,,,,00598940928fa.jpg,,,,,,,,,,,,,,,
19,6,Memory,0,,,,,,,00124931230fa.jpg,,,,,,,,,,,,,,,
20,6,Memory,0,,,,,,,00071940128fa.jpg,,,,,,,,,,,,,,,
21,6,Memory,0,,,,,,,sunadsgmtznewzyasnk.jpg,,,,,,,,,,,,,,,
22,6,Memory,0,,,,,,,sunaanlwnpqndclffxt.jpg,,,,,,,,,,,,,,,
23,6,Memory,0,,,,,,,00989960627fa.jpg,,,,,,,,,,,,,,,
24,6,Memory,0,,,,,,,sunagjzcrjvmxzqzljx.jpg,,,,,,,,,,,,,,,
25,6,Memory,0,,,,,,,00741941201fa.jpg,,,,,,,,,,,,,,,
26,6,Memory,0,,,,,,,00893960530Fa.jpg,,,,,,,,,,,,,,,
27,6,Memory,0,,,,,,,00906960530fa.jpg,,,,,,,,,,,,,,,
28,6,Memory,0,,,,,,,sunaddtdkycxbqlpfqa.jpg,,,,,,,,,,,,,,,
29,6,Memory,0,,,,,,,sunaguchqqnrtodtezq.jpg,,,,,,,,,,,,,,,
30,6,Memory,0,,,,,,,00749941201fa.jpg,,,,,,,,,,,,,,,
31,6,Memory,0,,,,,,,sunaivdylrawbmhryfp.jpg,,,,,,,,,,,,,,,
32,6,Memory,0,,,,,,,sunabckqabszusgcykj.jpg,,,,,,,,,,,,,,,
33,6,Memory,0,,,,,,,00133931230fa.jpg,,,,,,,,,,,,,,,
34,6,Memory,0,,,,,,,sunaloffvbvysigxent.jpg,,,,,,,,,,,,,,,
35,6,Memory,0,,,,,,,00313940422fa.jpg,,,,,,,,,,,,,,,
36,6,Memory,0,,,,,,,sunadvithllcgmfxsrn.jpg,,,,,,,,,,,,,,,
37,6,Memory,0,,,,,,,sunbondbduabvijnmch.jpg,,,,,,,,,,,,,,,
38,6,Memory,0,,,,,,,sunaalhlvzmjmitybdn.jpg,,,,,,,,,,,,,,,
39,6,Memory,0,,,,,,,00227940128fa.jpg,,,,,,,,,,,,,,,
40,6,Memory,0,,,,,,,00700941121fa.jpg,,,,,,,,,,,,,,,
41,6,Memory,0,,,,,,,00807941205fa.jpg,,,,,,,,,,,,,,,
42,6,Memory,0,,,,,,,00784941205fb.jpg,,,,,,,,,,,,,,,
43,6,Memory,0,,,,,,,00796941205fa.jpg,,,,,,,,,,,,,,,
44,6,Memory,0,,,,,,,sunaemcowdozyphwknd.jpg,,,,,,,,,,,,,,,
45,6,Memory,0,,,,,,,00848940307fa.jpg,,,,,,,,,,,,,,,
46,6,Memory,0,,,,,,,sunantryfbloeaomfta.jpg,,,,,,,,,,,,,,,
47,6,Memory,0,,,,,,,sunaathajvxrgptwhoj.jpg,,,,,,,,,,,,,,,
48,6,Memory,0,,,,,,,sunahawfngukizslzsd.jpg,,,,,,,,,,,,,,,
49,6,Memory,0,,,,,,,00636941031fa.jpg,,,,,,,,,,,,,,,
50,6,Presentation,1,00745941205fa_sunaeouogqolxvggaoq.jpg,00705960530fa_sunaduslxfzlbxlllnz.jpg,,,,,,,>,Face,,,,,0,,,,,,,o
51,6,Presentation,1,00968960627fa_sunbagfpovqwbuexqdn.jpg,00127931230fa_sunaampvucecsfbdafn.jpg,,,,,,,>,Place,,,,,1,,,,,,,o
52,6,Presentation,1,00681941121fa_sunadqmjrhfjyuzyvdd.jpg,00961960627fa_sunawotxrevnqvamsfp.jpg,,,,,,,<,Face,,,,,1,,,,,,,x
53,6,Presentation,1,00063931230fa_sunaaelyvurpntclgau.jpg,00132931230fb_sunaanjcbzdvtvblsdy.jpg,,,,,,,>,Face,,,,,0,,,,,,,o
54,6,Presentation,1,00568940928fa_sunacsdhbbsybcyxnel.jpg,00925960627fa_sunapqwnqzxlsfvgsjm.jpg,,,,,,,<,Place,,,,,1,,,,,,,o
55,6,Presentation,1,00095931230fa_sunaahzooisqkwlxwoz.jpg,00801941205fa_sunagvprlbprarvgdvj.jpg,,,,,,,<,Face,,,,,1,,,,,,,o
56,6,Presentation,1,00294940422fb_sunabrlndkruqokhury.jpg,00957960627fa_sunavhxgmgrqsaptynb.jpg,,,,,,,>,Place,,,,,1,,,,,,,x
57,6,Presentation,1,00070940307fa_sunaaeplwsfslcbtojr.jpg,00719960620fa_sunadzuvtmtmgupotmf.jpg,,,,,,,<,Place,,,,,1,,,,,,,o
58,6,Presentation,1,00978960627fa_sunbddbivbptlrlauhy.jpg,00797960620fa_sunagufzbeteqdjxais.jpg,,,,,,,>,Place,,,,,1,,,,,,,o
59,6,Presentation,1,00841940307fa_sunaisiwfgppimtnmxl.jpg,00810941205fa_sunahctntqrunhdxhtb.jpg,,,,,,,<,Face,,,,,1,,,,,,,x
60,6,Memory,1,,,,,,,sunaafvitpexrpvumsa.jpg,,,,,,,,,,,,,,,
61,6,Memory,1,,,,,,,00747941201fa.jpg,,,,,,,,,,,,,,,
62,6,Memory,1,,,,,,,00795941205fa.jpg,,,,,,,,,,,,,,,
63,6,Memory,1,,,,,,,sunaeutbrtswvsozxyk.jpg,,,,,,,,,,,,,,,
64,6,Memory,1,,,,,,,sunabwmcbaxwioksdgw.jpg,,,,,,,,,,,,,,,
65,6,Memory,1,,,,,,,00127931230fa.jpg,,,,,,,,,,,,,,,
66,6,Memory,1,,,,,,,00681941121fa.jpg,,,,,,,,,,,,,,,
67,6,Memory,1,,,,,,,sunaahzooisqkwlxwoz.jpg,,,,,,,,,,,,,,,
68,6,Memory,1,,,,,,,00568940928fa.jpg,,,,,,,,,,,,,,,
69,6,Memory,1,,,,,,,00132931230fb.jpg,,,,,,,,,,,,,,,
70,6,Memory,1,,,,,,,00063931230fa.jpg,,,,,,,,,,,,,,,
71,6,Memory,1,,,,,,,sunaaeowapdkwzqpgqr.jpg,,,,,,,,,,,,,,,
72,6,Memory,1,,,,,,,00887960530.jpg,,,,,,,,,,,,,,,
73,6,Memory,1,,,,,,,sunaauglwmctnkxyird.jpg,,,,,,,,,,,,,,,
74,6,Memory,1,,,,,,,sunalcrtwiycqobgelp.jpg,,,,,,,,,,,,,,,
75,6,Memory,1,,,,,,,sunadochqcucscehsgk.jpg,,,,,,,,,,,,,,,
76,6,Memory,1,,,,,,,00957960627fa.jpg,,,,,,,,,,,,,,,
77,6,Memory,1,,,,,,,sunagtumacdlmciqamz.jpg,,,,,,,,,,,,,,,
78,6,Memory,1,,,,,,,sunaaelyvurpntclgau.jpg,,,,,,,,,,,,,,,
79,6,Memory,1,,,,,,,00095931230fa.jpg,,,,,,,,,,,,,,,
80,6,Memory,1,,,,,,,00976960627fa.jpg,,,,,,,,,,,,,,,
81,6,Memory,1,,,,,,,00069931230fb.jpg,,,,,,,,,,,,,,,
82,6,Memory,1,,,,,,,sunbbhqyyzmsxhsbjmp.jpg,,,,,,,,,,,,,,,
83,6,Memory,1,,,,,,,00070940307fa.jpg,,,,,,,,,,,,,,,
84,6,Memory,1,,,,,,,00149931230fa.jpg,,,,,,,,,,,,,,,
85,6,Memory,1,,,,,,,sunavhxgmgrqsaptynb.jpg,,,,,,,,,,,,,,,
86,6,Memory,1,,,,,,,sunadqmjrhfjyuzyvdd.jpg,,,,,,,,,,,,,,,
87,6,Memory,1,,,,,,,sunaampvucecsfbdafn.jpg,,,,,,,,,,,,,,,
88,6,Memory,1,,,,,,,00314940422fa.jpg,,,,,,,,,,,,,,,
89,6,Memory,1,,,,,,,sunapqwnqzxlsfvgsjm.jpg,,,,,,,,,,,,,,,
90,6,Memory,1,,,,,,,00925960627fa.jpg,,,,,,,,,,,,,,,
91,6,Memory,1,,,,,,,sunacsdhbbsybcyxnel.jpg,,,,,,,,,,,,,,,
92,6,Memory,1,,,,,,,sunaavchcbptaerhcfy.jpg,,,,,,,,,,,,,,,
93,6,Memory,1,,,,,,,sunaduslxfzlbxlllnz.jpg,,,,,,,,,,,,,,,
94,6,Memory,1,,,,,,,00158931230fb.jpg,,,,,,,,,,,,,,,
95,6,Memory,1,,,,,,,sunaaeplwsfslcbtojr.jpg,,,,,,,,,,,,,,,
96,6,Memory,1,,,,,,,00705960530fa.jpg,,,,,,,,,,,,,,,
97,6,Memory,1,,,,,,,00082931230fa.jpg,,,,,,,,,,,,,,,
98,6,Memory,1,,,,,,,sunaanjcbzdvtvblsdy.jpg,,,,,,,,,,,,,,,
99,6,Memory,1,,,,,,,00670941121fa.jpg,,,,,,,,,,,,,,,
100,6,Presentation,2,00210940128fb_sunabanoxjtqxamkucc.jpg,00838940307fa_sunaiozxhxgtfrmoagh.jpg,,,,,,,<,Face,,,,,1,,,,,,,o
101,6,Presentation,2,00221940128fa_sunabcfpwlpolnutyju.jpg,01011960627fa_sundahdxwmcdluscvot.jpg,,,,,,,<,Place,,,,,1,,,,,,,x
102,6,Presentation,2,00564940928fa_sunacmpqqfbsvlzinzl.jpg,00153931230fa_sunaauhozyxzeeqstxi.jpg,,,,,,,>,Face,,,,,1,,,,,,,o
103,6,Presentation,2,00770941201fa_sunaflojskatpeqyzqp.jpg,00730960620fa_sunaekgzpfilgjxpeyq.jpg,,,,,,,>,Place,,,,,1,,,,,,,o
104,6,Presentation,2,00772941201fa_sunafpfpiiujzoesnqg.jpg,00828940307fa_sunahuynahneraqftyz.jpg,,,,,,,<,Place,,,,,1,,,,,,,o
105,6,Presentation,2,00902960530fa_sunanaacmmosxrfwmvl.jpg,00694941121fa_sunadrmfzmstgdjdcod.jpg,,,,,,,>,Place,,,,,0,,,,,,,x
106,6,Presentation,2,00854940307fa_sunaiwduelojtwaqeyh.jpg,00877960530fa_sunajxpkuhbizeveguy.jpg,,,,,,,>,Face,,,,,1,,,,,,,o
107,6,Presentation,2,00184940128fa_sunaavtbadenwnzeutj.jpg,00529940519fa_sunacbeefkxpymwevpk.jpg,,,,,,,<,Face,,,,,1,,,,,,,x
108,6,Presentation,2,00869940307fa_sunajoveqhiprwqgoco.jpg,00136931230fb_sunaanptmsknhirrzed.jpg,,,,,,,>,Face,,,,,1,,,,,,,o
109,6,Presentation,2,00076931230fa_sunaafewhewbxmjiurz.jpg,00889960530fa_sunaletopenvvozhpxc.jpg,,,,,,,<,Place,,,,,1,,,,,,,x
110,6,Memory,2,,,,,,,00130931230fa.jpg,,,,,,,,,,,,,,,
111,6,Memory,2,,,,,,,00838940307fa.jpg,,,,,,,,,,,,,,,
112,6,Memory,2,,,,,,,sunabppokiyglaxpcha.jpg,,,,,,,,,,,,,,,
113,6,Memory,2,,,,,,,sunafpfpiiujzoesnqg.jpg,,,,,,,,,,,,,,,
114,6,Memory,2,,,,,,,00288940422fa.jpg,,,,,,,,,,,,,,,
115,6,Memory,2,,,,,,,sundahdxwmcdluscvot.jpg,,,,,,,,,,,,,,,
116,6,Memory,2,,,,,,,00772941201fa.jpg,,,,,,,,,,,,,,,
117,6,Memory,2,,,,,,,sunaipyohrqlwngaqif.jpg,,,,,,,,,,,,,,,
118,6,Memory,2,,,,,,,sunacmpqqfbsvlzinzl.jpg,,,,,,,,,,,,,,,
119,6,Memory,2,,,,,,,00839940307fa.jpg,,,,,,,,,,,,,,,
120,6,Memory,2,,,,,,,sunajxpkuhbizeveguy.jpg,,,,,,,,,,,,,,,
121,6,Memory,2,,,,,,,sunadrmfzmstgdjdcod.jpg,,,,,,,,,,,,,,,
122,6,Memory,2,,,,,,,sunabanoxjtqxamkucc.jpg,,,,,,,,,,,,,,,
123,6,Memory,2,,,,,,,00126931230fb.jpg,,,,,,,,,,,,,,,
124,6,Memory,2,,,,,,,sunaamdjwemxpmmtypi.jpg,,,,,,,,,,,,,,,
125,6,Memory,2,,,,,,,sunaiozxhxgtfrmoagh.jpg,,,,,,,,,,,,,,,
126,6,Memory,2,,,,,,,sunanaacmmosxrfwmvl.jpg,,,,,,,,,,,,,,,
127,6,Memory,2,,,,,,,sunaauhozyxzeeqstxi.jpg,,,,,,,,,,,,,,,
128,6,Memory,2,,,,,,,00902960530fa.jpg,,,,,,,,,,,,,,,
129,6,Memory,2,,,,,,,00507940519fa.jpg,,,,,,,,,,,,,,,
130,6,Memory,2,,,,,,,00564940928fa.jpg,,,,,,,,,,,,,,,
131,6,Memory,2,,,,,,,01007960627fa.jpg,,,,,,,,,,,,,,,
132,6,Memory,2,,,,,,,sunathzzbcwjykldrem.jpg,,,,,,,,,,,,,,,
133,6,Memory,2,,,,,,,sunbxarcshsnqsefemx.jpg,,,,,,,,,,,,,,,
134,6,Memory,2,,,,,,,00694941121fa.jpg,,,,,,,,,,,,,,,
135,6,Memory,2,,,,,,,00153931230fa.jpg,,,,,,,,,,,,,,,
136,6,Memory,2,,,,,,,sunabizydfotqddlnjp.jpg,,,,,,,,,,,,,,,
137,6,Memory,2,,,,,,,00093931230fa.jpg,,,,,,,,,,,,,,,
138,6,Memory,2,,,,,,,sunabcfpwlpolnutyju.jpg,,,,,,,,,,,,,,,
139,6,Memory,2,,,,,,,00221940128fa.jpg,,,,,,,,,,,,,,,
140,6,Memory,2,,,,,,,00210940128fb.jpg,,,,,,,,,,,,,,,
141,6,Memory,2,,,,,,,sunaahwnmtqsrhocysw.jpg,,,,,,,,,,,,,,,
142,6,Memory,2,,,,,,,00877960530fa.jpg,,,,,,,,,,,,,,,
143,6,Memory,2,,,,,,,00987960627fa.jpg,,,,,,,,,,,,,,,
144,6,Memory,2,,,,,,,00952960627fa.jpg,,,,,,,,,,,,,,,
145,6,Memory,2,,,,,,,sunaamvxnvouicstkjb.jpg,,,,,,,,,,,,,,,
146,6,Memory,2,,,,,,,sunbloeoiozwjjsiamp.jpg,,,,,,,,,,,,,,,
147,6,Memory,2,,,,,,,00262940128fa.jpg,,,,,,,,,,,,,,,
148,6,Memory,2,,,,,,,sunacacflqoyxhsqzhe.jpg,,,,,,,,,,,,,,,
149,6,Memory,2,,,,,,,01011960627fa.jpg,,,,,,,,,,,,,,,
150,6,Presentation,3,00911960530fa_sunaooaqzputrowwbsw.jpg,00950960627fa_sunasrjlmglmjzbmqxb.jpg,,,,,,,>,Face,,,,,0,,,,,,,x
151,6,Presentation,3,00933960627fa_sunapwjkcxdaeqehfql.jpg,00885960530fa_sunakwlvxjpddialozd.jpg,,,,,,,>,Place,,,,,1,,,,,,,x
152,6,Presentation,3,00725941201fa_sunaefgzwiramypjvtd.jpg,00868960307fa_sunajjxttslobudoqbv.jpg,,,,,,,<,Face,,,,,1,,,,,,,x
153,6,Presentation,3,00098931230fa_sunaajpqmulidejvjsr.jpg,00788941205fa_sunagountlxpzkytsmp.jpg,,,,,,,<,Place,,,,,1,,,,,,,x
154,6,Presentation,3,00218940128fa_sunabbwggenhfbftyvi.jpg,00306940422fa_sunabueyoajufbkraki.jpg,,,,,,,<,Face,,,,,1,,,,,,,x
155,6,Presentation,3,00242940128fa_sunabcuurugvxwparpk.jpg,00983960627fa_sunbfyvfqiimvdaxlqn.jpg,,,,,,,>,Place,,,,,1,,,,,,,x
156,6,Presentation,3,00787941205fa_sunagmwxxwymwojbvgi.jpg,00630940928fa_sunaczwgyukesaajxnx.jpg,,,,,,,<,Place,,,,,1,,,,,,,o
157,6,Presentation,3,00944960627fa_sunasbbntuiheekqyaq.jpg,00997960627fa_sunbtpilbhhbmhmeuzq.jpg,,,,,,,<,Face,,,,,1,,,,,,,x
158,6,Presentation,3,00898960530fa_sunamkmeblgteyggink.jpg,00900960530fa_sunamlotskmmsjeogby.jpg,,,,,,,>,Place,,,,,1,,,,,,,x
159,6,Presentation,3,00635941031fa_sunaddsaeicthrfbkhe.jpg,00194940128fb_sunaayehfdqcyxggsej.jpg,,,,,,,>,Face,,,,,1,,,,,,,x
160,6,Memory,3,,,,,,,00780960530fa.jpg,,,,,,,,,,,,,,,
161,6,Memory,3,,,,,,,sunapwjkcxdaeqehfql.jpg,,,,,,,,,,,,,,,
162,6,Memory,3,,,,,,,sunafxokyavhgptyfye.jpg,,,,,,,,,,,,,,,
163,6,Memory,3,,,,,,,sunaayehfdqcyxggsej.jpg,,,,,,,,,,,,,,,
164,6,Memory,3,,,,,,,sunajtrfunvzdfticna.jpg,,,,,,,,,,,,,,,
165,6,Memory,3,,,,,,,00939960627fa.jpg,,,,,,,,,,,,,,,
166,6,Memory,3,,,,,,,sunaczwgyukesaajxnx.jpg,,,,,,,,,,,,,,,
167,6,Memory,3,,,,,,,00635941031fa.jpg,,,,,,,,,,,,,,,
168,6,Memory,3,,,,,,,00977960627fa.jpg,,,,,,,,,,,,,,,
169,6,Memory,3,,,,,,,sunajjxttslobudoqbv.jpg,,,,,,,,,,,,,,,
170,6,Memory,3,,,,,,,00098931230fa.jpg,,,,,,,,,,,,,,,
171,6,Memory,3,,,,,,,00874940307fa.jpg,,,,,,,,,,,,,,,
172,6,Memory,3,,,,,,,sunamkmeblgteyggink.jpg,,,,,,,,,,,,,,,
173,6,Memory,3,,,,,,,sunabasphceswhwwqvv.jpg,,,,,,,,,,,,,,,
174,6,Memory,3,,,,,,,sunarceibpcyacbmfga.jpg,,,,,,,,,,,,,,,
175,6,Memory,3,,,,,,,01004960627fa.jpg,,,,,,,,,,,,,,,
176,6,Memory,3,,,,,,,sunaajpqmulidejvjsr.jpg,,,,,,,,,,,,,,,
177,6,Memory,3,,,,,,,00933960627fa.jpg,,,,,,,,,,,,,,,
178,6,Memory,3,,,,,,,00630940928fa.jpg,,,,,,,,,,,,,,,
179,6,Memory,3,,,,,,,00944960627fa.jpg,,,,,,,,,,,,,,,
180,6,Memory,3,,,,,,,00868960307fa.jpg,,,,,,,,,,,,,,,
181,6,Memory,3,,,,,,,sunbbxkanhzjgbwyxqs.jpg,,,,,,,,,,,,,,,
182,6,Memory,3,,,,,,,00663941121fa.jpg,,,,,,,,,,,,,,,
183,6,Memory,3,,,,,,,00979960627fa.jpg,,,,,,,,,,,,,,,
184,6,Memory,3,,,,,,,sunabueyoajufbkraki.jpg,,,,,,,,,,,,,,,
185,6,Memory,3,,,,,,,sunbwtlihsuptkrckid.jpg,,,,,,,,,,,,,,,
186,6,Memory,3,,,,,,,00211940128fa.jpg,,,,,,,,,,,,,,,
187,6,Memory,3,,,,,,,sunbdycacjfaujxitbw.jpg,,,,,,,,,,,,,,,
188,6,Memory,3,,,,,,,sunaddsaeicthrfbkhe.jpg,,,,,,,,,,,,,,,
189,6,Memory,3,,,,,,,sunbtpilbhhbmhmeuzq.jpg,,,,,,,,,,,,,,,
190,6,Memory,3,,,,,,,00898960530fa.jpg,,,,,,,,,,,,,,,
191,6,Memory,3,,,,,,,sunagetqixeypsysbpn.jpg,,,,,,,,,,,,,,,
192,6,Memory,3,,,,,,,sunahwgbqkqcrwprgvh.jpg,,,,,,,,,,,,,,,
193,6,Memory,3,,,,,,,sunasbbntuiheekqyaq.jpg,,,,,,,,,,,,,,,
194,6,Memory,3,,,,,,,00194940128fb.jpg,,,,,,,,,,,,,,,
195,6,Memory,3,,,,,,,00776941205fa.jpg,,,,,,,,,,,,,,,
196,6,Memory,3,,,,,,,00997960627fa.jpg,,,,,,,,,,,,,,,
197,6,Memory,3,,,,,,,00829940307fa.jpg,,,,,,,,,,,,,,,
198,6,Memory,3,,,,,,,00306940422fa.jpg,,,,,,,,,,,,,,,
199,6,Memory,3,,,,,,,sunadnjjzohjhbohlwq.jpg,,,,,,,,,,,,,,,
200,6,Presentation,4,00963960627fa_sunayaepykrqvenaqqy.jpg,00866940307fa_sunajbwkywmsqkldfml.jpg,,,,,,,<,Place,,,,,1,,,,,,,x
201,6,Presentation,4,00892960530fa_sunalntxqqadigcletd.jpg,00789960620fa_sunagpancjmxqfazssf.jpg,,,,,,,<,Face,,,,,1,,,,,,,o
202,6,Presentation,4,00270940422fb_sunabllobxadqcyttej.jpg,00089931230fa_sunaagcpoejbuzyvddd.jpg,,,,,,,>,Place,,,,,1,,,,,,,o
203,6,Presentation,4,00154931230fa_sunaauueuhhvklldjik.jpg,00092931230fa_sunaaheqzstzxuadglu.jpg,,,,,,,<,Place,,,,,1,,,,,,,o
204,6,Presentation,4,00988960627fa_sunbmaiocftdtvnzgap.jpg,00761960627fa_sunafgdqbclkwfocdhg.jpg,,,,,,,>,Face,,,,,0,,,,,,,o
205,6,Presentation,4,00125931230fa_sunaalltyvjhbzhkmvg.jpg,00811960530fa_sunahedfrhtcwpneund.jpg,,,,,,,>,Place,,,,,1,,,,,,,o
206,6,Presentation,4,00931960627fa_sunaptrqvaooxfvktvw.jpg,00197940128fa_sunaaylzyqlqrsmfwif.jpg,,,,,,,>,Face,,,,,1,,,,,,,x
207,6,Presentation,4,00771941205fa_sunafowswglhxcsufpo.jpg,00276940422fa_sunabmytpyhsgigllxu.jpg,,,,,,,<,Face,,,,,1,,,,,,,o
208,6,Presentation,4,00967960627fa_sunbaejotfklekvpxcz.jpg,00894960620fa_sunalqmfgeadpqsyzpd.jpg,,,,,,,>,Face,,,,,1,,,,,,,x
209,6,Presentation,4,00271940422fa_sunabmbnddafmywtjjj.jpg,00162931230fb_sunaavjinpnkappuonm.jpg,,,,,,,<,Place,,,,,1,,,,,,,x
210,6,Memory,4,,,,,,,sunasnqkkyhilqkxiqm.jpg,,,,,,,,,,,,,,,
211,6,Memory,4,,,,,,,00720960620fa.jpg,,,,,,,,,,,,,,,
212,6,Memory,4,,,,,,,sunafgdqbclkwfocdhg.jpg,,,,,,,,,,,,,,,
213,6,Memory,4,,,,,,,sunabmbnddafmywtjjj.jpg,,,,,,,,,,,,,,,
214,6,Memory,4,,,,,,,sunaalltyvjhbzhkmvg.jpg,,,,,,,,,,,,,,,
215,6,Memory,4,,,,,,,sunagdzlvkqtpnfxfcg.jpg,,,,,,,,,,,,,,,
216,6,Memory,4,,,,,,,00267940128fb.jpg,,,,,,,,,,,,,,,
217,6,Memory,4,,,,,,,00789960620fa.jpg,,,,,,,,,,,,,,,
218,6,Memory,4,,,,,,,sunabbafjowbzcvbucc.jpg,,,,,,,,,,,,,,,
219,6,Memory,4,,,,,,,sunalqmfgeadpqsyzpd.jpg,,,,,,,,,,,,,,,
220,6,Memory,4,,,,,,,sunabllobxadqcyttej.jpg,,,,,,,,,,,,,,,
221,6,Memory,4,,,,,,,00763941205fa.jpg,,,,,,,,,,,,,,,
222,6,Memory,4,,,,,,,00089931230fa.jpg,,,,,,,,,,,,,,,
223,6,Memory,4,,,,,,,sunakmnfgklupjijsgf.jpg,,,,,,,,,,,,,,,
224,6,Memory,4,,,,,,,sunaauueuhhvklldjik.jpg,,,,,,,,,,,,,,,
225,6,Memory,4,,,,,,,00270940422fb.jpg,,,,,,,,,,,,,,,
226,6,Memory,4,,,,,,,00761960627fa.jpg,,,,,,,,,,,,,,,
227,6,Memory,4,,,,,,,00214940128fa.jpg,,,,,,,,,,,,,,,
228,6,Memory,4,,,,,,,00648941031fa.jpg,,,,,,,,,,,,,,,
229,6,Memory,4,,,,,,,00779941205fa.jpg,,,,,,,,,,,,,,,
230,6,Memory,4,,,,,,,00880960530fa.jpg,,,,,,,,,,,,,,,
231,6,Memory,4,,,,,,,sunafowswglhxcsufpo.jpg,,,,,,,,,,,,,,,
232,6,Memory,4,,,,,,,00154931230fa.jpg,,,,,,,,,,,,,,,
233,6,Memory,4,,,,,,,sunaecpkgfewqqreqwe.jpg,,,,,,,,,,,,,,,
234,6,Memory,4,,,,,,,00125931230fa.jpg,,,,,,,,,,,,,,,
235,6,Memory,4,,,,,,,00271940422fa.jpg,,,,,,,,,,,,,,,
236,6,Memory,4,,,,,,,00092931230fa.jpg,,,,,,,,,,,,,,,
237,6,Memory,4,,,,,,,sunaaheqzstzxuadglu.jpg,,,,,,,,,,,,,,,
238,6,Memory,4,,,,,,,sunafhmnhsdurlvddpw.jpg,,,,,,,,,,,,,,,
239,6,Memory,4,,,,,,,sunadfndyrtqqiasoig.jpg,,,,,,,,,,,,,,,
240,6,Memory,4,,,,,,,sunabrwnslxalcohfre.jpg,,,,,,,,,,,,,,,
241,6,Memory,4,,,,,,,00949960627fb.jpg,,,,,,,,,,,,,,,
242,6,Memory,4,,,,,,,00771941205fa.jpg,,,,,,,,,,,,,,,
243,6,Memory,4,,,,,,,sunaagcpoejbuzyvddd.jpg,,,,,,,,,,,,,,,
244,6,Memory,4,,,,,,,00751960620fa.jpg,,,,,,,,,,,,,,,
245,6,Memory,4,,,,,,,sunaezuszgtxnmsxdbk.jpg,,,,,,,,,,,,,,,
246,6,Memory,4,,,,,,,00894960620fa.jpg,,,,,,,,,,,,,,,
247,6,Memory,4,,,,,,,sunagpancjmxqfazssf.jpg,,,,,,,,,,,,,,,
248,6,Memory,4,,,,,,,00296940422fa.jpg,,,,,,,,,,,,,,,
249,6,Memory,4,,,,,,,sunablfqiwfqomjarht.jpg,,,,,,,,,,,,,,,
250,6,Presentation,5,00827940307fa_sunahtfxgsrmkiulnwk.jpg,00805941205fa_sunagwzdbtlixdhgolm.jpg,,,,,,,<,Place,,,,,1,,,,,,,o
251,6,Presentation,5,00548940519fa_sunacerqowiaeoqkmsq.jpg,00266940128fb_sunabkngeblodihjvbk.jpg,,,,,,,<,Face,,,,,1,,,,,,,o
252,6,Presentation,5,00742941201fa_sunaenwuebvlpdmntju.jpg,00146960620fb_sunaatpeezlljqaxlhj.jpg,,,,,,,>,Face,,,,,1,,,,,,,x
253,6,Presentation,5,00559940519fa_sunacjkmnpawfzbyvae.jpg,00727941205fa_sunaeisnjeetzmkbuad.jpg,,,,,,,<,Face,,,,,1,,,,,,,x
254,6,Presentation,5,00778941205fa_sunagcthdfirrcawoic.jpg,00818940307fa_sunahpblecxtmuzkmxb.jpg,,,,,,,>,Place,,,,,1,,,,,,,o
255,6,Presentation,5,00086931230fa_sunaafynehyrzpsoaml.jpg,00081941031fa_sunaaftlyfudyzuhqzf.jpg,,,,,,,>,Face,,,,,1,,,,,,,o
256,6,Presentation,5,00768941205fa_sunafkmnlytenlsywia.jpg,00540940519fa_sunacdnquypmsshhsbk.jpg,,,,,,,<,Place,,,,,1,,,,,,,o
257,6,Presentation,5,00777941205fa_sunagcinxkccdtrjmlv.jpg,00571940928fa_sunacuatpqpqhyjhjqk.jpg,,,,,,,>,Place,,,,,1,,,,,,,x
258,6,Presentation,5,00953960627fa_sunatstrpjxhvtbaczf.jpg,00915960620fa_sunapileznnbbmrwoei.jpg,,,,,,,<,Face,,,,,1,,,,,,,x
259,6,Presentation,5,00754941201fa_sunaffgsyyvoqdlkmnk.jpg,00746941201fa_sunaetydippjxikifsb.jpg,,,,,,,>,Place,,,,,1,,,,,,,o
260,6,Memory,5,,,,,,,00953960627fa.jpg,,,,,,,,,,,,,,,
261,6,Memory,5,,,,,,,sunaqsolmfydodnakub.jpg,,,,,,,,,,,,,,,
262,6,Memory,5,,,,,,,sunaatpeezlljqaxlhj.jpg,,,,,,,,,,,,,,,
263,6,Memory,5,,,,,,,00142931230fb.jpg,,,,,,,,,,,,,,,
264,6,Memory,5,,,,,,,00805941205fa.jpg,,,,,,,,,,,,,,,
265,6,Memory,5,,,,,,,00208940128fa.jpg,,,,,,,,,,,,,,,
266,6,Memory,5,,,,,,,00548940519fa.jpg,,,,,,,,,,,,,,,
267,6,Memory,5,,,,,,,00146960620fb.jpg,,,,,,,,,,,,,,,
268,6,Memory,5,,,,,,,00266940128fb.jpg,,,,,,,,,,,,,,,
269,6,Memory,5,,,,,,,00969960627fa.jpg,,,,,,,,,,,,,,,
270,6,Memory,5,,,,,,,00905960530fa.jpg,,,,,,,,,,,,,,,
271,6,Memory,5,,,,,,,sunaafynehyrzpsoaml.jpg,,,,,,,,,,,,,,,
272,6,Memory,5,,,,,,,00122931230fa.jpg,,,,,,,,,,,,,,,
273,6,Memory,5,,,,,,,sunabkngeblodihjvbk.jpg,,,,,,,,,,,,,,,
274,6,Memory,5,,,,,,,00540940519fa.jpg,,,,,,,,,,,,,,,
275,6,Memory,5,,,,,,,sunahtfxgsrmkiulnwk.jpg,,,,,,,,,,,,,,,
276,6,Memory,5,,,,,,,00787960620fa.jpg,,,,,,,,,,,,,,,
277,6,Memory,5,,,,,,,sunarpsxqkduedrrzyi.jpg,,,,,,,,,,,,,,,
278,6,Memory,5,,,,,,,sunacdnquypmsshhsbk.jpg,,,,,,,,,,,,,,,
279,6,Memory,5,,,,,,,00571940928fa.jpg,,,,,,,,,,,,,,,
280,6,Memory,5,,,,,,,sunacuatpqpqhyjhjqk.jpg,,,,,,,,,,,,,,,
281,6,Memory,5,,,,,,,00937960627fa.jpg,,,,,,,,,,,,,,,
282,6,Memory,5,,,,,,,sunanmoqeyprjjjfxjt.jpg,,,,,,,,,,,,,,,
283,6,Memory,5,,,,,,,sunahrltmuwbiehihpe.jpg,,,,,,,,,,,,,,,
284,6,Memory,5,,,,,,,sunbaoizrfijvhpnnjn.jpg,,,,,,,,,,,,,,,
285,6,Memory,5,,,,,,,sunagwzdbtlixdhgolm.jpg,,,,,,,,,,,,,,,
286,6,Memory,5,,,,,,,sunatstrpjxhvtbaczf.jpg,,,,,,,,,,,,,,,
287,6,Memory,5,,,,,,,00086931230fa.jpg,,,,,,,,,,,,,,,
288,6,Memory,5,,,,,,,sunaapxkpvrhpjplsok.jpg,,,,,,,,,,,,,,,
289,6,Memory,5,,,,,,,00827940307fa.jpg,,,,,,,,,,,,,,,
290,6,Memory,5,,,,,,,00559940519fa.jpg,,,,,,,,,,,,,,,
291,6,Memory,5,,,,,,,00943960627fa.jpg,,,,,,,,,,,,,,,
292,6,Memory,5,,,,,,,sunaakxjfbrrequcjmx.jpg,,,,,,,,,,,,,,,
293,6,Memory,5,,,,,,,sunaakmxzhuceuiryah.jpg,,,,,,,,,,,,,,,
294,6,Memory,5,,,,,,,sunagoufulkpsxrmklt.jpg,,,,,,,,,,,,,,,
295,6,Memory,5,,,,,,,sunacjkmnpawfzbyvae.jpg,,,,,,,,,,,,,,,
296,6,Memory,5,,,,,,,00825940307fa.jpg,,,,,,,,,,,,,,,
297,6,Memory,5,,,,,,,sunaazzyhbvqjpmazjq.jpg,,,,,,,,,,,,,,,
298,6,Memory,5,,,,,,,00115931230fa.jpg,,,,,,,,,,,,,,,
299,6,Memory,5,,,,,,,sunacerqowiaeoqkmsq.jpg,,,,,,,,,,,,,,,
300,6,Presentation,6,00264940128fb_sunabjzyxcjnmztdonj.jpg,00245940128fa_sunabeyhmxodahoieyk.jpg,,,,,,,<,Place,,,,,1,,,,,,,x
301,6,Presentation,6,01207940128fa_sundbixjudsgeuuehrn.jpg,00812941205fa_sunahgtbwgsmtqeodwh.jpg,,,,,,,>,Face,,,,,1,,,,,,,x
302,6,Presentation,6,00609940928fa_sunacycdoztxoluxjyk.jpg,00942960627fa_sunarfdklgdnjgeqfjg.jpg,,,,,,,<,Place,,,,,1,,,,,,,o
303,6,Presentation,6,00576941031fa_sunacvjlsylseoghjup.jpg,01005960627fa_sunbwyuesflwdpqtgoy.jpg,,,,,,,>,Face,,,,,0,,,,,,,x
304,6,Presentation,6,00120931230fa_sunaakxgygjfqrzpyoz.jpg,00878960530fa_sunakgbnzxmfohgehnu.jpg,,,,,,,>,Place,,,,,1,,,,,,,o
305,6,Presentation,6,00080931230fb_sunaafjszryxyavjzln.jpg,01010960627fa_suncnkvbhypnivcohyx.jpg,,,,,,,<,Face,,,,,1,,,,,,,o
306,6,Presentation,6,00762941201fa_sunafgzgbisbopcyslr.jpg,00598941031fa_sunacxtcahkymosigud.jpg,,,,,,,>,Place,,,,,1,,,,,,,x
307,6,Presentation,6,00847940307fa_sunaivdjruhkrfywfed.jpg,01002960627fb_sunbwaafjdebjzttuvq.jpg,,,,,,,<,Face,,,,,1,,,,,,,x
308,6,Presentation,6,00239940128fa_sunabctlikybqabezjv.jpg,00938960627fa_sunaqyylsngywqzwfmx.jpg,,,,,,,>,Face,,,,,1,,,,,,,x
309,6,Presentation,6,00982960627fa_sunbesrwkdsffeogeqq.jpg,00859940307fa_sunaiycurtqsfkvcaso.jpg,,,,,,,<,Place,,,,,0,,,,,,,o
310,6,Memory,6,,,,,,,00859940307fa.jpg,,,,,,,,,,,,,,,
311,6,Memory,6,,,,,,,00851940307fa.jpg,,,,,,,,,,,,,,,
312,6,Memory,6,,,,,,,00982960627fa.jpg,,,,,,,,,,,,,,,
313,6,Memory,6,,,,,,,00239940128fa.jpg,,,,,,,,,,,,,,,
314,6,Memory,6,,,,,,,sunacycdoztxoluxjyk.jpg,,,,,,,,,,,,,,,
315,6,Memory,6,,,,,,,00847940307fa.jpg,,,,,,,,,,,,,,,
316,6,Memory,6,,,,,,,sunabxsbfwjccqxxzxq.jpg,,,,,,,,,,,,,,,
317,6,Memory,6,,,,,,,00791941205fa.jpg,,,,,,,,,,,,,,,
318,6,Memory,6,,,,,,,sunagrmyoovzukhxmlo.jpg,,,,,,,,,,,,,,,
319,6,Memory,6,,,,,,,sunaivdjruhkrfywfed.jpg,,,,,,,,,,,,,,,
320,6,Memory,6,,,,,,,00479940519fa.jpg,,,,,,,,,,,,,,,
321,6,Memory,6,,,,,,,00884960530fa.jpg,,,,,,,,,,,,,,,
322,6,Memory,6,,,,,,,sunafgzgbisbopcyslr.jpg,,,,,,,,,,,,,,,
323,6,Memory,6,,,,,,,sunbwaafjdebjzttuvq.jpg,,,,,,,,,,,,,,,
324,6,Memory,6,,,,,,,sunabxsuqbleluwczoy.jpg,,,,,,,,,,,,,,,
325,6,Memory,6,,,,,,,sunaygrtwrwfezqjizr.jpg,,,,,,,,,,,,,,,
326,6,Memory,6,,,,,,,sunakodkcslgqhqlgwl.jpg,,,,,,,,,,,,,,,
327,6,Memory,6,,,,,,,00822940307fa.jpg,,,,,,,,,,,,,,,
328,6,Memory,6,,,,,,,sunabeyhmxodahoieyk.jpg,,,,,,,,,,,,,,,
329,6,Memory,6,,,,,,,00481940519fa.jpg,,,,,,,,,,,,,,,
330,6,Memory,6,,,,,,,sunahgtbwgsmtqeodwh.jpg,,,,,,,,,,,,,,,
331,6,Memory,6,,,,,,,01002960627fb.jpg,,,,,,,,,,,,,,,
332,6,Memory,6,,,,,,,sunbbegcweqnetpdlrh.jpg,,,,,,,,,,,,,,,
333,6,Memory,6,,,,,,,00245940128fa.jpg,,,,,,,,,,,,,,,
334,6,Memory,6,,,,,,,sunahqrxievfeusiqlt.jpg,,,,,,,,,,,,,,,
335,6,Memory,6,,,,,,,01005960627fa.jpg,,,,,,,,,,,,,,,
336,6,Memory,6,,,,,,,sunbwyuesflwdpqtgoy.jpg,,,,,,,,,,,,,,,
337,6,Memory,6,,,,,,,00762941201fa.jpg,,,,,,,,,,,,,,,
338,6,Memory,6,,,,,,,00794960620fa.jpg,,,,,,,,,,,,,,,
339,6,Memory,6,,,,,,,00971960627fa.jpg,,,,,,,,,,,,,,,
340,6,Memory,6,,,,,,,sunabctlikybqabezjv.jpg,,,,,,,,,,,,,,,
341,6,Memory,6,,,,,,,00966960627fa.jpg,,,,,,,,,,,,,,,
342,6,Memory,6,,,,,,,00609940928fa.jpg,,,,,,,,,,,,,,,
343,6,Memory,6,,,,,,,sunbesrwkdsffeogeqq.jpg,,,,,,,,,,,,,,,
344,6,Memory,6,,,,,,,00077931230fb.jpg,,,,,,,,,,,,,,,
345,6,Memory,6,,,,,,,sunagtqhhwxjeuxdebe.jpg,,,,,,,,,,,,,,,
346,6,Memory,6,,,,,,,sunaiycurtqsfkvcaso.jpg,,,,,,,,,,,,,,,
347,6,Memory,6,,,,,,,sunaivflshbyfrfzhqb.jpg,,,,,,,,,,,,,,,
348,6,Memory,6,,,,,,,00812941205fa.jpg,,,,,,,,,,,,,,,
349,6,Memory,6,,,,,,,sunaafgqutfaishsxyu.jpg,,,,,,,,,,,,,,,
350,6,Presentation,7,00986960627fa_sunbgzjryivyczuvkvm.jpg,00265940128fb_sunabkmdplkdbvxriff.jpg,,,,,,,<,Place,,,,,1,,,,,,,o
351,6,Presentation,7,00996960627fa_sunbpvgllfdejxcpjqp.jpg,00857940307fa_sunaiwfobocrruqznsv.jpg,,,,,,,<,Face,,,,,1,,,,,,,x
352,6,Presentation,7,00864940307fa_sunajawzbrlrwafowen.jpg,00908960530fa_sunanwjjyqqwzqrqagd.jpg,,,,,,,>,Face,,,,,1,,,,,,,x
353,6,Presentation,7,00119931230fb_sunaakvmbftkrgqhjun.jpg,00809960620fa_sunahbvlpavurqoxdeq.jpg,,,,,,,<,Face,,,,,1,,,,,,,x
354,6,Presentation,7,00819940307fa_sunahqldjibofgsfdgb.jpg,00922960627fa_sunapqkyghktgtosuuk.jpg,,,,,,,>,Place,,,,,1,,,,,,,x
355,6,Presentation,7,00972960627fa_sunbbfqwjpdxniyhies.jpg,00140931230fb_sunaapllqyqlykszopd.jpg,,,,,,,>,Face,,,,,1,,,,,,,x
356,6,Presentation,7,00913960530fa_sunaooffzffbhcpirmm.jpg,00305940422fa_sunabtrnbvpppgczjim.jpg,,,,,,,<,Place,,,,,0,,,,,,,o
357,6,Presentation,7,00108960530fa_sunaajtnvzzpsjdzres.jpg,00630941031fa_sunadakkdovnuzlycvp.jpg,,,,,,,>,Place,,,,,1,,,,,,,o
358,6,Presentation,7,00774941201fa_sunafvtpfczkzopbgue.jpg,00096931230fa_sunaaiqiqcggrskoqgy.jpg,,,,,,,>,Face,,,,,1,,,,,,,o
359,6,Presentation,7,00116931230fa_sunaakqepfoeqomfgxf.jpg,00581940928fa_sunacvzhvcksnwqcqbw.jpg,,,,,,,<,Place,,,,,1,,,,,,,x
360,6,Memory,7,,,,,,,00630941031fa.jpg,,,,,,,,,,,,,,,
361,6,Memory,7,,,,,,,sunabyfxcxhdebvdyfd.jpg,,,,,,,,,,,,,,,
362,6,Memory,7,,,,,,,sunaajtnvzzpsjdzres.jpg,,,,,,,,,,,,,,,
363,6,Memory,7,,,,,,,sunaooffzffbhcpirmm.jpg,,,,,,,,,,,,,,,
364,6,Memory,7,,,,,,,00835940307fa.jpg,,,,,,,,,,,,,,,
365,6,Memory,7,,,,,,,00860940307fa.jpg,,,,,,,,,,,,,,,
366,6,Memory,7,,,,,,,sunadakkdovnuzlycvp.jpg,,,,,,,,,,,,,,,
367,6,Memory,7,,,,,,,sunacvzhvcksnwqcqbw.jpg,,,,,,,,,,,,,,,
368,6,Memory,7,,,,,,,00581940928fa.jpg,,,,,,,,,,,,,,,
369,6,Memory,7,,,,,,,sunaijsqpvodplbwxkf.jpg,,,,,,,,,,,,,,,
370,6,Memory,7,,,,,,,sunaajuzribjrizdshh.jpg,,,,,,,,,,,,,,,
371,6,Memory,7,,,,,,,00119931230fb.jpg,,,,,,,,,,,,,,,
372,6,Memory,7,,,,,,,sunaeomlfaabhpswasy.jpg,,,,,,,,,,,,,,,
373,6,Memory,7,,,,,,,sunanwjjyqqwzqrqagd.jpg,,,,,,,,,,,,,,,
374,6,Memory,7,,,,,,,sunadpnqovzckyikrjo.jpg,,,,,,,,,,,,,,,
375,6,Memory,7,,,,,,,sunaapllqyqlykszopd.jpg,,,,,,,,,,,,,,,
376,6,Memory,7,,,,,,,00108960530fa.jpg,,,,,,,,,,,,,,,
377,6,Memory,7,,,,,,,00109931230fa.jpg,,,,,,,,,,,,,,,
378,6,Memory,7,,,,,,,00744941201fa.jpg,,,,,,,,,,,,,,,
379,6,Memory,7,,,,,,,00972960627fa.jpg,,,,,,,,,,,,,,,
380,6,Memory,7,,,,,,,00895960530fa.jpg,,,,,,,,,,,,,,,
381,6,Memory,7,,,,,,,00913960530fa.jpg,,,,,,,,,,,,,,,
382,6,Memory,7,,,,,,,00676941121fa.jpg,,,,,,,,,,,,,,,
383,6,Memory,7,,,,,,,sunagvjurcwdbixvnyi.jpg,,,,,,,,,,,,,,,
384,6,Memory,7,,,,,,,sunbbfqwjpdxniyhies.jpg,,,,,,,,,,,,,,,
385,6,Memory,7,,,,,,,sunaizeyhvjzknwjudw.jpg,,,,,,,,,,,,,,,
386,6,Memory,7,,,,,,,sunaakvmbftkrgqhjun.jpg,,,,,,,,,,,,,,,
387,6,Memory,7,,,,,,,00140931230fb.jpg,,,,,,,,,,,,,,,
388,6,Memory,7,,,,,,,00096931230fa.jpg,,,,,,,,,,,,,,,
389,6,Memory,7,,,,,,,00800941205fb.jpg,,,,,,,,,,,,,,,
390,6,Memory,7,,,,,,,00482940519fa.jpg,,,,,,,,,,,,,,,
391,6,Memory,7,,,,,,,00760960620fa.jpg,,,,,,,,,,,,,,,
392,6,Memory,7,,,,,,,00986960627fa.jpg,,,,,,,,,,,,,,,
393,6,Memory,7,,,,,,,00562941031fa.jpg,,,,,,,,,,,,,,,
394,6,Memory,7,,,,,,,sunamczizlzavhzhpay.jpg,,,,,,,,,,,,,,,
395,6,Memory,7,,,,,,,00908960530fa.jpg,,,,,,,,,,,,,,,
396,6,Memory,7,,,,,,,sunaaiqiqcggrskoqgy.jpg,,,,,,,,,,,,,,,
397,6,Memory,7,,,,,,,sunaffstbkappprzxnv.jpg,,,,,,,,,,,,,,,
398,6,Memory,7,,,,,,,sunbgzjryivyczuvkvm.jpg,,,,,,,,,,,,,,,
399,6,Memory,7,,,,,,,sunacjnahdmqfnjfwqx.jpg,,,,,,,,,,,,,,,
