,Subject,Trial Type,Run,Cued Composite,Uncued Composite,Cued Face,Cued Place,Uncued Face,Uncued Place,Memory Image,Category,Cued Side,Cued Category,Attention Reaction Time (s),Familiarity Reaction Time (s),Familiarity Rating,Attention Level,Cue Validity,Post Invalid Cue,Pre Invalid Cue,Attention Button,Rating History,Stimulus Onset,Stimulus End,Attention Probe
110,10,Memory,2,,,,,,,sunabizydfotqddlnjp.jpg,,,,,2.07,1.0,,,,,,,1538592179.292875,1538592181.342799,
111,10,Memory,2,,,,,,,00990960627fa.jpg,,,,,1.587,1.0,,,,,,,1538592182.592907,1538592184.577839,
112,10,Memory,2,,,,,,,00784941205fb.jpg,,,,,1.935,3.0,,,,,,,1538592185.827833,1538592187.811268,
113,10,Memory,2,,,,,,,sunaatpkocdkocwxpkb.jpg,,,,,1.82,1.0,,,,,,,1538592189.063222,1538592191.046485,
114,10,Memory,2,,,,,,,00970960627fa.jpg,,,,,1.353,4.0,,,,,,,1538592192.296377,1538592194.280533,
115,10,Memory,2,,,,,,,sunaqyylsngywqzwfmx.jpg,,,,,1.419,1.0,,,,,,,1538592195.531369,1538592197.514574,
116,10,Memory,2,,,,,,,sunagfvluwixdsozaql.jpg,,,,,1.387,1.0,,,,,,,1538592198.764961,1538592200.748887,
117,10,Memory,2,,,,,,,sunbpflsdaxnddnwcqi.jpg,,,,,0.0,,,,,,,,1538592202.015973,1538592204.000895,
118,10,Memory,2,,,,,,,sunaecpkgfewqqreqwe.jpg,,,,,1.27,1.0,,,,,,,1538592205.268082,1538592207.251124,
119,10,Memory,2,,,,,,,sunahwgbqkqcrwprgvh.jpg,,,,,1.037,1.0,,,,,,,1538592208.51721,1538592210.502559,
120,10,Memory,2,,,,,,,sunaakxgygjfqrzpyoz.jpg,,,,,1.286,3.0,,,,,,,1538592211.753243,1538592213.73642,
121,10,Memory,2,,,,,,,sunathzzbcwjykldrem.jpg,,,,,1.037,3.0,,,,,,,1538592214.987421,1538592216.970772,
122,10,Memory,2,,,,,,,00829940307fa.jpg,,,,,0.0,,,,,,,,1538592218.221468,1538592220.204991,
123,10,Memory,2,,,,,,,00185940422fb.jpg,,,,,0.0,,,,,,,,1538592221.471962,1538592223.456003,
124,10,Memory,2,,,,,,,00262940128fa.jpg,,,,,1.002,4.0,,,,,,,1538592225.03998,1538592227.024128,
125,10,Memory,2,,,,,,,00147931230fb.jpg,,,,,0.903,3.0,,,,,,,1538592228.274426,1538592230.259256,
126,10,Memory,2,,,,,,,00938960627fa.jpg,,,,,1.12,1.0,,,,,,,1538592231.508667,1538592233.492818,
127,10,Memory,2,,,,,,,sunacvjlsylseoghjup.jpg,,,,,0.769,1.0,,,,,,,1538592234.74388,1538592236.726656,
128,10,Memory,2,,,,,,,00720960620fa.jpg,,,,,1.338,4.0,,,,,,,1538592237.976818,1538592239.961738,
129,10,Memory,2,,,,,,,sunagjzcrjvmxzqzljx.jpg,,,,,0.785,3.0,,,,,,,1538592241.229027,1538592243.212925,
130,10,Memory,2,,,,,,,sunbaoizrfijvhpnnjn.jpg,,,,,0.921,1.0,,,,,,,1538592244.464083,1538592246.446984,
131,10,Memory,2,,,,,,,sunbasypfgzjtomktmu.jpg,,,,,1.421,2.0,,,,,,,1538592247.697239,1538592249.681561,
132,10,Memory,2,,,,,,,sunaivdylrawbmhryfp.jpg,,,,,0.686,1.0,,,,,,,1538592251.065327,1538592253.048389,
133,10,Memory,2,,,,,,,sunagpjzsbltchlwvou.jpg,,,,,1.153,3.0,,,,,,,1538592254.300591,1538592256.283809,
134,10,Memory,2,,,,,,,sunaajayojuslbbnneg.jpg,,,,,0.669,1.0,,,,,,,1538592257.550589,1538592259.535077,
135,10,Memory,2,,,,,,,00097931230fa.jpg,,,,,0.854,3.0,,,,,,,1538592260.785924,1538592262.76822,
136,10,Memory,2,,,,,,,00816941205fa.jpg,,,,,1.137,1.0,,,,,,,1538592264.153225,1538592266.136299,
137,10,Memory,2,,,,,,,sunahmhrncocyhsjpxk.jpg,,,,,1.119,1.0,,,,,,,1538592267.403305,1538592269.388358,
138,10,Memory,2,,,,,,,sunabanoxjtqxamkucc.jpg,,,,,1.52,1.0,,,,,,,1538592270.638708,1538592272.622445,
139,10,Memory,2,,,,,,,sunaawqdbpihmlbwyyn.jpg,,,,,0.621,1.0,,,,,,,1538592273.872659,1538592275.857541,
140,10,Memory,2,,,,,,,00782941205fa.jpg,,,,,0.887,3.0,,,,,,,1538592277.107001,1538592279.091622,
141,10,Memory,2,,,,,,,sunabyfxcxhdebvdyfd.jpg,,,,,0.837,1.0,,,,,,,1538592280.341225,1538592282.325124,
142,10,Memory,2,,,,,,,00848940307fa.jpg,,,,,0.887,3.0,,,,,,,1538592283.592074,1538592285.576286,
143,10,Memory,2,,,,,,,00482940519fa.jpg,,,,,1.103,3.0,,,,,,,1538592286.827136,1538592288.809421,
144,10,Memory,2,,,,,,,00576941031fa.jpg,,,,,0.836,4.0,,,,,,,1538592290.061413,1538592292.044513,
145,10,Memory,2,,,,,,,00969960627fa.jpg,,,,,0.954,4.0,,,,,,,1538592293.394906,1538592295.379632,
146,10,Memory,2,,,,,,,00952960627fa.jpg,,,,,1.421,1.0,,,,,,,1538592296.645936,1538592298.629975,
147,10,Memory,2,,,,,,,00790941205fa.jpg,,,,,1.22,1.0,,,,,,,1538592299.998101,1538592301.981103,
148,10,Memory,2,,,,,,,00120931230fa.jpg,,,,,0.938,1.0,,,,,,,1538592303.247977,1538592305.23326,
149,10,Memory,2,,,,,,,00210940128fb.jpg,,,,,0.903,3.0,,,,,,,1538592306.48338,1538592308.467303,
