,Subject,Trial Type,Run,Cued Composite,Uncued Composite,Cued Face,Cued Place,Uncued Face,Uncued Place,Memory Image,Category,Cued Side,Cued Category,Attention Reaction Time (s),Familiarity Reaction Time (s),Familiarity Rating,Attention Level,Cue Validity,Post Invalid Cue,Pre Invalid Cue,Attention Button,Rating History,Stimulus Onset,Stimulus End,Attention Probe
310,25,Memory,6,,,,,,,sunadtlxenqqxsyjvix.jpg,,,,,1.528,2.0,,,,,,,1555440710.100894,1555440712.582166,
311,25,Memory,6,,,,,,,00112931230fa.jpg,,,,,2.294,2.0,,,,,,,1555440713.819152,1555440716.521773,
312,25,Memory,6,,,,,,,sunacjkmnpawfzbyvae.jpg,,,,,0.858,2.0,,,,,,,1555440717.786591,1555440720.267566,
313,25,Memory,6,,,,,,,sunalqmfgeadpqsyzpd.jpg,,,,,1.225,2.0,,,,,,,1555440721.505576,1555440724.08752,
314,25,Memory,6,,,,,,,00290940422fa.jpg,,,,,1.477,3.0,,,,,,,1555440725.338896,1555440727.908423,
315,25,Memory,6,,,,,,,sunamczizlzavhzhpay.jpg,,,,,1.124,4.0,,,,,,,1555440729.158052,1555440731.689984,
316,25,Memory,6,,,,,,,00242940128fa.jpg,,,,,1.808,2.0,,,,,,,1555440732.925443,1555440735.640162,
317,25,Memory,6,,,,,,,sunbaejotfklekvpxcz.jpg,,,,,0.926,2.0,,,,,,,1555440736.894633,1555440739.36024,
318,25,Memory,6,,,,,,,sunachtuarilwyqnvjx.jpg,,,,,0.943,2.0,,,,,,,1555440740.595665,1555440743.22414,
319,25,Memory,6,,,,,,,sunajrujcsdxmfbssmc.jpg,,,,,1.362,2.0,,,,,,,1555440744.462882,1555440746.942454,
320,25,Memory,6,,,,,,,00871940307.jpg,,,,,3.017,2.0,,,,,,,1555440748.198081,1555440751.361084,
321,25,Memory,6,,,,,,,sunbasypfgzjtomktmu.jpg,,,,,1.626,3.0,,,,,,,1555440752.598425,1555440755.201142,
322,25,Memory,6,,,,,,,sunabqowuarvqqcnipn.jpg,,,,,1.759,2.0,,,,,,,1555440756.466906,1555440759.420151,
323,25,Memory,6,,,,,,,sunaaheqzstzxuadglu.jpg,,,,,1.926,2.0,,,,,,,1555440760.668665,1555440763.535912,
324,25,Memory,6,,,,,,,00507940519fa.jpg,,,,,1.227,2.0,,,,,,,1555440764.769004,1555440767.253786,
325,25,Memory,6,,,,,,,00089931230fa.jpg,,,,,1.025,4.0,,,,,,,1555440768.57123,1555440770.988119,
326,25,Memory,6,,,,,,,00967960627fa.jpg,,,,,1.109,2.0,,,,,,,1555440772.388431,1555440774.818517,
327,25,Memory,6,,,,,,,00705941205fa.jpg,,,,,1.692,3.0,,,,,,,1555440776.056993,1555440778.770152,
328,25,Memory,6,,,,,,,sunadzuvtmtmgupotmf.jpg,,,,,0.577,2.0,,,,,,,1555440780.023853,1555440782.191433,
329,25,Memory,6,,,,,,,00970960627fa.jpg,,,,,1.76,3.0,,,,,,,1555440783.426142,1555440786.159396,
330,25,Memory,6,,,,,,,00749941201fa.jpg,,,,,1.125,2.0,,,,,,,1555440787.410595,1555440789.840098,
331,25,Memory,6,,,,,,,sunabcuurugvxwparpk.jpg,,,,,1.859,2.0,,,,,,,1555440791.09556,1555440793.944368,
332,25,Memory,6,,,,,,,00906960530fa.jpg,,,,,0.992,2.0,,,,,,,1555440795.196134,1555440797.525923,
333,25,Memory,6,,,,,,,sunacacflqoyxhsqzhe.jpg,,,,,0.959,2.0,,,,,,,1555440798.780814,1555440801.561676,
334,25,Memory,6,,,,,,,sunaagcpoejbuzyvddd.jpg,,,,,1.526,4.0,,,,,,,1555440802.799208,1555440805.464432,
335,25,Memory,6,,,,,,,sunabeyhmxodahoieyk.jpg,,,,,1.742,2.0,,,,,,,1555440806.733728,1555440809.429747,
336,25,Memory,6,,,,,,,00554940519fa.jpg,,,,,1.143,2.0,,,,,,,1555440810.667689,1555440813.148003,
337,25,Memory,6,,,,,,,sunabaergayifsgacxt.jpg,,,,,1.443,2.0,,,,,,,1555440814.402878,1555440816.915178,
338,25,Memory,6,,,,,,,sunaeuvjbmdpknaqqaj.jpg,,,,,2.176,2.0,,,,,,,1555440818.170092,1555440821.084,
339,25,Memory,6,,,,,,,00092931230fa.jpg,,,,,1.694,2.0,,,,,,,1555440822.354291,1555440825.505464,
340,25,Memory,6,,,,,,,00209940128fb.jpg,,,,,1.676,2.0,,,,,,,1555440826.773011,1555440829.602729,
341,25,Memory,6,,,,,,,00557940519fa.jpg,,,,,1.56,2.0,,,,,,,1555440830.874945,1555440833.454046,
342,25,Memory,6,,,,,,,00894960620fa.jpg,,,,,0.96,1.0,,,,,,,1555440834.724978,1555440837.13929,
343,25,Memory,6,,,,,,,00559940519fa.jpg,,,,,1.46,1.0,,,,,,,1555440838.37635,1555440840.973177,
344,25,Memory,6,,,,,,,00895960530fa.jpg,,,,,2.559,2.0,,,,,,,1555440842.211096,1555440845.330787,
345,25,Memory,6,,,,,,,00245940128fa.jpg,,,,,1.56,2.0,,,,,,,1555440846.579745,1555440849.425442,
346,25,Memory,6,,,,,,,sunantryfbloeaomfta.jpg,,,,,1.011,2.0,,,,,,,1555440850.663579,1555440853.177495,
347,25,Memory,6,,,,,,,00719960620fa.jpg,,,,,1.26,2.0,,,,,,,1555440854.432331,1555440857.011852,
348,25,Memory,6,,,,,,,sunaakjaacuzulqckgl.jpg,,,,,1.659,2.0,,,,,,,1555440858.266867,1555440861.101498,
349,25,Memory,6,,,,,,,sunacfdkbsrughwqwtt.jpg,,,,,1.46,2.0,,,,,,,1555440862.36859,1555440864.967498,
