,Subject,Trial Type,Run,Cued Composite,Uncued Composite,Cued Face,Cued Place,Uncued Face,Uncued Place,Memory Image,Category,Cued Side,Cued Category,Attention Reaction Time (s),Familiarity Reaction Time (s),Familiarity Rating,Attention Level,Cue Validity,Post Invalid Cue,Pre Invalid Cue,Attention Button,Rating History,Stimulus Onset,Stimulus End,Attention Probe
360,0,Memory,7,,,,,,,sunaijsqpvodplbwxkf.jpg,,,,,1.524,4.0,,,,,,,1550772653.156048,1550772655.207073,
361,0,Memory,7,,,,,,,00120931230fa.jpg,,,,,0.754,1.0,,,,,,,1550772656.474212,1550772658.457128,
362,0,Memory,7,,,,,,,00967960627fa.jpg,,,,,0.887,2.0,,,,,,,1550772659.724445,1550772661.709439,
363,0,Memory,7,,,,,,,00835940307fa.jpg,,,,,0.919,1.0,,,,,,,1550772662.975632,1550772664.959707,
364,0,Memory,7,,,,,,,00743941201fa.jpg,,,,,0.92,1.0,,,,,,,1550772666.210588,1550772668.261029,
365,0,Memory,7,,,,,,,sunaeoghzrjarigmwua.jpg,,,,,1.155,2.0,,,,,,,1550772669.511008,1550772671.495999,
366,0,Memory,7,,,,,,,sunbbegcweqnetpdlrh.jpg,,,,,0.788,2.0,,,,,,,1550772672.745263,1550772674.729399,
367,0,Memory,7,,,,,,,00598940928fa.jpg,,,,,0.853,3.0,,,,,,,1550772675.980321,1550772677.96345,
368,0,Memory,7,,,,,,,suncnkvbhypnivcohyx.jpg,,,,,1.805,3.0,,,,,,,1550772679.347723,1550772681.332425,
369,0,Memory,7,,,,,,,sunabrlndkruqokhury.jpg,,,,,0.92,2.0,,,,,,,1550772682.598599,1550772684.581927,
370,0,Memory,7,,,,,,,00540940519fa.jpg,,,,,1.536,2.0,,,,,,,1550772685.96714,1550772687.950154,
371,0,Memory,7,,,,,,,00882960530fa.jpg,,,,,0.753,1.0,,,,,,,1550772689.217248,1550772691.202957,
372,0,Memory,7,,,,,,,sunaecpkgfewqqreqwe.jpg,,,,,0.669,4.0,,,,,,,1550772692.469332,1550772694.452142,
373,0,Memory,7,,,,,,,00266940128fb.jpg,,,,,0.0,,,,,,,,1550772695.703447,1550772697.687512,
374,0,Memory,7,,,,,,,sunapqkyghktgtosuuk.jpg,,,,,1.087,1.0,,,,,,,1550772698.937375,1550772700.921663,
375,0,Memory,7,,,,,,,sunacxeheuiigkcgquf.jpg,,,,,1.136,4.0,,,,,,,1550772702.171921,1550772704.155018,
376,0,Memory,7,,,,,,,sunaatpkocdkocwxpkb.jpg,,,,,0.802,1.0,,,,,,,1550772705.524082,1550772707.507165,
377,0,Memory,7,,,,,,,00971960627fa.jpg,,,,,1.738,3.0,,,,,,,1550772708.757429,1550772710.742241,
378,0,Memory,7,,,,,,,00650941031fa.jpg,,,,,0.986,4.0,,,,,,,1550772712.075514,1550772714.058409,
379,0,Memory,7,,,,,,,00972960627fa.jpg,,,,,0.702,1.0,,,,,,,1550772715.410567,1550772717.393539,
380,0,Memory,7,,,,,,,sunaezuszgtxnmsxdbk.jpg,,,,,1.437,4.0,,,,,,,1550772718.726691,1550772720.711943,
381,0,Memory,7,,,,,,,00878960530fa.jpg,,,,,0.918,1.0,,,,,,,1550772721.978951,1550772723.961168,
382,0,Memory,7,,,,,,,00147931230fb.jpg,,,,,0.87,1.0,,,,,,,1550772725.313934,1550772727.297004,
383,0,Memory,7,,,,,,,01002960627fb.jpg,,,,,1.103,1.0,,,,,,,1550772728.547256,1550772730.532443,
384,0,Memory,7,,,,,,,sunaakxgygjfqrzpyoz.jpg,,,,,1.986,1.0,,,,,,,1550772731.899211,1550772733.881601,
385,0,Memory,7,,,,,,,00720960620fa.jpg,,,,,1.269,4.0,,,,,,,1550772735.15051,1550772737.133527,
386,0,Memory,7,,,,,,,sunbaejotfklekvpxcz.jpg,,,,,1.003,4.0,,,,,,,1550772738.383926,1550772740.3681,
387,0,Memory,7,,,,,,,00891960530fa.jpg,,,,,0.936,1.0,,,,,,,1550772741.718077,1550772743.701245,
388,0,Memory,7,,,,,,,sunacdnquypmsshhsbk.jpg,,,,,1.655,4.0,,,,,,,1550772744.952197,1550772746.936581,
389,0,Memory,7,,,,,,,sunaknlirqjqiwbbeeg.jpg,,,,,0.787,1.0,,,,,,,1550772748.204197,1550772750.271676,
390,0,Memory,7,,,,,,,sunakgbnzxmfohgehnu.jpg,,,,,1.02,1.0,,,,,,,1550772751.521777,1550772753.505551,
391,0,Memory,7,,,,,,,sunadikxpvqeabxrvvc.jpg,,,,,1.321,4.0,,,,,,,1550772754.771817,1550772756.756712,
392,0,Memory,7,,,,,,,00922960627fa.jpg,,,,,0.819,1.0,,,,,,,1550772758.023798,1550772760.006983,
393,0,Memory,7,,,,,,,00751960620fa.jpg,,,,,1.67,4.0,,,,,,,1550772761.275219,1550772763.258484,
394,0,Memory,7,,,,,,,sunbwaafjdebjzttuvq.jpg,,,,,0.904,1.0,,,,,,,1550772764.525504,1550772766.510466,
395,0,Memory,7,,,,,,,00294940422fb.jpg,,,,,1.57,2.0,,,,,,,1550772767.776674,1550772769.760549,
396,0,Memory,7,,,,,,,sunalkiibhqpxfamlll.jpg,,,,,0.0,,,,,,,,1550772771.011505,1550772772.994689,
397,0,Memory,7,,,,,,,sunabkngeblodihjvbk.jpg,,,,,1.304,4.0,,,,,,,1550772774.261854,1550772776.247108,
398,0,Memory,7,,,,,,,01010960627fa.jpg,,,,,1.053,2.0,,,,,,,1550772777.513888,1550772779.496239,
399,0,Memory,7,,,,,,,sunbbfqwjpdxniyhies.jpg,,,,,1.07,4.0,,,,,,,1550772780.765058,1550772782.748323,
