,Subject,Trial Type,Run,Cued Composite,Uncued Composite,Cued Face,Cued Place,Uncued Face,Uncued Place,Memory Image,Category,Cued Side,Cued Category,Attention Reaction Time (s),Familiarity Reaction Time (s),Familiarity Rating,Attention Level,Cue Validity,Post Invalid Cue,Pre Invalid Cue,Attention Button,Rating History,Stimulus Onset,Stimulus End,Attention Probe
10,26,Memory,0,,,,,,,sunalqmfgeadpqsyzpd.jpg,,,,,0.0,,,,,,,,1555441756.043874,1555441758.409972,
11,26,Memory,0,,,,,,,00822940307fa.jpg,,,,,1.217,3,,,,,,,1555441759.710025,1555441761.840755,
12,26,Memory,0,,,,,,,00871940307.jpg,,,,,1.174,3,,,,,,,1555441763.128504,1555441765.474525,
13,26,Memory,0,,,,,,,00097931230fa.jpg,,,,,1.974,3,,,,,,,1555441766.780389,1555441769.279274,
14,26,Memory,0,,,,,,,sunabmytpyhsgigllxu.jpg,,,,,1.576,4,,,,,,,1555441770.579905,1555441772.66543,
15,26,Memory,0,,,,,,,sunacwggadqsfpovdjv.jpg,,,,,2.301,2,,,,,,,1555441773.948928,1555441776.46577,
16,26,Memory,0,,,,,,,sunaawsdjisukbbginm.jpg,,,,,1.509,2,,,,,,,1555441777.766582,1555441780.163481,
17,26,Memory,0,,,,,,,sunbasypfgzjtomktmu.jpg,,,,,0.0,,,,,,,,1555441781.451315,1555441783.713412,
18,26,Memory,0,,,,,,,00970960627fa.jpg,,,,,1.487,3,,,,,,,1555441784.984713,1555441787.284471,
19,26,Memory,0,,,,,,,00184940128fa.jpg,,,,,1.136,4,,,,,,,1555441788.533304,1555441790.519065,
20,26,Memory,0,,,,,,,00557940519fa.jpg,,,,,1.231,2,,,,,,,1555441791.787663,1555441793.771404,
21,26,Memory,0,,,,,,,00878960530fa.jpg,,,,,1.621,3,,,,,,,1555441795.017733,1555441797.00229,
22,26,Memory,0,,,,,,,sunachtuarilwyqnvjx.jpg,,,,,1.416,2,,,,,,,1555441798.257193,1555441800.240414,
23,26,Memory,0,,,,,,,00801941205fa.jpg,,,,,1.332,4,,,,,,,1555441801.491387,1555441803.471692,
24,26,Memory,0,,,,,,,sunahqrxievfeusiqlt.jpg,,,,,1.001,3,,,,,,,1555441804.737866,1555441806.724662,
25,26,Memory,0,,,,,,,sunaivdjruhkrfywfed.jpg,,,,,1.703,2,,,,,,,1555441807.973507,1555441809.958737,
26,26,Memory,0,,,,,,,00719960620fa.jpg,,,,,0.799,3,,,,,,,1555441811.224344,1555441813.208349,
27,26,Memory,0,,,,,,,sunajrujcsdxmfbssmc.jpg,,,,,0.966,2,,,,,,,1555441814.457665,1555441816.442299,
28,26,Memory,0,,,,,,,00847940307fa.jpg,,,,,1.102,3,,,,,,,1555441817.691737,1555441819.679566,
29,26,Memory,0,,,,,,,00816941205fa.jpg,,,,,1.552,3,,,,,,,1555441820.944883,1555441822.927526,
30,26,Memory,0,,,,,,,sunahmhrncocyhsjpxk.jpg,,,,,1.498,1,,,,,,,1555441824.197885,1555441826.178387,
31,26,Memory,0,,,,,,,sunaavtbadenwnzeutj.jpg,,,,,1.216,2,,,,,,,1555441827.428488,1555441829.41598,
32,26,Memory,0,,,,,,,sunaajayojuslbbnneg.jpg,,,,,1.203,2,,,,,,,1555441830.695848,1555441832.682288,
33,26,Memory,0,,,,,,,00762941201fa.jpg,,,,,1.053,4,,,,,,,1555441833.930677,1555441835.918611,
34,26,Memory,0,,,,,,,sunacsdhbbsybcyxnel.jpg,,,,,0.986,1,,,,,,,1555441837.18298,1555441839.168529,
35,26,Memory,0,,,,,,,00894960620fa.jpg,,,,,0.934,2,,,,,,,1555441840.432988,1555441842.416741,
36,26,Memory,0,,,,,,,sunagvprlbprarvgdvj.jpg,,,,,1.419,2,,,,,,,1555441843.754879,1555441845.735747,
37,26,Memory,0,,,,,,,sunakgbnzxmfohgehnu.jpg,,,,,0.898,2,,,,,,,1555441846.989997,1555441848.970347,
38,26,Memory,0,,,,,,,00276940422fa.jpg,,,,,1.137,2,,,,,,,1555441850.236738,1555441852.219797,
39,26,Memory,0,,,,,,,sunaaemixhfquhnxxlm.jpg,,,,,1.034,2,,,,,,,1555441853.470722,1555441855.453904,
40,26,Memory,0,,,,,,,00305940422fa.jpg,,,,,0.917,3,,,,,,,1555441856.709601,1555441858.691083,
41,26,Memory,0,,,,,,,00950960627fa.jpg,,,,,1.219,4,,,,,,,1555441859.955558,1555441861.940167,
42,26,Memory,0,,,,,,,sunafgzgbisbopcyslr.jpg,,,,,1.018,2,,,,,,,1555441863.189864,1555441865.174499,
43,26,Memory,0,,,,,,,00191940128fb.jpg,,,,,0.832,2,,,,,,,1555441866.446199,1555441868.429374,
44,26,Memory,0,,,,,,,00568940928fa.jpg,,,,,1.569,3,,,,,,,1555441869.696328,1555441871.67701,
45,26,Memory,0,,,,,,,sunadzuvtmtmgupotmf.jpg,,,,,0.748,2,,,,,,,1555441872.930428,1555441874.911044,
46,26,Memory,0,,,,,,,sunabtrnbvpppgczjim.jpg,,,,,0.0,,,,,,,,1555441876.165617,1555441878.145683,
47,26,Memory,0,,,,,,,sunasrjlmglmjzbmqxb.jpg,,,,,0.814,2,,,,,,,1555441879.39499,1555441881.380053,
48,26,Memory,0,,,,,,,00065931230fb.jpg,,,,,1.086,4,,,,,,,1555441882.646924,1555441884.633242,
49,26,Memory,0,,,,,,,00589940928fa.jpg,,,,,0.949,3,,,,,,,1555441885.919458,1555441887.899644,
