,Subject,Trial Type,Run,Cued Composite,Uncued Composite,Cued Face,Cued Place,Uncued Face,Uncued Place,Memory Image,Category,Cued Side,Cued Category,Attention Reaction Time (s),Familiarity Reaction Time (s),Familiarity Rating,Attention Level,Cue Validity,Post Invalid Cue,Pre Invalid Cue,Attention Button,Rating History,Stimulus Onset,Stimulus End,Attention Probe
60,26,Memory,1,,,,,,,00262940128fa.jpg,,,,,2.187,3.0,,,,,,,1555442126.964593,1555442129.393767,
61,26,Memory,1,,,,,,,00138931230fa.jpg,,,,,1.067,3.0,,,,,,,1555442130.680865,1555442132.881008,
62,26,Memory,1,,,,,,,00162931230fb.jpg,,,,,0.952,2.0,,,,,,,1555442134.132187,1555442136.113403,
63,26,Memory,1,,,,,,,sunathzzbcwjykldrem.jpg,,,,,1.126,2.0,,,,,,,1555442137.380669,1555442139.697965,
64,26,Memory,1,,,,,,,00574940928fa.jpg,,,,,1.443,3.0,,,,,,,1555442140.951456,1555442143.655881,
65,26,Memory,1,,,,,,,sunbbxkanhzjgbwyxqs.jpg,,,,,1.193,2.0,,,,,,,1555442144.935643,1555442147.432631,
66,26,Memory,1,,,,,,,00766960620fa.jpg,,,,,1.275,3.0,,,,,,,1555442148.704853,1555442151.237985,
67,26,Memory,1,,,,,,,00859940307fa.jpg,,,,,1.126,4.0,,,,,,,1555442152.538355,1555442154.96772,
68,26,Memory,1,,,,,,,00507940519fa.jpg,,,,,1.671,3.0,,,,,,,1555442156.240414,1555442158.470562,
69,26,Memory,1,,,,,,,00092931230fa.jpg,,,,,1.669,2.0,,,,,,,1555442159.736341,1555442161.721505,
70,26,Memory,1,,,,,,,sunaiycurtqsfkvcaso.jpg,,,,,1.152,2.0,,,,,,,1555442162.988953,1555442164.972627,
71,26,Memory,1,,,,,,,sunadqmjrhfjyuzyvdd.jpg,,,,,1.467,2.0,,,,,,,1555442166.326842,1555442168.51388,
72,26,Memory,1,,,,,,,sunaloffvbvysigxent.jpg,,,,,1.56,2.0,,,,,,,1555442169.772652,1555442172.174754,
73,26,Memory,1,,,,,,,sunaapfaivxqoynnwwp.jpg,,,,,1.091,2.0,,,,,,,1555442173.462378,1555442175.711274,
74,26,Memory,1,,,,,,,sunaavjinpnkappuonm.jpg,,,,,1.308,2.0,,,,,,,1555442176.962443,1555442179.55901,
75,26,Memory,1,,,,,,,sunbloeoiozwjjsiamp.jpg,,,,,1.126,3.0,,,,,,,1555442180.847415,1555442183.461777,
76,26,Memory,1,,,,,,,00071941031fa.jpg,,,,,1.242,4.0,,,,,,,1555442184.764905,1555442187.313269,
77,26,Memory,1,,,,,,,00999960627fa.jpg,,,,,0.849,3.0,,,,,,,1555442188.562996,1555442190.546866,
78,26,Memory,1,,,,,,,00952960627fa.jpg,,,,,0.909,3.0,,,,,,,1555442191.802152,1555442194.014515,
79,26,Memory,1,,,,,,,sunafijbgncijwykrnl.jpg,,,,,0.936,2.0,,,,,,,1555442195.285508,1555442197.266884,
80,26,Memory,1,,,,,,,00096931230fa.jpg,,,,,0.999,3.0,,,,,,,1555442198.533025,1555442200.516301,
81,26,Memory,1,,,,,,,sunahawfngukizslzsd.jpg,,,,,0.636,2.0,,,,,,,1555442201.767983,1555442203.751802,
82,26,Memory,1,,,,,,,00787960620fa.jpg,,,,,0.97,3.0,,,,,,,1555442205.001489,1555442206.986739,
83,26,Memory,1,,,,,,,sunagoufulkpsxrmklt.jpg,,,,,0.719,2.0,,,,,,,1555442208.240102,1555442210.352207,
84,26,Memory,1,,,,,,,00977960627fa.jpg,,,,,1.293,3.0,,,,,,,1555442211.624377,1555442214.141732,
85,26,Memory,1,,,,,,,sunafvcflzhlqloapyo.jpg,,,,,0.727,2.0,,,,,,,1555442215.441695,1555442217.672437,
86,26,Memory,1,,,,,,,sunaaiqiqcggrskoqgy.jpg,,,,,1.026,2.0,,,,,,,1555442218.943058,1555442221.132255,
87,26,Memory,1,,,,,,,sunaecpkgfewqqreqwe.jpg,,,,,1.142,3.0,,,,,,,1555442222.411724,1555442224.974138,
88,26,Memory,1,,,,,,,00807941205fa.jpg,,,,,1.208,3.0,,,,,,,1555442226.245973,1555442228.934475,
89,26,Memory,1,,,,,,,00720960620fa.jpg,,,,,1.893,4.0,,,,,,,1555442230.213288,1555442232.634343,
90,26,Memory,1,,,,,,,00893960530Fa.jpg,,,,,2.211,4.0,,,,,,,1555442233.914551,1555442236.719252,
91,26,Memory,1,,,,,,,sunacvbrcejzwmcgnoq.jpg,,,,,0.975,2.0,,,,,,,1555442237.979402,1555442240.66437,
92,26,Memory,1,,,,,,,sunacacflqoyxhsqzhe.jpg,,,,,1.092,2.0,,,,,,,1555442241.951968,1555442244.530841,
93,26,Memory,1,,,,,,,sunbvbrvgbpanfrawft.jpg,,,,,2.377,3.0,,,,,,,1555442245.818262,1555442248.249174,
94,26,Memory,1,,,,,,,sunabizydfotqddlnjp.jpg,,,,,1.009,2.0,,,,,,,1555442249.520357,1555442252.050493,
95,26,Memory,1,,,,,,,00987960627fa.jpg,,,,,1.008,2.0,,,,,,,1555442253.32202,1555442256.069003,
96,26,Memory,1,,,,,,,sunaaexqbtdswxrqjvz.jpg,,,,,0.809,2.0,,,,,,,1555442257.339019,1555442260.151944,
97,26,Memory,1,,,,,,,00773941201fa.jpg,,,,,1.109,4.0,,,,,,,1555442261.441428,1555442263.841804,
98,26,Memory,1,,,,,,,00681941121fa.jpg,,,,,1.093,3.0,,,,,,,1555442265.125407,1555442267.442883,
99,26,Memory,1,,,,,,,sunaaheqzstzxuadglu.jpg,,,,,1.325,2.0,,,,,,,1555442268.742611,1555442271.406751,
