,Subject,Trial Type,Run,Cued Composite,Uncued Composite,Cued Face,Cued Place,Uncued Face,Uncued Place,Memory Image,Category,Cued Side,Cued Category,Attention Reaction Time (s),Familiarity Reaction Time (s),Familiarity Rating,Attention Level,Cue Validity,Post Invalid Cue,Pre Invalid Cue,Attention Button,Rating History,Stimulus Onset,Stimulus End,Attention Probe
360,9,Memory,7,,,,,,,sunabcuurugvxwparpk.jpg,,,,,1.236,2.0,,,,,,,1538583627.570111,1538583629.986976,
361,9,Memory,7,,,,,,,00950960627fa.jpg,,,,,1.0,1.0,,,,,,,1538583631.404897,1538583633.922931,
362,9,Memory,7,,,,,,,sunacepzfrmtkiqonpy.jpg,,,,,1.22,1.0,,,,,,,1538583635.306148,1538583637.789502,
363,9,Memory,7,,,,,,,00943960627fa.jpg,,,,,0.97,1.0,,,,,,,1538583639.156398,1538583641.557726,
364,9,Memory,7,,,,,,,sunagwswhkvnsmuszlz.jpg,,,,,1.302,3.0,,,,,,,1538583643.00788,1538583645.425541,
365,9,Memory,7,,,,,,,sunaaehaikpckyjsety.jpg,,,,,1.186,1.0,,,,,,,1538583646.827,1538583649.243036,
366,9,Memory,7,,,,,,,sunabwfvcqqidycwypa.jpg,,,,,1.086,4.0,,,,,,,1538583650.593297,1538583653.027694,
367,9,Memory,7,,,,,,,sunarpsxqkduedrrzyi.jpg,,,,,0.954,1.0,,,,,,,1538583654.39553,1538583656.863416,
368,9,Memory,7,,,,,,,sunafvcflzhlqloapyo.jpg,,,,,2.038,1.0,,,,,,,1538583658.280434,1538583660.779752,
369,9,Memory,7,,,,,,,sunahbvlpavurqoxdeq.jpg,,,,,1.021,1.0,,,,,,,1538583662.147727,1538583664.531227,
370,9,Memory,7,,,,,,,00242940128fa.jpg,,,,,1.403,2.0,,,,,,,1538583665.948681,1538583668.449206,
371,9,Memory,7,,,,,,,00894960620fa.jpg,,,,,0.92,1.0,,,,,,,1538583669.850289,1538583672.184542,
372,9,Memory,7,,,,,,,00804960530fa.jpg,,,,,1.068,1.0,,,,,,,1538583673.601495,1538583675.969028,
373,9,Memory,7,,,,,,,sunalqmfgeadpqsyzpd.jpg,,,,,1.502,1.0,,,,,,,1538583677.386662,1538583679.869845,
374,9,Memory,7,,,,,,,sunaakmxzhuceuiryah.jpg,,,,,2.235,1.0,,,,,,,1538583681.187585,1538583683.704663,
375,9,Memory,7,,,,,,,sunaatpeezlljqaxlhj.jpg,,,,,1.621,1.0,,,,,,,1538583685.122038,1538583687.506831,
376,9,Memory,7,,,,,,,00809960620fa.jpg,,,,,1.17,1.0,,,,,,,1538583688.973337,1538583691.307266,
377,9,Memory,7,,,,,,,00543940519fa.jpg,,,,,1.522,3.0,,,,,,,1538583692.692422,1538583695.258518,
378,9,Memory,7,,,,,,,sunabtlfmiwtljmoues.jpg,,,,,1.051,4.0,,,,,,,1538583696.625817,1538583699.025897,
379,9,Memory,7,,,,,,,01207940128fa.jpg,,,,,1.288,1.0,,,,,,,1538583700.409621,1538583702.827824,
380,9,Memory,7,,,,,,,00127931230fa.jpg,,,,,1.083,1.0,,,,,,,1538583704.261166,1538583706.797145,
381,9,Memory,7,,,,,,,00773941201fa.jpg,,,,,1.038,1.0,,,,,,,1538583708.279377,1538583710.763988,
382,9,Memory,7,,,,,,,00115931230fa.jpg,,,,,0.92,1.0,,,,,,,1538583712.147489,1538583714.631393,
383,9,Memory,7,,,,,,,sunaawsdjisukbbginm.jpg,,,,,1.321,3.0,,,,,,,1538583715.980847,1538583718.48247,
384,9,Memory,7,,,,,,,00191940128fb.jpg,,,,,1.352,4.0,,,,,,,1538583719.88274,1538583722.284601,
385,9,Memory,7,,,,,,,sundbixjudsgeuuehrn.jpg,,,,,1.236,2.0,,,,,,,1538583723.734525,1538583726.234166,
386,9,Memory,7,,,,,,,00529940519fa.jpg,,,,,1.237,1.0,,,,,,,1538583727.653028,1538583730.035901,
387,9,Memory,7,,,,,,,00308940422fb.jpg,,,,,1.387,1.0,,,,,,,1538583731.437259,1538583733.920481,
388,9,Memory,7,,,,,,,sunadnjjzohjhbohlwq.jpg,,,,,1.287,3.0,,,,,,,1538583735.388581,1538583737.805444,
389,9,Memory,7,,,,,,,00963960627fa.jpg,,,,,1.134,2.0,,,,,,,1538583739.223383,1538583741.640097,
390,9,Memory,7,,,,,,,00146960620fb.jpg,,,,,0.85,1.0,,,,,,,1538583743.024134,1538583745.557909,
391,9,Memory,7,,,,,,,sunacbeefkxpymwevpk.jpg,,,,,1.603,2.0,,,,,,,1538583746.957964,1538583749.291534,
392,9,Memory,7,,,,,,,00060931230fa.jpg,,,,,1.788,2.0,,,,,,,1538583750.676332,1538583753.160449,
393,9,Memory,7,,,,,,,00663941121fa.jpg,,,,,1.386,3.0,,,,,,,1538583754.510726,1538583756.927907,
394,9,Memory,7,,,,,,,sunasrjlmglmjzbmqxb.jpg,,,,,1.619,3.0,,,,,,,1538583758.345933,1538583760.779678,
395,9,Memory,7,,,,,,,sunaampvucecsfbdafn.jpg,,,,,1.419,1.0,,,,,,,1538583762.196181,1538583764.547159,
396,9,Memory,7,,,,,,,sunaavtbadenwnzeutj.jpg,,,,,1.255,1.0,,,,,,,1538583765.948023,1538583768.448471,
397,9,Memory,7,,,,,,,00302940422fa.jpg,,,,,1.02,1.0,,,,,,,1538583769.997879,1538583772.283285,
398,9,Memory,7,,,,,,,sunayaepykrqvenaqqy.jpg,,,,,1.87,1.0,,,,,,,1538583773.699734,1538583775.999872,
399,9,Memory,7,,,,,,,00184940128fa.jpg,,,,,1.003,1.0,,,,,,,1538583777.385608,1538583779.768158,
