,Subject,Trial Type,Run,Cued Composite,Uncued Composite,Cued Face,Cued Place,Uncued Face,Uncued Place,Memory Image,Category,Cued Side,Cued Category,Attention Reaction Time (s),Familiarity Reaction Time (s),Familiarity Rating,Attention Level,Cue Validity,Post Invalid Cue,Pre Invalid Cue,Attention Button,Rating History,Stimulus Onset,Stimulus End,Attention Probe
160,18,Memory,3,,,,,,,sunauburywlkjszngcq.jpg,,,,,2.167,2.0,,,,,,,1554146334.065435,1554146336.544221,
161,18,Memory,3,,,,,,,00529940519fa.jpg,,,,,2.567,2.0,,,,,,,1554146337.832858,1554146340.413407,
162,18,Memory,3,,,,,,,00102931230fa.jpg,,,,,1.592,1.0,,,,,,,1554146341.701837,1554146344.029705,
163,18,Memory,3,,,,,,,sunaprnrbmgkomdbchr.jpg,,,,,0.0,,,,,,,,1554146345.317731,1554146347.853216,
164,18,Memory,3,,,,,,,00101931230fb.jpg,,,,,1.234,1.0,,,,,,,1554146349.151963,1554146351.399915,
165,18,Memory,3,,,,,,,sunabclssnoeuigtawp.jpg,,,,,2.459,1.0,,,,,,,1554146352.666025,1554146355.166583,
166,18,Memory,3,,,,,,,00308940422fb.jpg,,,,,1.675,1.0,,,,,,,1554146356.438386,1554146358.676046,
167,18,Memory,3,,,,,,,sunaajqmsaavkmgbsth.jpg,,,,,2.01,3.0,,,,,,,1554146359.972983,1554146362.272483,
168,18,Memory,3,,,,,,,00809960620fa.jpg,,,,,1.009,1.0,,,,,,,1554146363.575133,1554146365.871589,
169,18,Memory,3,,,,,,,sunahbvlpavurqoxdeq.jpg,,,,,0.899,1.0,,,,,,,1554146367.159427,1554146369.275892,
170,18,Memory,3,,,,,,,00290940422fa.jpg,,,,,1.775,2.0,,,,,,,1554146370.543968,1554146372.890487,
171,18,Memory,3,,,,,,,00959960627fa.jpg,,,,,0.792,2.0,,,,,,,1554146374.16099,1554146376.275166,
172,18,Memory,3,,,,,,,00955960627fb.jpg,,,,,1.192,1.0,,,,,,,1554146377.546236,1554146379.716933,
173,18,Memory,3,,,,,,,00779941205fa.jpg,,,,,0.739,1.0,,,,,,,1554146381.014204,1554146383.076262,
174,18,Memory,3,,,,,,,00965960627fa.jpg,,,,,1.054,2.0,,,,,,,1554146384.397744,1554146386.619092,
175,18,Memory,3,,,,,,,sunbagfpovqwbuexqdn.jpg,,,,,0.424,2.0,,,,,,,1554146387.915134,1554146390.118847,
176,18,Memory,3,,,,,,,sunagdzlvkqtpnfxfcg.jpg,,,,,0.757,3.0,,,,,,,1554146391.400967,1554146393.483491,
177,18,Memory,3,,,,,,,00557940519fa.jpg,,,,,0.707,1.0,,,,,,,1554146394.751185,1554146396.782358,
178,18,Memory,3,,,,,,,00968960627fa.jpg,,,,,1.325,1.0,,,,,,,1554146398.052645,1554146400.298124,
179,18,Memory,3,,,,,,,sunafcofuuzebuadceo.jpg,,,,,1.433,3.0,,,,,,,1554146401.569743,1554146404.116047,
180,18,Memory,3,,,,,,,sunabwfvcqqidycwypa.jpg,,,,,0.841,3.0,,,,,,,1554146405.38968,1554146407.754096,
181,18,Memory,3,,,,,,,00775941205fa.jpg,,,,,0.722,1.0,,,,,,,1554146409.040055,1554146411.06939,
182,18,Memory,3,,,,,,,00753941201fa.jpg,,,,,1.125,3.0,,,,,,,1554146412.357452,1554146414.51135,
183,18,Memory,3,,,,,,,00816941205fa.jpg,,,,,0.991,3.0,,,,,,,1554146415.79171,1554146418.062132,
184,18,Memory,3,,,,,,,sunacbeefkxpymwevpk.jpg,,,,,0.515,3.0,,,,,,,1554146419.342553,1554146421.390429,
185,18,Memory,3,,,,,,,sunahmhrncocyhsjpxk.jpg,,,,,0.886,3.0,,,,,,,1554146422.660809,1554146424.756763,
186,18,Memory,3,,,,,,,sunachtuarilwyqnvjx.jpg,,,,,1.058,3.0,,,,,,,1554146426.029603,1554146428.183135,
187,18,Memory,3,,,,,,,sunaozisvwfbmlkfhzv.jpg,,,,,0.958,1.0,,,,,,,1554146429.445252,1554146431.542798,
188,18,Memory,3,,,,,,,00559940519fa.jpg,,,,,1.109,1.0,,,,,,,1554146432.814345,1554146435.194516,
189,18,Memory,3,,,,,,,sunaydywdmvlfddbxbk.jpg,,,,,1.284,1.0,,,,,,,1554146436.465501,1554146438.845897,
190,18,Memory,3,,,,,,,sunabqowuarvqqcnipn.jpg,,,,,0.843,3.0,,,,,,,1554146440.116415,1554146442.167501,
191,18,Memory,3,,,,,,,sunaajspcoepticvplv.jpg,,,,,0.715,3.0,,,,,,,1554146443.434692,1554146445.418256,
192,18,Memory,3,,,,,,,sunavxokzybtomhbmvm.jpg,,,,,1.153,3.0,,,,,,,1554146446.680541,1554146448.668101,
193,18,Memory,3,,,,,,,00914960620fa.jpg,,,,,1.519,3.0,,,,,,,1554146449.931653,1554146451.916428,
194,18,Memory,3,,,,,,,sunafvwfsmqkjrutjta.jpg,,,,,1.27,3.0,,,,,,,1554146453.182911,1554146455.168137,
195,18,Memory,3,,,,,,,sunacjkmnpawfzbyvae.jpg,,,,,0.732,3.0,,,,,,,1554146456.417563,1554146458.40152,
196,18,Memory,3,,,,,,,00235940128fb.jpg,,,,,0.949,1.0,,,,,,,1554146459.701147,1554146461.689652,
197,18,Memory,3,,,,,,,sunabtlfmiwtljmoues.jpg,,,,,0.553,2.0,,,,,,,1554146462.952804,1554146464.938983,
198,18,Memory,3,,,,,,,00929960627fa.jpg,,,,,0.249,2.0,,,,,,,1554146466.205143,1554146468.187706,
199,18,Memory,3,,,,,,,00302940422fa.jpg,,,,,1.166,2.0,,,,,,,1554146469.438007,1554146471.423255,
