,Subject,Trial Type,Run,Cued Composite,Uncued Composite,Cued Face,Cued Place,Uncued Face,Uncued Place,Memory Image,Category,Cued Side,Cued Category,Attention Reaction Time (s),Familiarity Reaction Time (s),Familiarity Rating,Attention Level,Cue Validity,Post Invalid Cue,Pre Invalid Cue,Attention Button,Rating History,Stimulus Onset,Stimulus End,Attention Probe
260,18,Memory,5,,,,,,,sunahedfrhtcwpneund.jpg,,,,,0.0,,,,,,,,1554147003.067163,1554147005.36282,
261,18,Memory,5,,,,,,,00245940128fa.jpg,,,,,0.0,,,,,,,,1554147006.651788,1554147009.068064,
262,18,Memory,5,,,,,,,00829940307fa.jpg,,,,,2.511,2.0,,,,,,,1554147010.369558,1554147012.948525,
263,18,Memory,5,,,,,,,00989960627fa.jpg,,,,,1.308,2.0,,,,,,,1554147014.219569,1554147016.500619,
264,18,Memory,5,,,,,,,00922960627fa.jpg,,,,,0.625,2.0,,,,,,,1554147017.772055,1554147019.983623,
265,18,Memory,5,,,,,,,00191940128fb.jpg,,,,,0.709,1.0,,,,,,,1554147021.255819,1554147023.553001,
266,18,Memory,5,,,,,,,00963960627fa.jpg,,,,,1.416,3.0,,,,,,,1554147024.822826,1554147026.993238,
267,18,Memory,5,,,,,,,sunahwgbqkqcrwprgvh.jpg,,,,,1.341,1.0,,,,,,,1554147028.291189,1554147030.605679,
268,18,Memory,5,,,,,,,sunaaehaikpckyjsety.jpg,,,,,1.525,2.0,,,,,,,1554147031.909685,1554147034.04261,
269,18,Memory,5,,,,,,,sunaawsdjisukbbginm.jpg,,,,,1.26,2.0,,,,,,,1554147035.310058,1554147037.710846,
270,18,Memory,5,,,,,,,00938960627fa.jpg,,,,,1.168,1.0,,,,,,,1554147038.979172,1554147041.275317,
271,18,Memory,5,,,,,,,00857940307fa.jpg,,,,,1.352,2.0,,,,,,,1554147042.546776,1554147044.879129,
272,18,Memory,5,,,,,,,sunaqyylsngywqzwfmx.jpg,,,,,1.059,1.0,,,,,,,1554147046.181678,1554147048.643344,
273,18,Memory,5,,,,,,,sunablfqiwfqomjarht.jpg,,,,,0.725,2.0,,,,,,,1554147049.947483,1554147052.162012,
274,18,Memory,5,,,,,,,00095931230fa.jpg,,,,,2.378,2.0,,,,,,,1554147053.432891,1554147055.846978,
275,18,Memory,5,,,,,,,00060931230fa.jpg,,,,,0.859,1.0,,,,,,,1554147057.183954,1554147059.267725,
276,18,Memory,5,,,,,,,00305940422fa.jpg,,,,,0.85,1.0,,,,,,,1554147060.529988,1554147062.52432,
277,18,Memory,5,,,,,,,sunayaepykrqvenaqqy.jpg,,,,,0.692,1.0,,,,,,,1554147063.814396,1554147066.100271,
278,18,Memory,5,,,,,,,sunahqldjibofgsfdgb.jpg,,,,,0.715,1.0,,,,,,,1554147067.387251,1554147069.534468,
279,18,Memory,5,,,,,,,00063931230fa.jpg,,,,,0.742,1.0,,,,,,,1554147070.855579,1554147073.134316,
280,18,Memory,5,,,,,,,sunapqkyghktgtosuuk.jpg,,,,,0.573,1.0,,,,,,,1554147074.406404,1554147076.519665,
281,18,Memory,5,,,,,,,sunabtrnbvpppgczjim.jpg,,,,,1.193,2.0,,,,,,,1554147077.824618,1554147080.239147,
282,18,Memory,5,,,,,,,00267940128fb.jpg,,,,,0.802,2.0,,,,,,,1554147081.543114,1554147083.687709,
283,18,Memory,5,,,,,,,sunaiwfobocrruqznsv.jpg,,,,,0.443,2.0,,,,,,,1554147084.976244,1554147087.180568,
284,18,Memory,5,,,,,,,sunabeyhmxodahoieyk.jpg,,,,,1.074,2.0,,,,,,,1554147088.461321,1554147090.674869,
285,18,Memory,5,,,,,,,00780960530fa.jpg,,,,,0.592,2.0,,,,,,,1554147091.961791,1554147094.091354,
286,18,Memory,5,,,,,,,sunadfndyrtqqiasoig.jpg,,,,,1.209,3.0,,,,,,,1554147095.379169,1554147097.810303,
287,18,Memory,5,,,,,,,sunarpsxqkduedrrzyi.jpg,,,,,0.616,1.0,,,,,,,1554147099.148133,1554147101.244238,
288,18,Memory,5,,,,,,,00811960530fa.jpg,,,,,0.816,1.0,,,,,,,1554147102.533107,1554147104.552531,
289,18,Memory,5,,,,,,,00819940307fa.jpg,,,,,1.091,4.0,,,,,,,1554147105.834329,1554147108.146989,
290,18,Memory,5,,,,,,,sunagetqixeypsysbpn.jpg,,,,,1.024,2.0,,,,,,,1554147109.467579,1554147111.584382,
291,18,Memory,5,,,,,,,sunadsgmtznewzyasnk.jpg,,,,,1.099,2.0,,,,,,,1554147112.86871,1554147114.998676,
292,18,Memory,5,,,,,,,sunaaelyvurpntclgau.jpg,,,,,0.875,1.0,,,,,,,1554147116.270851,1554147118.791376,
293,18,Memory,5,,,,,,,sunbondbduabvijnmch.jpg,,,,,1.509,4.0,,,,,,,1554147120.088137,1554147122.155062,
294,18,Memory,5,,,,,,,00700941121fa.jpg,,,,,0.975,1.0,,,,,,,1554147123.440034,1554147125.595062,
295,18,Memory,5,,,,,,,00783941205fa.jpg,,,,,1.391,1.0,,,,,,,1554147126.873847,1554147129.193104,
296,18,Memory,5,,,,,,,sunagjeesomrwjsfqie.jpg,,,,,0.785,1.0,,,,,,,1554147130.473796,1554147132.624344,
297,18,Memory,5,,,,,,,00943960627fa.jpg,,,,,0.761,2.0,,,,,,,1554147133.95947,1554147136.288874,
298,18,Memory,5,,,,,,,sunaahzooisqkwlxwoz.jpg,,,,,0.991,3.0,,,,,,,1554147137.577922,1554147139.714014,
299,18,Memory,5,,,,,,,00648941031fa.jpg,,,,,0.975,2.0,,,,,,,1554147141.029024,1554147143.407766,
