,Subject,Trial Type,Run,Cued Composite,Uncued Composite,Cued Face,Cued Place,Uncued Face,Uncued Place,Memory Image,Category,Cued Side,Cued Category,Attention Response Time (s),Familiarity Reaction Time (s),Familiarity Rating,Attention Level,Cue Validity,Post Invalid Cue,Pre Invalid Cue,Attention Button,Rating History,Stimulus Onset,Stimulus End,Attention Probe
0,8,Presentation,0,01002960627fb_sunbwaafjdebjzttuvq.jpg,00267940128fb_sunablfqiwfqomjarht.jpg,01002960627fb.jpg,sunbwaafjdebjzttuvq.jpg,00267940128fb.jpg,sunablfqiwfqomjarht.jpg,,,<,Face,,,,,1,,,,,,,o
1,8,Presentation,0,00264940128fb_sunabjzyxcjnmztdonj.jpg,00868960307fa_sunajjxttslobudoqbv.jpg,00264940128fb.jpg,sunabjzyxcjnmztdonj.jpg,00868960307fa.jpg,sunajjxttslobudoqbv.jpg,,,<,Face,,,,,1,,,,,,,o
2,8,Presentation,0,00859940307fa_sunaiycurtqsfkvcaso.jpg,00925960627fa_sunapqwnqzxlsfvgsjm.jpg,00859940307fa.jpg,sunaiycurtqsfkvcaso.jpg,00925960627fa.jpg,sunapqwnqzxlsfvgsjm.jpg,,,<,Face,,,,,1,,,,,,,o
3,8,Presentation,0,00108960530fa_sunaajtnvzzpsjdzres.jpg,00968960627fa_sunbagfpovqwbuexqdn.jpg,00108960530fa.jpg,sunaajtnvzzpsjdzres.jpg,00968960627fa.jpg,sunbagfpovqwbuexqdn.jpg,,,<,Face,,,,,1,,,,,,,x
4,8,Presentation,0,00700941121fa_sunadsgmtznewzyasnk.jpg,00878960530fa_sunakgbnzxmfohgehnu.jpg,00700941121fa.jpg,sunadsgmtznewzyasnk.jpg,00878960530fa.jpg,sunakgbnzxmfohgehnu.jpg,,,<,Face,,,,,1,,,,,,,o
5,8,Presentation,0,00262940128fa_sunabizydfotqddlnjp.jpg,00799941205fa_sunagutjvdvnhxejerz.jpg,00262940128fa.jpg,sunabizydfotqddlnjp.jpg,00799941205fa.jpg,sunagutjvdvnhxejerz.jpg,,,<,Face,,,,,1,,,,,,,x
6,8,Presentation,0,00609940928fa_sunacycdoztxoluxjyk.jpg,00635941031fa_sunaddsaeicthrfbkhe.jpg,00609940928fa.jpg,sunacycdoztxoluxjyk.jpg,00635941031fa.jpg,sunaddsaeicthrfbkhe.jpg,,,<,Face,,,,,1,,,,,,,x
7,8,Presentation,0,00751960620fa_sunaezuszgtxnmsxdbk.jpg,00479940519fa_sunabxsbfwjccqxxzxq.jpg,00751960620fa.jpg,sunaezuszgtxnmsxdbk.jpg,00479940519fa.jpg,sunabxsbfwjccqxxzxq.jpg,,,<,Face,,,,,1,,,,,,,o
8,8,Presentation,0,00725941201fa_sunaefgzwiramypjvtd.jpg,00482940519fa_sunabyfxcxhdebvdyfd.jpg,00725941201fa.jpg,sunaefgzwiramypjvtd.jpg,00482940519fa.jpg,sunabyfxcxhdebvdyfd.jpg,,,<,Face,,,,,1,,,,,,,x
9,8,Presentation,0,00116931230fa_sunaakqepfoeqomfgxf.jpg,01009960627fa_sunbxzweleltykebgan.jpg,00116931230fa.jpg,sunaakqepfoeqomfgxf.jpg,01009960627fa.jpg,sunbxzweleltykebgan.jpg,,,<,Face,,,,,1,,,,,,,x
10,8,Memory,0,,,,,,,00620940928fa.jpg,,,,,,,,,,,,,,,
11,8,Memory,0,,,,,,,sunayaepykrqvenaqqy.jpg,,,,,,,,,,,,,,,
12,8,Memory,0,,,,,,,00860940307fa.jpg,,,,,,,,,,,,,,,
13,8,Memory,0,,,,,,,00271940422fa.jpg,,,,,,,,,,,,,,,
14,8,Memory,0,,,,,,,00878960530fa.jpg,,,,,,,,,,,,,,,
15,8,Memory,0,,,,,,,sunaajtnvzzpsjdzres.jpg,,,,,,,,,,,,,,,
16,8,Memory,0,,,,,,,00857940307fa.jpg,,,,,,,,,,,,,,,
17,8,Memory,0,,,,,,,00963960627fa.jpg,,,,,,,,,,,,,,,
18,8,Memory,0,,,,,,,sunaizeyhvjzknwjudw.jpg,,,,,,,,,,,,,,,
19,8,Memory,0,,,,,,,00894960620fa.jpg,,,,,,,,,,,,,,,
20,8,Memory,0,,,,,,,00635941031fa.jpg,,,,,,,,,,,,,,,
21,8,Memory,0,,,,,,,00108960530fa.jpg,,,,,,,,,,,,,,,
22,8,Memory,0,,,,,,,00262940128fa.jpg,,,,,,,,,,,,,,,
23,8,Memory,0,,,,,,,00130931230fa.jpg,,,,,,,,,,,,,,,
24,8,Memory,0,,,,,,,sunalqmfgeadpqsyzpd.jpg,,,,,,,,,,,,,,,
25,8,Memory,0,,,,,,,sunapqwnqzxlsfvgsjm.jpg,,,,,,,,,,,,,,,
26,8,Memory,0,,,,,,,00482940519fa.jpg,,,,,,,,,,,,,,,
27,8,Memory,0,,,,,,,sunabmbnddafmywtjjj.jpg,,,,,,,,,,,,,,,
28,8,Memory,0,,,,,,,sunabjzyxcjnmztdonj.jpg,,,,,,,,,,,,,,,
29,8,Memory,0,,,,,,,sunabizydfotqddlnjp.jpg,,,,,,,,,,,,,,,
30,8,Memory,0,,,,,,,sunaddsaeicthrfbkhe.jpg,,,,,,,,,,,,,,,
31,8,Memory,0,,,,,,,01002960627fb.jpg,,,,,,,,,,,,,,,
32,8,Memory,0,,,,,,,sunaalcrrdbjgdztbiz.jpg,,,,,,,,,,,,,,,
33,8,Memory,0,,,,,,,sunbwaafjdebjzttuvq.jpg,,,,,,,,,,,,,,,
34,8,Memory,0,,,,,,,00532960627fa.jpg,,,,,,,,,,,,,,,
35,8,Memory,0,,,,,,,00264940128fb.jpg,,,,,,,,,,,,,,,
36,8,Memory,0,,,,,,,00123931230fb.jpg,,,,,,,,,,,,,,,
37,8,Memory,0,,,,,,,00700941121fa.jpg,,,,,,,,,,,,,,,
38,8,Memory,0,,,,,,,sunabtlfmiwtljmoues.jpg,,,,,,,,,,,,,,,
39,8,Memory,0,,,,,,,sunagutjvdvnhxejerz.jpg,,,,,,,,,,,,,,,
40,8,Memory,0,,,,,,,sunaamvxnvouicstkjb.jpg,,,,,,,,,,,,,,,
41,8,Memory,0,,,,,,,00799941205fa.jpg,,,,,,,,,,,,,,,
42,8,Memory,0,,,,,,,sunacypmnujalygkunp.jpg,,,,,,,,,,,,,,,
43,8,Memory,0,,,,,,,00925960627fa.jpg,,,,,,,,,,,,,,,
44,8,Memory,0,,,,,,,sunaiwfobocrruqznsv.jpg,,,,,,,,,,,,,,,
45,8,Memory,0,,,,,,,sunabyfxcxhdebvdyfd.jpg,,,,,,,,,,,,,,,
46,8,Memory,0,,,,,,,sunadsgmtznewzyasnk.jpg,,,,,,,,,,,,,,,
47,8,Memory,0,,,,,,,sunakgbnzxmfohgehnu.jpg,,,,,,,,,,,,,,,
48,8,Memory,0,,,,,,,00302940422fa.jpg,,,,,,,,,,,,,,,
49,8,Memory,0,,,,,,,sunaccdtpgenvcbcbcf.jpg,,,,,,,,,,,,,,,
50,8,Presentation,1,00803941205fa_sunagvxkjokqimstxpe.jpg,00133931230fa_sunaanlwnpqndclffxt.jpg,00803941205fa.jpg,sunagvxkjokqimstxpe.jpg,00133931230fa.jpg,sunaanlwnpqndclffxt.jpg,,,<,Place,,,,,1,,,,,,,o
51,8,Presentation,1,00081941031fa_sunaaftlyfudyzuhqzf.jpg,00529940519fa_sunacbeefkxpymwevpk.jpg,00081941031fa.jpg,sunaaftlyfudyzuhqzf.jpg,00529940519fa.jpg,sunacbeefkxpymwevpk.jpg,,,<,Place,,,,,1,,,,,,,o
52,8,Presentation,1,00969960627fa_sunbaoizrfijvhpnnjn.jpg,00548940519fa_sunacerqowiaeoqkmsq.jpg,00969960627fa.jpg,sunbaoizrfijvhpnnjn.jpg,00548940519fa.jpg,sunacerqowiaeoqkmsq.jpg,,,<,Place,,,,,1,,,,,,,x
53,8,Presentation,1,00093931230fa_sunaahwnmtqsrhocysw.jpg,00147931230fb_sunaatpkocdkocwxpkb.jpg,00093931230fa.jpg,sunaahwnmtqsrhocysw.jpg,00147931230fb.jpg,sunaatpkocdkocwxpkb.jpg,,,<,Place,,,,,1,,,,,,,x
54,8,Presentation,1,00719941201fa_sunadvithllcgmfxsrn.jpg,00939960627fa_sunarceibpcyacbmfga.jpg,00719941201fa.jpg,sunadvithllcgmfxsrn.jpg,00939960627fa.jpg,sunarceibpcyacbmfga.jpg,,,<,Place,,,,,1,,,,,,,x
55,8,Presentation,1,00926960627Fa_sunapqwoeotxshkukbh.jpg,00938960627fa_sunaqyylsngywqzwfmx.jpg,00926960627Fa.jpg,sunapqwoeotxshkukbh.jpg,00938960627fa.jpg,sunaqyylsngywqzwfmx.jpg,,,<,Place,,,,,1,,,,,,,x
56,8,Presentation,1,00796941205fa_sunaguchqqnrtodtezq.jpg,00760960620fa_sunaffstbkappprzxnv.jpg,00796941205fa.jpg,sunaguchqqnrtodtezq.jpg,00760960620fa.jpg,sunaffstbkappprzxnv.jpg,,,<,Place,,,,,0,,,,,,,o
57,8,Presentation,1,00776941205fa_sunafxokyavhgptyfye.jpg,01010960627fa_suncnkvbhypnivcohyx.jpg,00776941205fa.jpg,sunafxokyavhgptyfye.jpg,01010960627fa.jpg,suncnkvbhypnivcohyx.jpg,,,<,Place,,,,,1,,,,,,,o
58,8,Presentation,1,00749941201fa_sunaeuvjbmdpknaqqaj.jpg,00911960530fa_sunaooaqzputrowwbsw.jpg,00749941201fa.jpg,sunaeuvjbmdpknaqqaj.jpg,00911960530fa.jpg,sunaooaqzputrowwbsw.jpg,,,<,Place,,,,,1,,,,,,,o
59,8,Presentation,1,00095931230fa_sunaahzooisqkwlxwoz.jpg,00966960627fa_sunaygrtwrwfezqjizr.jpg,00095931230fa.jpg,sunaahzooisqkwlxwoz.jpg,00966960627fa.jpg,sunaygrtwrwfezqjizr.jpg,,,<,Place,,,,,1,,,,,,,o
60,8,Memory,1,,,,,,,sunanaacmmosxrfwmvl.jpg,,,,,,,,,,,,,,,
61,8,Memory,1,,,,,,,sunahiphsekjihkafsl.jpg,,,,,,,,,,,,,,,
62,8,Memory,1,,,,,,,00776941205fa.jpg,,,,,,,,,,,,,,,
63,8,Memory,1,,,,,,,sunbaoizrfijvhpnnjn.jpg,,,,,,,,,,,,,,,
64,8,Memory,1,,,,,,,sunalntxqqadigcletd.jpg,,,,,,,,,,,,,,,
65,8,Memory,1,,,,,,,00816941205fa.jpg,,,,,,,,,,,,,,,
66,8,Memory,1,,,,,,,00147931230fb.jpg,,,,,,,,,,,,,,,
67,8,Memory,1,,,,,,,sunaatpkocdkocwxpkb.jpg,,,,,,,,,,,,,,,
68,8,Memory,1,,,,,,,00749941201fa.jpg,,,,,,,,,,,,,,,
69,8,Memory,1,,,,,,,sunaaelotvjgibjtjhs.jpg,,,,,,,,,,,,,,,
70,8,Memory,1,,,,,,,00631940928fa.jpg,,,,,,,,,,,,,,,
71,8,Memory,1,,,,,,,01010960627fa.jpg,,,,,,,,,,,,,,,
72,8,Memory,1,,,,,,,sunafxokyavhgptyfye.jpg,,,,,,,,,,,,,,,
73,8,Memory,1,,,,,,,sunaaftlyfudyzuhqzf.jpg,,,,,,,,,,,,,,,
74,8,Memory,1,,,,,,,sunahmhrncocyhsjpxk.jpg,,,,,,,,,,,,,,,
75,8,Memory,1,,,,,,,sunaeuvjbmdpknaqqaj.jpg,,,,,,,,,,,,,,,
76,8,Memory,1,,,,,,,00969960627fa.jpg,,,,,,,,,,,,,,,
77,8,Memory,1,,,,,,,sunarceibpcyacbmfga.jpg,,,,,,,,,,,,,,,
78,8,Memory,1,,,,,,,00938960627fa.jpg,,,,,,,,,,,,,,,
79,8,Memory,1,,,,,,,suncnkvbhypnivcohyx.jpg,,,,,,,,,,,,,,,
80,8,Memory,1,,,,,,,sunakodkcslgqhqlgwl.jpg,,,,,,,,,,,,,,,
81,8,Memory,1,,,,,,,00990960627fa.jpg,,,,,,,,,,,,,,,
82,8,Memory,1,,,,,,,00062931230fb.jpg,,,,,,,,,,,,,,,
83,8,Memory,1,,,,,,,00892960530fa.jpg,,,,,,,,,,,,,,,
84,8,Memory,1,,,,,,,sunaahzooisqkwlxwoz.jpg,,,,,,,,,,,,,,,
85,8,Memory,1,,,,,,,sunaafewhewbxmjiurz.jpg,,,,,,,,,,,,,,,
86,8,Memory,1,,,,,,,00911960530fa.jpg,,,,,,,,,,,,,,,
87,8,Memory,1,,,,,,,sunadbdqzigzwipuipr.jpg,,,,,,,,,,,,,,,
88,8,Memory,1,,,,,,,00902960530fa.jpg,,,,,,,,,,,,,,,
89,8,Memory,1,,,,,,,00081941031fa.jpg,,,,,,,,,,,,,,,
90,8,Memory,1,,,,,,,00815941205fa.jpg,,,,,,,,,,,,,,,
91,8,Memory,1,,,,,,,sunaqyylsngywqzwfmx.jpg,,,,,,,,,,,,,,,
92,8,Memory,1,,,,,,,00939960627fa.jpg,,,,,,,,,,,,,,,
93,8,Memory,1,,,,,,,sunaooaqzputrowwbsw.jpg,,,,,,,,,,,,,,,
94,8,Memory,1,,,,,,,sunbpflsdaxnddnwcqi.jpg,,,,,,,,,,,,,,,
95,8,Memory,1,,,,,,,00884960530fa.jpg,,,,,,,,,,,,,,,
96,8,Memory,1,,,,,,,00095931230fa.jpg,,,,,,,,,,,,,,,
97,8,Memory,1,,,,,,,00076931230fa.jpg,,,,,,,,,,,,,,,
98,8,Memory,1,,,,,,,sunafgdqbclkwfocdhg.jpg,,,,,,,,,,,,,,,
99,8,Memory,1,,,,,,,00761960627fa.jpg,,,,,,,,,,,,,,,
100,8,Presentation,2,00260940128fa_sunabgfhvifeijihhjw.jpg,00885960530fa_sunakwlvxjpddialozd.jpg,00260940128fa.jpg,sunabgfhvifeijihhjw.jpg,00885960530fa.jpg,sunakwlvxjpddialozd.jpg,,,>,Place,,,,,1,,,,,,,x
101,8,Presentation,2,00308940422fb_sunabwfvcqqidycwypa.jpg,00834940307fa_sunaibnpvhkdpdnzcnz.jpg,00308940422fb.jpg,sunabwfvcqqidycwypa.jpg,00834940307fa.jpg,sunaibnpvhkdpdnzcnz.jpg,,,>,Place,,,,,1,,,,,,,x
102,8,Presentation,2,00305940422fa_sunabtrnbvpppgczjim.jpg,00775941205fa_sunafvwfsmqkjrutjta.jpg,00305940422fa.jpg,sunabtrnbvpppgczjim.jpg,00775941205fa.jpg,sunafvwfsmqkjrutjta.jpg,,,>,Place,,,,,0,,,,,,,o
103,8,Presentation,2,00096931230fa_sunaaiqiqcggrskoqgy.jpg,00090931230fa_sunaahedjlmtqekgyvj.jpg,00096931230fa.jpg,sunaaiqiqcggrskoqgy.jpg,00090931230fa.jpg,sunaahedjlmtqekgyvj.jpg,,,>,Place,,,,,0,,,,,,,o
104,8,Presentation,2,01000960627fa_sunbvzmgrdvaakxusbu.jpg,00630940928fa_sunaczwgyukesaajxnx.jpg,01000960627fa.jpg,sunbvzmgrdvaakxusbu.jpg,00630940928fa.jpg,sunaczwgyukesaajxnx.jpg,,,>,Place,,,,,1,,,,,,,x
105,8,Presentation,2,00921960627fa_sunapqkpqdfvxlbqwyo.jpg,00780960530fa_sunagetqixeypsysbpn.jpg,00921960627fa.jpg,sunapqkpqdfvxlbqwyo.jpg,00780960530fa.jpg,sunagetqixeypsysbpn.jpg,,,>,Place,,,,,1,,,,,,,o
106,8,Presentation,2,00198940128fb_sunaazezcsunmhttzxz.jpg,00670941121fa_sunadochqcucscehsgk.jpg,00198940128fb.jpg,sunaazezcsunmhttzxz.jpg,00670941121fa.jpg,sunadochqcucscehsgk.jpg,,,>,Place,,,,,1,,,,,,,x
107,8,Presentation,2,00158931230fb_sunaavchcbptaerhcfy.jpg,00481940519fa_sunabxsuqbleluwczoy.jpg,00158931230fb.jpg,sunaavchcbptaerhcfy.jpg,00481940519fa.jpg,sunabxsuqbleluwczoy.jpg,,,>,Place,,,,,1,,,,,,,o
108,8,Presentation,2,00063931230fa_sunaaelyvurpntclgau.jpg,00746941201fa_sunaetydippjxikifsb.jpg,00063931230fa.jpg,sunaaelyvurpntclgau.jpg,00746941201fa.jpg,sunaetydippjxikifsb.jpg,,,>,Place,,,,,1,,,,,,,x
109,8,Presentation,2,00140931230fb_sunaapllqyqlykszopd.jpg,00787941205fa_sunagmwxxwymwojbvgi.jpg,00140931230fb.jpg,sunaapllqyqlykszopd.jpg,00787941205fa.jpg,sunagmwxxwymwojbvgi.jpg,,,>,Place,,,,,1,,,,,,,x
110,8,Memory,2,,,,,,,00127931230fa.jpg,,,,,,,,,,,,,,,
111,8,Memory,2,,,,,,,sunaisiwfgppimtnmxl.jpg,,,,,,,,,,,,,,,
112,8,Memory,2,,,,,,,01000960627fa.jpg,,,,,,,,,,,,,,,
113,8,Memory,2,,,,,,,00581940928fa.jpg,,,,,,,,,,,,,,,
114,8,Memory,2,,,,,,,00906960530fa.jpg,,,,,,,,,,,,,,,
115,8,Memory,2,,,,,,,00144931230fb.jpg,,,,,,,,,,,,,,,
116,8,Memory,2,,,,,,,sunajwqkfsykceonyig.jpg,,,,,,,,,,,,,,,
117,8,Memory,2,,,,,,,sunaampvucecsfbdafn.jpg,,,,,,,,,,,,,,,
118,8,Memory,2,,,,,,,sunapqkpqdfvxlbqwyo.jpg,,,,,,,,,,,,,,,
119,8,Memory,2,,,,,,,sunbvzmgrdvaakxusbu.jpg,,,,,,,,,,,,,,,
120,8,Memory,2,,,,,,,sunaibnpvhkdpdnzcnz.jpg,,,,,,,,,,,,,,,
121,8,Memory,2,,,,,,,00158931230fb.jpg,,,,,,,,,,,,,,,
122,8,Memory,2,,,,,,,00140931230fb.jpg,,,,,,,,,,,,,,,
123,8,Memory,2,,,,,,,sunabtrnbvpppgczjim.jpg,,,,,,,,,,,,,,,
124,8,Memory,2,,,,,,,00834940307fa.jpg,,,,,,,,,,,,,,,
125,8,Memory,2,,,,,,,00090931230fa.jpg,,,,,,,,,,,,,,,
126,8,Memory,2,,,,,,,sunacvzhvcksnwqcqbw.jpg,,,,,,,,,,,,,,,
127,8,Memory,2,,,,,,,sunaavchcbptaerhcfy.jpg,,,,,,,,,,,,,,,
128,8,Memory,2,,,,,,,00218940128fa.jpg,,,,,,,,,,,,,,,
129,8,Memory,2,,,,,,,00670941121fa.jpg,,,,,,,,,,,,,,,
130,8,Memory,2,,,,,,,sunaajspcoepticvplv.jpg,,,,,,,,,,,,,,,
131,8,Memory,2,,,,,,,sunammbnoambmhdxdwd.jpg,,,,,,,,,,,,,,,
132,8,Memory,2,,,,,,,sunantryfbloeaomfta.jpg,,,,,,,,,,,,,,,
133,8,Memory,2,,,,,,,00780960530fa.jpg,,,,,,,,,,,,,,,
134,8,Memory,2,,,,,,,00933960627fa.jpg,,,,,,,,,,,,,,,
135,8,Memory,2,,,,,,,sunagetqixeypsysbpn.jpg,,,,,,,,,,,,,,,
136,8,Memory,2,,,,,,,sunaathajvxrgptwhoj.jpg,,,,,,,,,,,,,,,
137,8,Memory,2,,,,,,,00841940307fa.jpg,,,,,,,,,,,,,,,
138,8,Memory,2,,,,,,,sunabbwggenhfbftyvi.jpg,,,,,,,,,,,,,,,
139,8,Memory,2,,,,,,,sunakwlvxjpddialozd.jpg,,,,,,,,,,,,,,,
140,8,Memory,2,,,,,,,00305940422fa.jpg,,,,,,,,,,,,,,,
141,8,Memory,2,,,,,,,sunapwjkcxdaeqehfql.jpg,,,,,,,,,,,,,,,
142,8,Memory,2,,,,,,,sunadochqcucscehsgk.jpg,,,,,,,,,,,,,,,
143,8,Memory,2,,,,,,,sunaahedjlmtqekgyvj.jpg,,,,,,,,,,,,,,,
144,8,Memory,2,,,,,,,00921960627fa.jpg,,,,,,,,,,,,,,,
145,8,Memory,2,,,,,,,00901960530fa.jpg,,,,,,,,,,,,,,,
146,8,Memory,2,,,,,,,sunaapllqyqlykszopd.jpg,,,,,,,,,,,,,,,
147,8,Memory,2,,,,,,,00102931230fa.jpg,,,,,,,,,,,,,,,
148,8,Memory,2,,,,,,,00876960620fa.jpg,,,,,,,,,,,,,,,
149,8,Memory,2,,,,,,,00885960530fa.jpg,,,,,,,,,,,,,,,
150,8,Presentation,3,00915960620fa_sunapileznnbbmrwoei.jpg,00239940128fa_sunabctlikybqabezjv.jpg,00915960620fa.jpg,sunapileznnbbmrwoei.jpg,00239940128fa.jpg,sunabctlikybqabezjv.jpg,,,>,Face,,,,,1,,,,,,,o
151,8,Presentation,3,00774941201fa_sunafvtpfczkzopbgue.jpg,00676941121fa_sunadpnqovzckyikrjo.jpg,00774941201fa.jpg,sunafvtpfczkzopbgue.jpg,00676941121fa.jpg,sunadpnqovzckyikrjo.jpg,,,>,Face,,,,,1,,,,,,,x
152,8,Presentation,3,00996960627fa_sunbpvgllfdejxcpjqp.jpg,00077931230fb_sunaafgqutfaishsxyu.jpg,00996960627fa.jpg,sunbpvgllfdejxcpjqp.jpg,00077931230fb.jpg,sunaafgqutfaishsxyu.jpg,,,>,Face,,,,,1,,,,,,,o
153,8,Presentation,3,00877960530fa_sunajxpkuhbizeveguy.jpg,00574940928fa_sunacvbrcejzwmcgnoq.jpg,00877960530fa.jpg,sunajxpkuhbizeveguy.jpg,00574940928fa.jpg,sunacvbrcejzwmcgnoq.jpg,,,>,Face,,,,,1,,,,,,,o
154,8,Presentation,3,00747941201fa_sunaeutbrtswvsozxyk.jpg,00636941031fa_sunaddtdkycxbqlpfqa.jpg,00747941201fa.jpg,sunaeutbrtswvsozxyk.jpg,00636941031fa.jpg,sunaddtdkycxbqlpfqa.jpg,,,>,Face,,,,,1,,,,,,,o
155,8,Presentation,3,00136931230fb_sunaanptmsknhirrzed.jpg,01004960627fa_sunbwtlihsuptkrckid.jpg,00136931230fb.jpg,sunaanptmsknhirrzed.jpg,01004960627fa.jpg,sunbwtlihsuptkrckid.jpg,,,>,Face,,,,,1,,,,,,,o
156,8,Presentation,3,00505960627fa_sunabzuqsrgcsonqlkz.jpg,00835940307fa_sunaijsqpvodplbwxkf.jpg,00505960627fa.jpg,sunabzuqsrgcsonqlkz.jpg,00835940307fa.jpg,sunaijsqpvodplbwxkf.jpg,,,>,Face,,,,,1,,,,,,,x
157,8,Presentation,3,00101931230fb_sunaajqmsaavkmgbsth.jpg,00784941205fb_sunagjzcrjvmxzqzljx.jpg,00101931230fb.jpg,sunaajqmsaavkmgbsth.jpg,00784941205fb.jpg,sunagjzcrjvmxzqzljx.jpg,,,>,Face,,,,,0,,,,,,,x
158,8,Presentation,3,00988960627fa_sunbmaiocftdtvnzgap.jpg,00889960530fa_sunaletopenvvozhpxc.jpg,00988960627fa.jpg,sunbmaiocftdtvnzgap.jpg,00889960530fa.jpg,sunaletopenvvozhpxc.jpg,,,>,Face,,,,,1,,,,,,,x
159,8,Presentation,3,00070940307fa_sunaaeplwsfslcbtojr.jpg,00871940307_sunajrujcsdxmfbssmc.jpg,00070940307fa.jpg,sunaaeplwsfslcbtojr.jpg,00871940307.jpg,sunajrujcsdxmfbssmc.jpg,,,>,Face,,,,,1,,,,,,,x
160,8,Memory,3,,,,,,,sunabasphceswhwwqvv.jpg,,,,,,,,,,,,,,,
161,8,Memory,3,,,,,,,00871940307.jpg,,,,,,,,,,,,,,,
162,8,Memory,3,,,,,,,00988960627fa.jpg,,,,,,,,,,,,,,,
163,8,Memory,3,,,,,,,00676941121fa.jpg,,,,,,,,,,,,,,,
164,8,Memory,3,,,,,,,00947960627fa.jpg,,,,,,,,,,,,,,,
165,8,Memory,3,,,,,,,sunacwggadqsfpovdjv.jpg,,,,,,,,,,,,,,,
166,8,Memory,3,,,,,,,sunbwyuesflwdpqtgoy.jpg,,,,,,,,,,,,,,,
167,8,Memory,3,,,,,,,sunaijsqpvodplbwxkf.jpg,,,,,,,,,,,,,,,
168,8,Memory,3,,,,,,,00636941031fa.jpg,,,,,,,,,,,,,,,
169,8,Memory,3,,,,,,,sunaafgqutfaishsxyu.jpg,,,,,,,,,,,,,,,
170,8,Memory,3,,,,,,,sunajrujcsdxmfbssmc.jpg,,,,,,,,,,,,,,,
171,8,Memory,3,,,,,,,01005960627fa.jpg,,,,,,,,,,,,,,,
172,8,Memory,3,,,,,,,sunadpnqovzckyikrjo.jpg,,,,,,,,,,,,,,,
173,8,Memory,3,,,,,,,sunafvtpfczkzopbgue.jpg,,,,,,,,,,,,,,,
174,8,Memory,3,,,,,,,00077931230fb.jpg,,,,,,,,,,,,,,,
175,8,Memory,3,,,,,,,sunasmmcxdddtmtazwx.jpg,,,,,,,,,,,,,,,
176,8,Memory,3,,,,,,,00136931230fb.jpg,,,,,,,,,,,,,,,
177,8,Memory,3,,,,,,,sunagvprlbprarvgdvj.jpg,,,,,,,,,,,,,,,
178,8,Memory,3,,,,,,,sunalcrtwiycqobgelp.jpg,,,,,,,,,,,,,,,
179,8,Memory,3,,,,,,,00773960620fa.jpg,,,,,,,,,,,,,,,
180,8,Memory,3,,,,,,,00801941205fa.jpg,,,,,,,,,,,,,,,
181,8,Memory,3,,,,,,,00633940928fa.jpg,,,,,,,,,,,,,,,
182,8,Memory,3,,,,,,,sunaofikylqtxphvdem.jpg,,,,,,,,,,,,,,,
183,8,Memory,3,,,,,,,00589940928fa.jpg,,,,,,,,,,,,,,,
184,8,Memory,3,,,,,,,00887960530.jpg,,,,,,,,,,,,,,,
185,8,Memory,3,,,,,,,00910960530fa.jpg,,,,,,,,,,,,,,,
186,8,Memory,3,,,,,,,sunaddtdkycxbqlpfqa.jpg,,,,,,,,,,,,,,,
187,8,Memory,3,,,,,,,sunaanptmsknhirrzed.jpg,,,,,,,,,,,,,,,
188,8,Memory,3,,,,,,,00779941205fa.jpg,,,,,,,,,,,,,,,
189,8,Memory,3,,,,,,,sunadbhmrgrrpyzglxs.jpg,,,,,,,,,,,,,,,
190,8,Memory,3,,,,,,,00774941201fa.jpg,,,,,,,,,,,,,,,
191,8,Memory,3,,,,,,,sunagdzlvkqtpnfxfcg.jpg,,,,,,,,,,,,,,,
192,8,Memory,3,,,,,,,sunaajqmsaavkmgbsth.jpg,,,,,,,,,,,,,,,
193,8,Memory,3,,,,,,,00211940128fa.jpg,,,,,,,,,,,,,,,
194,8,Memory,3,,,,,,,00101931230fb.jpg,,,,,,,,,,,,,,,
195,8,Memory,3,,,,,,,00877960530fa.jpg,,,,,,,,,,,,,,,
196,8,Memory,3,,,,,,,sunbmaiocftdtvnzgap.jpg,,,,,,,,,,,,,,,
197,8,Memory,3,,,,,,,sunafvsxtzaizojicxx.jpg,,,,,,,,,,,,,,,
198,8,Memory,3,,,,,,,00835940307fa.jpg,,,,,,,,,,,,,,,
199,8,Memory,3,,,,,,,sunajxpkuhbizeveguy.jpg,,,,,,,,,,,,,,,
200,8,Presentation,4,00987960627fa_sunbloeoiozwjjsiamp.jpg,00598941031fa_sunacxtcahkymosigud.jpg,00987960627fa.jpg,sunbloeoiozwjjsiamp.jpg,00598941031fa.jpg,sunacxtcahkymosigud.jpg,,,<,Place,,,,,1,,,,,,,x
201,8,Presentation,4,00185940422fb_sunaawqdbpihmlbwyyn.jpg,00812941205fa_sunahgtbwgsmtqeodwh.jpg,00185940422fb.jpg,sunaawqdbpihmlbwyyn.jpg,00812941205fa.jpg,sunahgtbwgsmtqeodwh.jpg,,,<,Place,,,,,1,,,,,,,x
202,8,Presentation,4,00809960620fa_sunahbvlpavurqoxdeq.jpg,00914960620fa_sunaozisvwfbmlkfhzv.jpg,00809960620fa.jpg,sunahbvlpavurqoxdeq.jpg,00914960620fa.jpg,sunaozisvwfbmlkfhzv.jpg,,,<,Place,,,,,1,,,,,,,x
203,8,Presentation,4,00791941205fa_sunagrmyoovzukhxmlo.jpg,00882960530fa_sunaknlirqjqiwbbeeg.jpg,00791941205fa.jpg,sunagrmyoovzukhxmlo.jpg,00882960530fa.jpg,sunaknlirqjqiwbbeeg.jpg,,,<,Place,,,,,0,,,,,,,x
204,8,Presentation,4,00810941205fa_sunahctntqrunhdxhtb.jpg,00208940128fa_sunaazzyhbvqjpmazjq.jpg,00810941205fa.jpg,sunahctntqrunhdxhtb.jpg,00208940128fa.jpg,sunaazzyhbvqjpmazjq.jpg,,,<,Place,,,,,1,,,,,,,o
205,8,Presentation,4,00836940307fa_sunainqelldeebvxtcz.jpg,00571940928fa_sunacuatpqpqhyjhjqk.jpg,00836940307fa.jpg,sunainqelldeebvxtcz.jpg,00571940928fa.jpg,sunacuatpqpqhyjhjqk.jpg,,,<,Place,,,,,1,,,,,,,o
206,8,Presentation,4,00294940422fb_sunabrlndkruqokhury.jpg,00730960620fa_sunaekgzpfilgjxpeyq.jpg,00294940422fb.jpg,sunabrlndkruqokhury.jpg,00730960620fa.jpg,sunaekgzpfilgjxpeyq.jpg,,,<,Place,,,,,1,,,,,,,o
207,8,Presentation,4,00097931230fa_sunaajayojuslbbnneg.jpg,00827940307fa_sunahtfxgsrmkiulnwk.jpg,00097931230fa.jpg,sunaajayojuslbbnneg.jpg,00827940307fa.jpg,sunahtfxgsrmkiulnwk.jpg,,,<,Place,,,,,1,,,,,,,o
208,8,Presentation,4,00634940928fa_sunadcphrizvfpljiqt.jpg,00825940307fa_sunahrltmuwbiehihpe.jpg,00634940928fa.jpg,sunadcphrizvfpljiqt.jpg,00825940307fa.jpg,sunahrltmuwbiehihpe.jpg,,,<,Place,,,,,1,,,,,,,o
209,8,Presentation,4,00290940422fa_sunabqowuarvqqcnipn.jpg,00154931230fa_sunaauueuhhvklldjik.jpg,00290940422fa.jpg,sunabqowuarvqqcnipn.jpg,00154931230fa.jpg,sunaauueuhhvklldjik.jpg,,,<,Place,,,,,1,,,,,,,o
210,8,Memory,4,,,,,,,sunaakxgygjfqrzpyoz.jpg,,,,,,,,,,,,,,,
211,8,Memory,4,,,,,,,00825940307fa.jpg,,,,,,,,,,,,,,,
212,8,Memory,4,,,,,,,sunahrltmuwbiehihpe.jpg,,,,,,,,,,,,,,,
213,8,Memory,4,,,,,,,00197940128fa.jpg,,,,,,,,,,,,,,,
214,8,Memory,4,,,,,,,00120931230fa.jpg,,,,,,,,,,,,,,,
215,8,Memory,4,,,,,,,00810941205fa.jpg,,,,,,,,,,,,,,,
216,8,Memory,4,,,,,,,00634940928fa.jpg,,,,,,,,,,,,,,,
217,8,Memory,4,,,,,,,sunacxtcahkymosigud.jpg,,,,,,,,,,,,,,,
218,8,Memory,4,,,,,,,sunaajayojuslbbnneg.jpg,,,,,,,,,,,,,,,
219,8,Memory,4,,,,,,,sunahwgbqkqcrwprgvh.jpg,,,,,,,,,,,,,,,
220,8,Memory,4,,,,,,,00985960627fa.jpg,,,,,,,,,,,,,,,
221,8,Memory,4,,,,,,,sunabrlndkruqokhury.jpg,,,,,,,,,,,,,,,
222,8,Memory,4,,,,,,,00791941205fa.jpg,,,,,,,,,,,,,,,
223,8,Memory,4,,,,,,,00984960627fa.jpg,,,,,,,,,,,,,,,
224,8,Memory,4,,,,,,,00294940422fb.jpg,,,,,,,,,,,,,,,
225,8,Memory,4,,,,,,,00827940307fa.jpg,,,,,,,,,,,,,,,
226,8,Memory,4,,,,,,,00723941201fa.jpg,,,,,,,,,,,,,,,
227,8,Memory,4,,,,,,,sunadcphrizvfpljiqt.jpg,,,,,,,,,,,,,,,
228,8,Memory,4,,,,,,,00829940307fa.jpg,,,,,,,,,,,,,,,
229,8,Memory,4,,,,,,,sunahgtbwgsmtqeodwh.jpg,,,,,,,,,,,,,,,
230,8,Memory,4,,,,,,,00882960530fa.jpg,,,,,,,,,,,,,,,
231,8,Memory,4,,,,,,,sunbfzchmomnvzhbxdg.jpg,,,,,,,,,,,,,,,
232,8,Memory,4,,,,,,,sunaaylzyqlqrsmfwif.jpg,,,,,,,,,,,,,,,
233,8,Memory,4,,,,,,,sunbgklxeqjhdbyfhhy.jpg,,,,,,,,,,,,,,,
234,8,Memory,4,,,,,,,00953960627fa.jpg,,,,,,,,,,,,,,,
235,8,Memory,4,,,,,,,sunatstrpjxhvtbaczf.jpg,,,,,,,,,,,,,,,
236,8,Memory,4,,,,,,,00598941031fa.jpg,,,,,,,,,,,,,,,
237,8,Memory,4,,,,,,,00598940928fa.jpg,,,,,,,,,,,,,,,
238,8,Memory,4,,,,,,,sunaedtgwjvvziytspa.jpg,,,,,,,,,,,,,,,
239,8,Memory,4,,,,,,,sunahtfxgsrmkiulnwk.jpg,,,,,,,,,,,,,,,
240,8,Memory,4,,,,,,,sunakmnfgklupjijsgf.jpg,,,,,,,,,,,,,,,
241,8,Memory,4,,,,,,,sunagrmyoovzukhxmlo.jpg,,,,,,,,,,,,,,,
242,8,Memory,4,,,,,,,sunacxeheuiigkcgquf.jpg,,,,,,,,,,,,,,,
243,8,Memory,4,,,,,,,00880960530fa.jpg,,,,,,,,,,,,,,,
244,8,Memory,4,,,,,,,00191940128fb.jpg,,,,,,,,,,,,,,,
245,8,Memory,4,,,,,,,00097931230fa.jpg,,,,,,,,,,,,,,,
246,8,Memory,4,,,,,,,sunaknlirqjqiwbbeeg.jpg,,,,,,,,,,,,,,,
247,8,Memory,4,,,,,,,sunahctntqrunhdxhtb.jpg,,,,,,,,,,,,,,,
248,8,Memory,4,,,,,,,00812941205fa.jpg,,,,,,,,,,,,,,,
249,8,Memory,4,,,,,,,sunaawsdjisukbbginm.jpg,,,,,,,,,,,,,,,
250,8,Presentation,5,00908960530fa_sunanwjjyqqwzqrqagd.jpg,00847940307fa_sunaivdjruhkrfywfed.jpg,00908960530fa.jpg,sunanwjjyqqwzqrqagd.jpg,00847940307fa.jpg,sunaivdjruhkrfywfed.jpg,,,<,Face,,,,,1,,,,,,,x
251,8,Presentation,5,00265940128fb_sunabkmdplkdbvxriff.jpg,00193940928fa_sunaaxjpzcnxligjtjq.jpg,00265940128fb.jpg,sunabkmdplkdbvxriff.jpg,00193940928fa.jpg,sunaaxjpzcnxligjtjq.jpg,,,<,Face,,,,,1,,,,,,,x
252,8,Presentation,5,00131931230fb_sunaangbuylfvckqqoo.jpg,00905960530fa_sunanmoqeyprjjjfxjt.jpg,00131931230fb.jpg,sunaangbuylfvckqqoo.jpg,00905960530fa.jpg,sunanmoqeyprjjjfxjt.jpg,,,<,Face,,,,,1,,,,,,,o
253,8,Presentation,5,00741941201fa_sunaemcowdozyphwknd.jpg,00972960627fa_sunbbfqwjpdxniyhies.jpg,00741941201fa.jpg,sunaemcowdozyphwknd.jpg,00972960627fa.jpg,sunbbfqwjpdxniyhies.jpg,,,<,Face,,,,,1,,,,,,,x
254,8,Presentation,5,00795941205fa_sunagtumacdlmciqamz.jpg,00720960620fa_sunaecpkgfewqqreqwe.jpg,00795941205fa.jpg,sunagtumacdlmciqamz.jpg,00720960620fa.jpg,sunaecpkgfewqqreqwe.jpg,,,<,Face,,,,,1,,,,,,,x
255,8,Presentation,5,00818940307fa_sunahpblecxtmuzkmxb.jpg,00752960620fa_sunafbwnojpqeyzssoe.jpg,00818940307fa.jpg,sunahpblecxtmuzkmxb.jpg,00752960620fa.jpg,sunafbwnojpqeyzssoe.jpg,,,<,Face,,,,,1,,,,,,,x
256,8,Presentation,5,00554940519fa_sunacfdkbsrughwqwtt.jpg,00919960620fa_sunapmfmzadmosuogaz.jpg,00554940519fa.jpg,sunacfdkbsrughwqwtt.jpg,00919960620fa.jpg,sunapmfmzadmosuogaz.jpg,,,<,Face,,,,,1,,,,,,,x
257,8,Presentation,5,00744941201fa_sunaeomlfaabhpswasy.jpg,00149931230fa_sunaauglwmctnkxyird.jpg,00744941201fa.jpg,sunaeomlfaabhpswasy.jpg,00149931230fa.jpg,sunaauglwmctnkxyird.jpg,,,<,Face,,,,,1,,,,,,,o
258,8,Presentation,5,00080931230fb_sunaafjszryxyavjzln.jpg,00931960627fa_sunaptrqvaooxfvktvw.jpg,00080931230fb.jpg,sunaafjszryxyavjzln.jpg,00931960627fa.jpg,sunaptrqvaooxfvktvw.jpg,,,<,Face,,,,,1,,,,,,,o
259,8,Presentation,5,00943960627fa_sunarpsxqkduedrrzyi.jpg,00772941201fa_sunafpfpiiujzoesnqg.jpg,00943960627fa.jpg,sunarpsxqkduedrrzyi.jpg,00772941201fa.jpg,sunafpfpiiujzoesnqg.jpg,,,<,Face,,,,,1,,,,,,,x
260,8,Memory,5,,,,,,,sunaipyohrqlwngaqif.jpg,,,,,,,,,,,,,,,
261,8,Memory,5,,,,,,,00483940519fa.jpg,,,,,,,,,,,,,,,
262,8,Memory,5,,,,,,,00818940307fa.jpg,,,,,,,,,,,,,,,
263,8,Memory,5,,,,,,,00720960620fa.jpg,,,,,,,,,,,,,,,
264,8,Memory,5,,,,,,,00838940307fa.jpg,,,,,,,,,,,,,,,
265,8,Memory,5,,,,,,,sunaptrqvaooxfvktvw.jpg,,,,,,,,,,,,,,,
266,8,Memory,5,,,,,,,00080931230fb.jpg,,,,,,,,,,,,,,,
267,8,Memory,5,,,,,,,00498960627fa.jpg,,,,,,,,,,,,,,,
268,8,Memory,5,,,,,,,sunagvjurcwdbixvnyi.jpg,,,,,,,,,,,,,,,
269,8,Memory,5,,,,,,,sunabzjxlmkwnwzimua.jpg,,,,,,,,,,,,,,,
270,8,Memory,5,,,,,,,00790941205fa.jpg,,,,,,,,,,,,,,,
271,8,Memory,5,,,,,,,sunahpblecxtmuzkmxb.jpg,,,,,,,,,,,,,,,
272,8,Memory,5,,,,,,,00744941201fa.jpg,,,,,,,,,,,,,,,
273,8,Memory,5,,,,,,,sunaafjszryxyavjzln.jpg,,,,,,,,,,,,,,,
274,8,Memory,5,,,,,,,sunaivdjruhkrfywfed.jpg,,,,,,,,,,,,,,,
275,8,Memory,5,,,,,,,00908960530fa.jpg,,,,,,,,,,,,,,,
276,8,Memory,5,,,,,,,sunaiozxhxgtfrmoagh.jpg,,,,,,,,,,,,,,,
277,8,Memory,5,,,,,,,sunanwjjyqqwzqrqagd.jpg,,,,,,,,,,,,,,,
278,8,Memory,5,,,,,,,sunarpsxqkduedrrzyi.jpg,,,,,,,,,,,,,,,
279,8,Memory,5,,,,,,,00800941205fb.jpg,,,,,,,,,,,,,,,
280,8,Memory,5,,,,,,,00788941205fa.jpg,,,,,,,,,,,,,,,
281,8,Memory,5,,,,,,,sunagtjwilqjvxohypn.jpg,,,,,,,,,,,,,,,
282,8,Memory,5,,,,,,,00977960627fa.jpg,,,,,,,,,,,,,,,
283,8,Memory,5,,,,,,,00931960627fa.jpg,,,,,,,,,,,,,,,
284,8,Memory,5,,,,,,,00568940928fa.jpg,,,,,,,,,,,,,,,
285,8,Memory,5,,,,,,,sunacsdhbbsybcyxnel.jpg,,,,,,,,,,,,,,,
286,8,Memory,5,,,,,,,sunaeomlfaabhpswasy.jpg,,,,,,,,,,,,,,,
287,8,Memory,5,,,,,,,sunaauglwmctnkxyird.jpg,,,,,,,,,,,,,,,
288,8,Memory,5,,,,,,,00839940307fa.jpg,,,,,,,,,,,,,,,
289,8,Memory,5,,,,,,,sunbbxkanhzjgbwyxqs.jpg,,,,,,,,,,,,,,,
290,8,Memory,5,,,,,,,00943960627fa.jpg,,,,,,,,,,,,,,,
291,8,Memory,5,,,,,,,00793941205fa.jpg,,,,,,,,,,,,,,,
292,8,Memory,5,,,,,,,sunanmoqeyprjjjfxjt.jpg,,,,,,,,,,,,,,,
293,8,Memory,5,,,,,,,sunabyvpwkgsjtijdwj.jpg,,,,,,,,,,,,,,,
294,8,Memory,5,,,,,,,00847940307fa.jpg,,,,,,,,,,,,,,,
295,8,Memory,5,,,,,,,sunaecpkgfewqqreqwe.jpg,,,,,,,,,,,,,,,
296,8,Memory,5,,,,,,,sunagountlxpzkytsmp.jpg,,,,,,,,,,,,,,,
297,8,Memory,5,,,,,,,00905960530fa.jpg,,,,,,,,,,,,,,,
298,8,Memory,5,,,,,,,00149931230fa.jpg,,,,,,,,,,,,,,,
299,8,Memory,5,,,,,,,sunagpjzsbltchlwvou.jpg,,,,,,,,,,,,,,,
300,8,Presentation,6,00266940128fb_sunabkngeblodihjvbk.jpg,00507940519fa_sunacacflqoyxhsqzhe.jpg,00266940128fb.jpg,sunabkngeblodihjvbk.jpg,00507940519fa.jpg,sunacacflqoyxhsqzhe.jpg,,,>,Place,,,,,1,,,,,,,o
301,8,Presentation,6,00630941031fa_sunadakkdovnuzlycvp.jpg,00242940128fa_sunabcuurugvxwparpk.jpg,00630941031fa.jpg,sunadakkdovnuzlycvp.jpg,00242940128fa.jpg,sunabcuurugvxwparpk.jpg,,,>,Place,,,,,1,,,,,,,x
302,8,Presentation,6,00559940519fa_sunacjkmnpawfzbyvae.jpg,00766960620fa_sunafijbgncijwykrnl.jpg,00559940519fa.jpg,sunacjkmnpawfzbyvae.jpg,00766960620fa.jpg,sunafijbgncijwykrnl.jpg,,,>,Place,,,,,1,,,,,,,x
303,8,Presentation,6,00989960627fa_sunbondbduabvijnmch.jpg,00115931230fa_sunaakmxzhuceuiryah.jpg,00989960627fa.jpg,sunbondbduabvijnmch.jpg,00115931230fa.jpg,sunaakmxzhuceuiryah.jpg,,,>,Place,,,,,1,,,,,,,x
304,8,Presentation,6,00227940128fa_sunabckqabszusgcykj.jpg,00792941205fa_sunagsiwrmuixqgdimb.jpg,00227940128fa.jpg,sunabckqabszusgcykj.jpg,00792941205fa.jpg,sunagsiwrmuixqgdimb.jpg,,,>,Place,,,,,1,,,,,,,o
305,8,Presentation,6,00562941031fa_sunacjnahdmqfnjfwqx.jpg,00221940128fa_sunabcfpwlpolnutyju.jpg,00562941031fa.jpg,sunacjnahdmqfnjfwqx.jpg,00221940128fa.jpg,sunabcfpwlpolnutyju.jpg,,,>,Place,,,,,0,,,,,,,x
306,8,Presentation,6,00111931230fb_sunaakgekhjklxmvulj.jpg,00909960530_sunaobtizabegtwfwul.jpg,00111931230fb.jpg,sunaakgekhjklxmvulj.jpg,00909960530.jpg,sunaobtizabegtwfwul.jpg,,,>,Place,,,,,1,,,,,,,o
307,8,Presentation,6,00750941201fa_sunaeuzwggvibufclwf.jpg,00138931230fa_sunaapfaivxqoynnwwp.jpg,00750941201fa.jpg,sunaeuzwggvibufclwf.jpg,00138931230fa.jpg,sunaapfaivxqoynnwwp.jpg,,,>,Place,,,,,1,,,,,,,x
308,8,Presentation,6,00214940128fa_sunabbafjowbzcvbucc.jpg,00209940128fb_sunabaergayifsgacxt.jpg,00214940128fa.jpg,sunabbafjowbzcvbucc.jpg,00209940128fb.jpg,sunabaergayifsgacxt.jpg,,,>,Place,,,,,1,,,,,,,o
309,8,Presentation,6,00773941201fa_sunafvcflzhlqloapyo.jpg,00900960530fa_sunamlotskmmsjeogby.jpg,00773941201fa.jpg,sunafvcflzhlqloapyo.jpg,00900960530fa.jpg,sunamlotskmmsjeogby.jpg,,,>,Place,,,,,1,,,,,,,o
310,8,Memory,6,,,,,,,00115931230fa.jpg,,,,,,,,,,,,,,,
311,8,Memory,6,,,,,,,00900960530fa.jpg,,,,,,,,,,,,,,,
312,8,Memory,6,,,,,,,00313940422fa.jpg,,,,,,,,,,,,,,,
313,8,Memory,6,,,,,,,sunaeuzwggvibufclwf.jpg,,,,,,,,,,,,,,,
314,8,Memory,6,,,,,,,00214940128fa.jpg,,,,,,,,,,,,,,,
315,8,Memory,6,,,,,,,sunbwdrdvsweerwsdrj.jpg,,,,,,,,,,,,,,,
316,8,Memory,6,,,,,,,sunamlotskmmsjeogby.jpg,,,,,,,,,,,,,,,
317,8,Memory,6,,,,,,,sunaenwuebvlpdmntju.jpg,,,,,,,,,,,,,,,
318,8,Memory,6,,,,,,,sunafijbgncijwykrnl.jpg,,,,,,,,,,,,,,,
319,8,Memory,6,,,,,,,00766960620fa.jpg,,,,,,,,,,,,,,,
320,8,Memory,6,,,,,,,00794960620fa.jpg,,,,,,,,,,,,,,,
321,8,Memory,6,,,,,,,00129931230fb.jpg,,,,,,,,,,,,,,,
322,8,Memory,6,,,,,,,00559940519fa.jpg,,,,,,,,,,,,,,,
323,8,Memory,6,,,,,,,sunagcthdfirrcawoic.jpg,,,,,,,,,,,,,,,
324,8,Memory,6,,,,,,,00507940519fa.jpg,,,,,,,,,,,,,,,
325,8,Memory,6,,,,,,,sunacacflqoyxhsqzhe.jpg,,,,,,,,,,,,,,,
326,8,Memory,6,,,,,,,00773941201fa.jpg,,,,,,,,,,,,,,,
327,8,Memory,6,,,,,,,sunaanjcbzdvtvblsdy.jpg,,,,,,,,,,,,,,,
328,8,Memory,6,,,,,,,00742941201fa.jpg,,,,,,,,,,,,,,,
329,8,Memory,6,,,,,,,00132931230fb.jpg,,,,,,,,,,,,,,,
330,8,Memory,6,,,,,,,00111931230fb.jpg,,,,,,,,,,,,,,,
331,8,Memory,6,,,,,,,01003960627fb.jpg,,,,,,,,,,,,,,,
332,8,Memory,6,,,,,,,00778941205fa.jpg,,,,,,,,,,,,,,,
333,8,Memory,6,,,,,,,00961960627fa.jpg,,,,,,,,,,,,,,,
334,8,Memory,6,,,,,,,sunajrgtewnualfcerj.jpg,,,,,,,,,,,,,,,
335,8,Memory,6,,,,,,,sunagsiwrmuixqgdimb.jpg,,,,,,,,,,,,,,,
336,8,Memory,6,,,,,,,sunaamsdyakblkfoydx.jpg,,,,,,,,,,,,,,,
337,8,Memory,6,,,,,,,sunacjkmnpawfzbyvae.jpg,,,,,,,,,,,,,,,
338,8,Memory,6,,,,,,,sunagtqhhwxjeuxdebe.jpg,,,,,,,,,,,,,,,
339,8,Memory,6,,,,,,,sunawotxrevnqvamsfp.jpg,,,,,,,,,,,,,,,
340,8,Memory,6,,,,,,,00870940307fa.jpg,,,,,,,,,,,,,,,
341,8,Memory,6,,,,,,,sunabanoxjtqxamkucc.jpg,,,,,,,,,,,,,,,
342,8,Memory,6,,,,,,,sunaakmxzhuceuiryah.jpg,,,,,,,,,,,,,,,
343,8,Memory,6,,,,,,,00750941201fa.jpg,,,,,,,,,,,,,,,
344,8,Memory,6,,,,,,,sunafvcflzhlqloapyo.jpg,,,,,,,,,,,,,,,
345,8,Memory,6,,,,,,,sunabwjvmoaddlyxfjr.jpg,,,,,,,,,,,,,,,
346,8,Memory,6,,,,,,,00792941205fa.jpg,,,,,,,,,,,,,,,
347,8,Memory,6,,,,,,,sunabbafjowbzcvbucc.jpg,,,,,,,,,,,,,,,
348,8,Memory,6,,,,,,,sunaakgekhjklxmvulj.jpg,,,,,,,,,,,,,,,
349,8,Memory,6,,,,,,,00210940128fb.jpg,,,,,,,,,,,,,,,
350,8,Presentation,7,00754941201fa_sunaffgsyyvoqdlkmnk.jpg,00783941205fa_sunagjeesomrwjsfqie.jpg,00754941201fa.jpg,sunaffgsyyvoqdlkmnk.jpg,00783941205fa.jpg,sunagjeesomrwjsfqie.jpg,,,>,Face,,,,,1,,,,,,,o
351,8,Presentation,7,00146960620fb_sunaatpeezlljqaxlhj.jpg,00955960627fb_sunauburywlkjszngcq.jpg,00146960620fb.jpg,sunaatpeezlljqaxlhj.jpg,00955960627fb.jpg,sunauburywlkjszngcq.jpg,,,>,Face,,,,,1,,,,,,,x
352,8,Presentation,7,00292940422fb_sunabrjdpmoedcdjbpo.jpg,00789960620fa_sunagpancjmxqfazssf.jpg,00292940422fb.jpg,sunabrjdpmoedcdjbpo.jpg,00789960620fa.jpg,sunagpancjmxqfazssf.jpg,,,>,Face,,,,,1,,,,,,,x
353,8,Presentation,7,00913960530fa_sunaooffzffbhcpirmm.jpg,00937960627fa_sunaqsolmfydodnakub.jpg,00913960530fa.jpg,sunaooffzffbhcpirmm.jpg,00937960627fa.jpg,sunaqsolmfydodnakub.jpg,,,>,Face,,,,,1,,,,,,,o
354,8,Presentation,7,00819940307fa_sunahqldjibofgsfdgb.jpg,00862940307fa_sunaizgnnplsvajzhkc.jpg,00819940307fa.jpg,sunahqldjibofgsfdgb.jpg,00862940307fa.jpg,sunaizgnnplsvajzhkc.jpg,,,>,Face,,,,,0,,,,,,,o
355,8,Presentation,7,00153931230fa_sunaauhozyxzeeqstxi.jpg,00858940307fa_sunaixpqndlwhwjtjek.jpg,00153931230fa.jpg,sunaauhozyxzeeqstxi.jpg,00858940307fa.jpg,sunaixpqndlwhwjtjek.jpg,,,>,Face,,,,,1,,,,,,,o
356,8,Presentation,7,00306940422fa_sunabueyoajufbkraki.jpg,00958960627fa_sunavspxmxubqaeidjt.jpg,00306940422fa.jpg,sunabueyoajufbkraki.jpg,00958960627fa.jpg,sunavspxmxubqaeidjt.jpg,,,>,Face,,,,,1,,,,,,,o
357,8,Presentation,7,00787960620fa_sunagoufulkpsxrmklt.jpg,00950960627fa_sunasrjlmglmjzbmqxb.jpg,00787960620fa.jpg,sunagoufulkpsxrmklt.jpg,00950960627fa.jpg,sunasrjlmglmjzbmqxb.jpg,,,>,Face,,,,,1,,,,,,,o
358,8,Presentation,7,00864940307fa_sunajawzbrlrwafowen.jpg,00705941205fa_sunadtlxenqqxsyjvix.jpg,00864940307fa.jpg,sunajawzbrlrwafowen.jpg,00705941205fa.jpg,sunadtlxenqqxsyjvix.jpg,,,>,Face,,,,,1,,,,,,,x
359,8,Presentation,7,00060931230fa_sunaaehaikpckyjsety.jpg,00071941031fa_sunaaexqbtdswxrqjvz.jpg,00060931230fa.jpg,sunaaehaikpckyjsety.jpg,00071941031fa.jpg,sunaaexqbtdswxrqjvz.jpg,,,>,Face,,,,,0,,,,,,,x
360,8,Memory,7,,,,,,,00153931230fa.jpg,,,,,,,,,,,,,,,
361,8,Memory,7,,,,,,,sunagjeesomrwjsfqie.jpg,,,,,,,,,,,,,,,
362,8,Memory,7,,,,,,,00999960627fa.jpg,,,,,,,,,,,,,,,
363,8,Memory,7,,,,,,,00089931230fa.jpg,,,,,,,,,,,,,,,
364,8,Memory,7,,,,,,,sunaixpqndlwhwjtjek.jpg,,,,,,,,,,,,,,,
365,8,Memory,7,,,,,,,00955960627fb.jpg,,,,,,,,,,,,,,,
366,8,Memory,7,,,,,,,01011960627fa.jpg,,,,,,,,,,,,,,,
367,8,Memory,7,,,,,,,sunahqldjibofgsfdgb.jpg,,,,,,,,,,,,,,,
368,8,Memory,7,,,,,,,00866940307fa.jpg,,,,,,,,,,,,,,,
369,8,Memory,7,,,,,,,sunaaehaikpckyjsety.jpg,,,,,,,,,,,,,,,
370,8,Memory,7,,,,,,,sunbvbrvgbpanfrawft.jpg,,,,,,,,,,,,,,,
371,8,Memory,7,,,,,,,sunaapxkpvrhpjplsok.jpg,,,,,,,,,,,,,,,
372,8,Memory,7,,,,,,,00858940307fa.jpg,,,,,,,,,,,,,,,
373,8,Memory,7,,,,,,,sunauburywlkjszngcq.jpg,,,,,,,,,,,,,,,
374,8,Memory,7,,,,,,,sunasrjlmglmjzbmqxb.jpg,,,,,,,,,,,,,,,
375,8,Memory,7,,,,,,,00146960620fb.jpg,,,,,,,,,,,,,,,
376,8,Memory,7,,,,,,,00060931230fa.jpg,,,,,,,,,,,,,,,
377,8,Memory,7,,,,,,,sunaauhozyxzeeqstxi.jpg,,,,,,,,,,,,,,,
378,8,Memory,7,,,,,,,00864940307fa.jpg,,,,,,,,,,,,,,,
379,8,Memory,7,,,,,,,sunaaemixhfquhnxxlm.jpg,,,,,,,,,,,,,,,
380,8,Memory,7,,,,,,,00142931230fb.jpg,,,,,,,,,,,,,,,
381,8,Memory,7,,,,,,,sundahdxwmcdluscvot.jpg,,,,,,,,,,,,,,,
382,8,Memory,7,,,,,,,00819940307fa.jpg,,,,,,,,,,,,,,,
383,8,Memory,7,,,,,,,sunbdycacjfaujxitbw.jpg,,,,,,,,,,,,,,,
384,8,Memory,7,,,,,,,00789960620fa.jpg,,,,,,,,,,,,,,,
385,8,Memory,7,,,,,,,00986960627fa.jpg,,,,,,,,,,,,,,,
386,8,Memory,7,,,,,,,00065931230fb.jpg,,,,,,,,,,,,,,,
387,8,Memory,7,,,,,,,sunajbwkywmsqkldfml.jpg,,,,,,,,,,,,,,,
388,8,Memory,7,,,,,,,00950960627fa.jpg,,,,,,,,,,,,,,,
389,8,Memory,7,,,,,,,sunagpancjmxqfazssf.jpg,,,,,,,,,,,,,,,
390,8,Memory,7,,,,,,,sunaagcpoejbuzyvddd.jpg,,,,,,,,,,,,,,,
391,8,Memory,7,,,,,,,sunajawzbrlrwafowen.jpg,,,,,,,,,,,,,,,
392,8,Memory,7,,,,,,,00979960627fa.jpg,,,,,,,,,,,,,,,
393,8,Memory,7,,,,,,,sunaaekxzjzrfgtkwjf.jpg,,,,,,,,,,,,,,,
394,8,Memory,7,,,,,,,00783941205fa.jpg,,,,,,,,,,,,,,,
395,8,Memory,7,,,,,,,00982960627fa.jpg,,,,,,,,,,,,,,,
396,8,Memory,7,,,,,,,00061931230fb.jpg,,,,,,,,,,,,,,,
397,8,Memory,7,,,,,,,sunbesrwkdsffeogeqq.jpg,,,,,,,,,,,,,,,
398,8,Memory,7,,,,,,,sunaatpeezlljqaxlhj.jpg,,,,,,,,,,,,,,,
399,8,Memory,7,,,,,,,sunbgzjryivyczuvkvm.jpg,,,,,,,,,,,,,,,
