,Subject,Trial Type,Run,Cued Composite,Uncued Composite,Cued Face,Cued Place,Uncued Face,Uncued Place,Memory Image,Category,Cued Side,Cued Category,Attention Reaction Time (s),Familiarity Reaction Time (s),Familiarity Rating,Attention Level,Cue Validity,Post Invalid Cue,Pre Invalid Cue,Attention Button,Rating History,Stimulus Onset,Stimulus End,Attention Probe
0,1,Presentation,0,00305940422fa_sunabtrnbvpppgczjim.jpg,00936960627fa_sunaqgjuuwvdcyiccjt.jpg,00305940422fa.jpg,sunabtrnbvpppgczjim.jpg,00936960627fa.jpg,sunaqgjuuwvdcyiccjt.jpg,,,<,Face,,,,,1,,,,,,,x
1,1,Presentation,0,00905960530fa_sunanmoqeyprjjjfxjt.jpg,00146960620fb_sunaatpeezlljqaxlhj.jpg,00905960530fa.jpg,sunanmoqeyprjjjfxjt.jpg,00146960620fb.jpg,sunaatpeezlljqaxlhj.jpg,,,>,Place,,,,,1,,,,,,,x
2,1,Presentation,0,00154931230fa_sunaauueuhhvklldjik.jpg,00986960627fa_sunbgzjryivyczuvkvm.jpg,00154931230fa.jpg,sunaauueuhhvklldjik.jpg,00986960627fa.jpg,sunbgzjryivyczuvkvm.jpg,,,<,Face,,,,,1,,,,,,,x
3,1,Presentation,0,00882960530fa_sunaknlirqjqiwbbeeg.jpg,00963960627fa_sunayaepykrqvenaqqy.jpg,00882960530fa.jpg,sunaknlirqjqiwbbeeg.jpg,00963960627fa.jpg,sunayaepykrqvenaqqy.jpg,,,>,Face,,,,,1,,,,,,,x
4,1,Presentation,0,00776941205fa_sunafxokyavhgptyfye.jpg,00198940128fb_sunaazezcsunmhttzxz.jpg,00776941205fa.jpg,sunafxokyavhgptyfye.jpg,00198940128fb.jpg,sunaazezcsunmhttzxz.jpg,,,<,Place,,,,,0,,,,,,,x
5,1,Presentation,0,00111931230fb_sunaakgekhjklxmvulj.jpg,00841940307fa_sunaisiwfgppimtnmxl.jpg,00111931230fb.jpg,sunaakgekhjklxmvulj.jpg,00841940307fa.jpg,sunaisiwfgppimtnmxl.jpg,,,>,Place,,,,,1,,,,,,,x
6,1,Presentation,0,00780960530fa_sunagetqixeypsysbpn.jpg,00071941031fa_sunaaexqbtdswxrqjvz.jpg,00780960530fa.jpg,sunagetqixeypsysbpn.jpg,00071941031fa.jpg,sunaaexqbtdswxrqjvz.jpg,,,>,Place,,,,,0,,,,,,,x
7,1,Presentation,0,00242940128fa_sunabcuurugvxwparpk.jpg,00720960620fa_sunaecpkgfewqqreqwe.jpg,00242940128fa.jpg,sunabcuurugvxwparpk.jpg,00720960620fa.jpg,sunaecpkgfewqqreqwe.jpg,,,<,Place,,,,,1,,,,,,,o
8,1,Presentation,0,00789960620fa_sunagpancjmxqfazssf.jpg,00082931230fa_sunaafvitpexrpvumsa.jpg,00789960620fa.jpg,sunagpancjmxqfazssf.jpg,00082931230fa.jpg,sunaafvitpexrpvumsa.jpg,,,>,Face,,,,,1,,,,,,,x
9,1,Presentation,0,00949960627fb_sunasnqkkyhilqkxiqm.jpg,00675941121fa_sunadoxcchtmsxewsau.jpg,00949960627fb.jpg,sunasnqkkyhilqkxiqm.jpg,00675941121fa.jpg,sunadoxcchtmsxewsau.jpg,,,<,Face,,,,,1,,,,,,,x
10,1,Memory,0,,,,,,,00789960620fa.jpg,,,,,,,,,,,,,,,
11,1,Memory,0,,,,,,,sunaatpeezlljqaxlhj.jpg,,,,,,,,,,,,,,,
12,1,Memory,0,,,,,,,00895960530fa.jpg,,,,,,,,,,,,,,,
13,1,Memory,0,,,,,,,00185940422fb.jpg,,,,,,,,,,,,,,,
14,1,Memory,0,,,,,,,sunagvjurcwdbixvnyi.jpg,,,,,,,,,,,,,,,
15,1,Memory,0,,,,,,,sunbxarcshsnqsefemx.jpg,,,,,,,,,,,,,,,
16,1,Memory,0,,,,,,,sunawksfbacycuhbrsc.jpg,,,,,,,,,,,,,,,
17,1,Memory,0,,,,,,,sunagpancjmxqfazssf.jpg,,,,,,,,,,,,,,,
18,1,Memory,0,,,,,,,sunajxpkuhbizeveguy.jpg,,,,,,,,,,,,,,,
19,1,Memory,0,,,,,,,sunamczizlzavhzhpay.jpg,,,,,,,,,,,,,,,
20,1,Memory,0,,,,,,,sunaaheqzstzxuadglu.jpg,,,,,,,,,,,,,,,
21,1,Memory,0,,,,,,,sunadoxcchtmsxewsau.jpg,,,,,,,,,,,,,,,
22,1,Memory,0,,,,,,,sunabtrnbvpppgczjim.jpg,,,,,,,,,,,,,,,
23,1,Memory,0,,,,,,,sunbdycacjfaujxitbw.jpg,,,,,,,,,,,,,,,
24,1,Memory,0,,,,,,,sunaqgjuuwvdcyiccjt.jpg,,,,,,,,,,,,,,,
25,1,Memory,0,,,,,,,00305940422fa.jpg,,,,,,,,,,,,,,,
26,1,Memory,0,,,,,,,00960960627fa.jpg,,,,,,,,,,,,,,,
27,1,Memory,0,,,,,,,00675941121fa.jpg,,,,,,,,,,,,,,,
28,1,Memory,0,,,,,,,00914960620fa.jpg,,,,,,,,,,,,,,,
29,1,Memory,0,,,,,,,00198940128fb.jpg,,,,,,,,,,,,,,,
30,1,Memory,0,,,,,,,00877960530fa.jpg,,,,,,,,,,,,,,,
31,1,Memory,0,,,,,,,sunaazezcsunmhttzxz.jpg,,,,,,,,,,,,,,,
32,1,Memory,0,,,,,,,sunaozisvwfbmlkfhzv.jpg,,,,,,,,,,,,,,,
33,1,Memory,0,,,,,,,00936960627fa.jpg,,,,,,,,,,,,,,,
34,1,Memory,0,,,,,,,00720960620fa.jpg,,,,,,,,,,,,,,,
35,1,Memory,0,,,,,,,sunasnqkkyhilqkxiqm.jpg,,,,,,,,,,,,,,,
36,1,Memory,0,,,,,,,00949960627fb.jpg,,,,,,,,,,,,,,,
37,1,Memory,0,,,,,,,00780960530fa.jpg,,,,,,,,,,,,,,,
38,1,Memory,0,,,,,,,00800941205fb.jpg,,,,,,,,,,,,,,,
39,1,Memory,0,,,,,,,sunafxokyavhgptyfye.jpg,,,,,,,,,,,,,,,
40,1,Memory,0,,,,,,,01007960627fa.jpg,,,,,,,,,,,,,,,
41,1,Memory,0,,,,,,,sunaawqdbpihmlbwyyn.jpg,,,,,,,,,,,,,,,
42,1,Memory,0,,,,,,,sunagetqixeypsysbpn.jpg,,,,,,,,,,,,,,,
43,1,Memory,0,,,,,,,00146960620fb.jpg,,,,,,,,,,,,,,,
44,1,Memory,0,,,,,,,00776941205fa.jpg,,,,,,,,,,,,,,,
45,1,Memory,0,,,,,,,sunaecpkgfewqqreqwe.jpg,,,,,,,,,,,,,,,
46,1,Memory,0,,,,,,,00979960627fa.jpg,,,,,,,,,,,,,,,
47,1,Memory,0,,,,,,,00785941205fa.jpg,,,,,,,,,,,,,,,
48,1,Memory,0,,,,,,,sunaglqunwuycxydmyu.jpg,,,,,,,,,,,,,,,
49,1,Memory,0,,,,,,,00092931230fa.jpg,,,,,,,,,,,,,,,
50,1,Presentation,1,00663941121fa_sunadnjjzohjhbohlwq.jpg,00507940519fa_sunacacflqoyxhsqzhe.jpg,00663941121fa.jpg,sunadnjjzohjhbohlwq.jpg,00507940519fa.jpg,sunacacflqoyxhsqzhe.jpg,,,>,Place,,,,,1,,,,,,,x
51,1,Presentation,1,00163931230fb_sunaavodbcpygkggnfp.jpg,00944960627fa_sunasbbntuiheekqyaq.jpg,00163931230fb.jpg,sunaavodbcpygkggnfp.jpg,00944960627fa.jpg,sunasbbntuiheekqyaq.jpg,,,<,Face,,,,,1,,,,,,,x
52,1,Presentation,1,00947960627fa_sunasmmcxdddtmtazwx.jpg,00973960627fa_sunbbgtoeuzierkkajt.jpg,00947960627fa.jpg,sunasmmcxdddtmtazwx.jpg,00973960627fa.jpg,sunbbgtoeuzierkkajt.jpg,,,<,Place,,,,,1,,,,,,,o
53,1,Presentation,1,00265940128fb_sunabkmdplkdbvxriff.jpg,00957960627fa_sunavhxgmgrqsaptynb.jpg,00265940128fb.jpg,sunabkmdplkdbvxriff.jpg,00957960627fa.jpg,sunavhxgmgrqsaptynb.jpg,,,<,Face,,,,,1,,,,,,,x
54,1,Presentation,1,00984960627fa_sunbfzchmomnvzhbxdg.jpg,00290940422fa_sunabqowuarvqqcnipn.jpg,00984960627fa.jpg,sunbfzchmomnvzhbxdg.jpg,00290940422fa.jpg,sunabqowuarvqqcnipn.jpg,,,<,Place,,,,,1,,,,,,,o
55,1,Presentation,1,00306940422fa_sunabueyoajufbkraki.jpg,00989960627fa_sunbondbduabvijnmch.jpg,00306940422fa.jpg,sunabueyoajufbkraki.jpg,00989960627fa.jpg,sunbondbduabvijnmch.jpg,,,>,Face,,,,,1,,,,,,,o
56,1,Presentation,1,00725941201fa_sunaefgzwiramypjvtd.jpg,00884960530fa_sunakodkcslgqhqlgwl.jpg,00725941201fa.jpg,sunaefgzwiramypjvtd.jpg,00884960530fa.jpg,sunakodkcslgqhqlgwl.jpg,,,<,Face,,,,,1,,,,,,,x
57,1,Presentation,1,00131931230fb_sunaangbuylfvckqqoo.jpg,00101931230fb_sunaajqmsaavkmgbsth.jpg,00131931230fb.jpg,sunaangbuylfvckqqoo.jpg,00101931230fb.jpg,sunaajqmsaavkmgbsth.jpg,,,>,Place,,,,,1,,,,,,,x
58,1,Presentation,1,00316940422fa_sunabxmguapjekttvwm.jpg,00719941201fa_sunadvithllcgmfxsrn.jpg,00316940422fa.jpg,sunabxmguapjekttvwm.jpg,00719941201fa.jpg,sunadvithllcgmfxsrn.jpg,,,>,Place,,,,,1,,,,,,,x
59,1,Presentation,1,01004960627fa_sunbwtlihsuptkrckid.jpg,00834940307fa_sunaibnpvhkdpdnzcnz.jpg,01004960627fa.jpg,sunbwtlihsuptkrckid.jpg,00834940307fa.jpg,sunaibnpvhkdpdnzcnz.jpg,,,>,Face,,,,,1,,,,,,,x
60,1,Memory,1,,,,,,,sunasmmcxdddtmtazwx.jpg,,,,,,,,,,,,,,,
61,1,Memory,1,,,,,,,01004960627fa.jpg,,,,,,,,,,,,,,,
62,1,Memory,1,,,,,,,sunadnjjzohjhbohlwq.jpg,,,,,,,,,,,,,,,
63,1,Memory,1,,,,,,,sunakgbnzxmfohgehnu.jpg,,,,,,,,,,,,,,,
64,1,Memory,1,,,,,,,sunabxmguapjekttvwm.jpg,,,,,,,,,,,,,,,
65,1,Memory,1,,,,,,,00101931230fb.jpg,,,,,,,,,,,,,,,
66,1,Memory,1,,,,,,,00115931230fa.jpg,,,,,,,,,,,,,,,
67,1,Memory,1,,,,,,,sunbwtlihsuptkrckid.jpg,,,,,,,,,,,,,,,
68,1,Memory,1,,,,,,,00743941201fa.jpg,,,,,,,,,,,,,,,
69,1,Memory,1,,,,,,,sunasbbntuiheekqyaq.jpg,,,,,,,,,,,,,,,
70,1,Memory,1,,,,,,,00944960627fa.jpg,,,,,,,,,,,,,,,
71,1,Memory,1,,,,,,,00719941201fa.jpg,,,,,,,,,,,,,,,
72,1,Memory,1,,,,,,,00947960627fa.jpg,,,,,,,,,,,,,,,
73,1,Memory,1,,,,,,,00760960620fa.jpg,,,,,,,,,,,,,,,
74,1,Memory,1,,,,,,,00163931230fb.jpg,,,,,,,,,,,,,,,
75,1,Memory,1,,,,,,,sunaeoghzrjarigmwua.jpg,,,,,,,,,,,,,,,
76,1,Memory,1,,,,,,,00834940307fa.jpg,,,,,,,,,,,,,,,
77,1,Memory,1,,,,,,,sunadvithllcgmfxsrn.jpg,,,,,,,,,,,,,,,
78,1,Memory,1,,,,,,,sunadkazmlajmohnwfl.jpg,,,,,,,,,,,,,,,
79,1,Memory,1,,,,,,,00239940128fa.jpg,,,,,,,,,,,,,,,
80,1,Memory,1,,,,,,,sunaibnpvhkdpdnzcnz.jpg,,,,,,,,,,,,,,,
81,1,Memory,1,,,,,,,sunacfdkbsrughwqwtt.jpg,,,,,,,,,,,,,,,
82,1,Memory,1,,,,,,,sunbbgtoeuzierkkajt.jpg,,,,,,,,,,,,,,,
83,1,Memory,1,,,,,,,sunaajqmsaavkmgbsth.jpg,,,,,,,,,,,,,,,
84,1,Memory,1,,,,,,,00878960530fa.jpg,,,,,,,,,,,,,,,
85,1,Memory,1,,,,,,,sunabctlikybqabezjv.jpg,,,,,,,,,,,,,,,
86,1,Memory,1,,,,,,,sunajawzbrlrwafowen.jpg,,,,,,,,,,,,,,,
87,1,Memory,1,,,,,,,sunaffstbkappprzxnv.jpg,,,,,,,,,,,,,,,
88,1,Memory,1,,,,,,,00662941121fa.jpg,,,,,,,,,,,,,,,
89,1,Memory,1,,,,,,,sunaakmxzhuceuiryah.jpg,,,,,,,,,,,,,,,
90,1,Memory,1,,,,,,,sunadrmfzmstgdjdcod.jpg,,,,,,,,,,,,,,,
91,1,Memory,1,,,,,,,00663941121fa.jpg,,,,,,,,,,,,,,,
92,1,Memory,1,,,,,,,sunaedtgwjvvziytspa.jpg,,,,,,,,,,,,,,,
93,1,Memory,1,,,,,,,00973960627fa.jpg,,,,,,,,,,,,,,,
94,1,Memory,1,,,,,,,00554940519fa.jpg,,,,,,,,,,,,,,,
95,1,Memory,1,,,,,,,00864940307fa.jpg,,,,,,,,,,,,,,,
96,1,Memory,1,,,,,,,00316940422fa.jpg,,,,,,,,,,,,,,,
97,1,Memory,1,,,,,,,00694941121fa.jpg,,,,,,,,,,,,,,,
98,1,Memory,1,,,,,,,sunaavodbcpygkggnfp.jpg,,,,,,,,,,,,,,,
99,1,Memory,1,,,,,,,00723941201fa.jpg,,,,,,,,,,,,,,,
100,1,Presentation,2,00727941205fa_sunaeisnjeetzmkbuad.jpg,00761960627fa_sunafgdqbclkwfocdhg.jpg,00727941205fa.jpg,sunaeisnjeetzmkbuad.jpg,00761960627fa.jpg,sunafgdqbclkwfocdhg.jpg,,,>,Place,,,,,1,,,,,,,o
101,1,Presentation,2,00147931230fb_sunaatpkocdkocwxpkb.jpg,00807941205fa_sunahawfngukizslzsd.jpg,00147931230fb.jpg,sunaatpkocdkocwxpkb.jpg,00807941205fa.jpg,sunahawfngukizslzsd.jpg,,,<,Face,,,,,1,,,,,,,x
102,1,Presentation,2,00913960530fa_sunaooffzffbhcpirmm.jpg,00791941205fa_sunagrmyoovzukhxmlo.jpg,00913960530fa.jpg,sunaooffzffbhcpirmm.jpg,00791941205fa.jpg,sunagrmyoovzukhxmlo.jpg,,,>,Place,,,,,1,,,,,,,x
103,1,Presentation,2,00194940128fb_sunaayehfdqcyxggsej.jpg,00815941205fa_sunahiphsekjihkafsl.jpg,00194940128fb.jpg,sunaayehfdqcyxggsej.jpg,00815941205fa.jpg,sunahiphsekjihkafsl.jpg,,,>,Face,,,,,1,,,,,,,x
104,1,Presentation,2,00638941031fa_sunadfktsqjthoglcsm.jpg,00589940928fa_sunacwggadqsfpovdjv.jpg,00638941031fa.jpg,sunadfktsqjthoglcsm.jpg,00589940928fa.jpg,sunacwggadqsfpovdjv.jpg,,,<,Place,,,,,1,,,,,,,o
105,1,Presentation,2,00796941205fa_sunaguchqqnrtodtezq.jpg,00804960530fa_sunagwswhkvnsmuszlz.jpg,00796941205fa.jpg,sunaguchqqnrtodtezq.jpg,00804960530fa.jpg,sunagwswhkvnsmuszlz.jpg,,,<,Face,,,,,1,,,,,,,o
106,1,Presentation,2,00102931230fa_sunaajspcoepticvplv.jpg,00892960530fa_sunalntxqqadigcletd.jpg,00102931230fa.jpg,sunaajspcoepticvplv.jpg,00892960530fa.jpg,sunalntxqqadigcletd.jpg,,,<,Place,,,,,1,,,,,,,o
107,1,Presentation,2,00609940928fa_sunacycdoztxoluxjyk.jpg,00211940128fa_sunabasphceswhwwqvv.jpg,00609940928fa.jpg,sunacycdoztxoluxjyk.jpg,00211940128fa.jpg,sunabasphceswhwwqvv.jpg,,,>,Place,,,,,1,,,,,,,o
108,1,Presentation,2,00836940307fa_sunainqelldeebvxtcz.jpg,00783941205fa_sunagjeesomrwjsfqie.jpg,00836940307fa.jpg,sunainqelldeebvxtcz.jpg,00783941205fa.jpg,sunagjeesomrwjsfqie.jpg,,,<,Face,,,,,1,,,,,,,x
109,1,Presentation,2,00292940422fb_sunabrjdpmoedcdjbpo.jpg,00972960627fa_sunbbfqwjpdxniyhies.jpg,00292940422fb.jpg,sunabrjdpmoedcdjbpo.jpg,00972960627fa.jpg,sunbbfqwjpdxniyhies.jpg,,,>,Face,,,,,1,,,,,,,o
110,1,Memory,2,,,,,,,00136931230fb.jpg,,,,,,,,,,,,,,,
111,1,Memory,2,,,,,,,00774941201fa.jpg,,,,,,,,,,,,,,,
112,1,Memory,2,,,,,,,00609940928fa.jpg,,,,,,,,,,,,,,,
113,1,Memory,2,,,,,,,00700941121fa.jpg,,,,,,,,,,,,,,,
114,1,Memory,2,,,,,,,00271940422fa.jpg,,,,,,,,,,,,,,,
115,1,Memory,2,,,,,,,sunabxsbfwjccqxxzxq.jpg,,,,,,,,,,,,,,,
116,1,Memory,2,,,,,,,sunabmbnddafmywtjjj.jpg,,,,,,,,,,,,,,,
117,1,Memory,2,,,,,,,01009960627fa.jpg,,,,,,,,,,,,,,,
118,1,Memory,2,,,,,,,sunafvtpfczkzopbgue.jpg,,,,,,,,,,,,,,,
119,1,Memory,2,,,,,,,sunalntxqqadigcletd.jpg,,,,,,,,,,,,,,,
120,1,Memory,2,,,,,,,00804960530fa.jpg,,,,,,,,,,,,,,,
121,1,Memory,2,,,,,,,00292940422fb.jpg,,,,,,,,,,,,,,,
122,1,Memory,2,,,,,,,00972960627fa.jpg,,,,,,,,,,,,,,,
123,1,Memory,2,,,,,,,sunabrjdpmoedcdjbpo.jpg,,,,,,,,,,,,,,,
124,1,Memory,2,,,,,,,sunabjzyxcjnmztdonj.jpg,,,,,,,,,,,,,,,
125,1,Memory,2,,,,,,,sunbloeoiozwjjsiamp.jpg,,,,,,,,,,,,,,,
126,1,Memory,2,,,,,,,sunadfktsqjthoglcsm.jpg,,,,,,,,,,,,,,,
127,1,Memory,2,,,,,,,sunaguchqqnrtodtezq.jpg,,,,,,,,,,,,,,,
128,1,Memory,2,,,,,,,00892960530fa.jpg,,,,,,,,,,,,,,,
129,1,Memory,2,,,,,,,00796941205fa.jpg,,,,,,,,,,,,,,,
130,1,Memory,2,,,,,,,sunaprnrbmgkomdbchr.jpg,,,,,,,,,,,,,,,
131,1,Memory,2,,,,,,,00211940128fa.jpg,,,,,,,,,,,,,,,
132,1,Memory,2,,,,,,,sunabasphceswhwwqvv.jpg,,,,,,,,,,,,,,,
133,1,Memory,2,,,,,,,00929960627fa.jpg,,,,,,,,,,,,,,,
134,1,Memory,2,,,,,,,00987960627fa.jpg,,,,,,,,,,,,,,,
135,1,Memory,2,,,,,,,sunbbfqwjpdxniyhies.jpg,,,,,,,,,,,,,,,
136,1,Memory,2,,,,,,,sunaanptmsknhirrzed.jpg,,,,,,,,,,,,,,,
137,1,Memory,2,,,,,,,00194940128fb.jpg,,,,,,,,,,,,,,,
138,1,Memory,2,,,,,,,sunadsgmtznewzyasnk.jpg,,,,,,,,,,,,,,,
139,1,Memory,2,,,,,,,00857940307fa.jpg,,,,,,,,,,,,,,,
140,1,Memory,2,,,,,,,00264940128fb.jpg,,,,,,,,,,,,,,,
141,1,Memory,2,,,,,,,00589940928fa.jpg,,,,,,,,,,,,,,,
142,1,Memory,2,,,,,,,sunacwggadqsfpovdjv.jpg,,,,,,,,,,,,,,,
143,1,Memory,2,,,,,,,sunbxzweleltykebgan.jpg,,,,,,,,,,,,,,,
144,1,Memory,2,,,,,,,sunacycdoztxoluxjyk.jpg,,,,,,,,,,,,,,,
145,1,Memory,2,,,,,,,sunagwswhkvnsmuszlz.jpg,,,,,,,,,,,,,,,
146,1,Memory,2,,,,,,,sunaiwfobocrruqznsv.jpg,,,,,,,,,,,,,,,
147,1,Memory,2,,,,,,,00479940519fa.jpg,,,,,,,,,,,,,,,
148,1,Memory,2,,,,,,,00638941031fa.jpg,,,,,,,,,,,,,,,
149,1,Memory,2,,,,,,,sunaayehfdqcyxggsej.jpg,,,,,,,,,,,,,,,
150,1,Presentation,3,00787960620fa_sunagoufulkpsxrmklt.jpg,00302940422fa_sunabtlfmiwtljmoues.jpg,00787960620fa.jpg,sunagoufulkpsxrmklt.jpg,00302940422fa.jpg,sunabtlfmiwtljmoues.jpg,,,<,Face,,,,,0,,,,,,,o
151,1,Presentation,3,00630941031fa_sunadakkdovnuzlycvp.jpg,00294940422fb_sunabrlndkruqokhury.jpg,00630941031fa.jpg,sunadakkdovnuzlycvp.jpg,00294940422fb.jpg,sunabrlndkruqokhury.jpg,,,<,Place,,,,,1,,,,,,,o
152,1,Presentation,3,00910960530fa_sunaofikylqtxphvdem.jpg,00751960620fa_sunaezuszgtxnmsxdbk.jpg,00910960530fa.jpg,sunaofikylqtxphvdem.jpg,00751960620fa.jpg,sunaezuszgtxnmsxdbk.jpg,,,<,Face,,,,,1,,,,,,,x
153,1,Presentation,3,00869940307fa_sunajoveqhiprwqgoco.jpg,00906960530fa_sunantryfbloeaomfta.jpg,00869940307fa.jpg,sunajoveqhiprwqgoco.jpg,00906960530fa.jpg,sunantryfbloeaomfta.jpg,,,>,Place,,,,,1,,,,,,,x
154,1,Presentation,3,00125931230fa_sunaalltyvjhbzhkmvg.jpg,00891960530fa_sunalkiibhqpxfamlll.jpg,00125931230fa.jpg,sunaalltyvjhbzhkmvg.jpg,00891960530fa.jpg,sunalkiibhqpxfamlll.jpg,,,>,Face,,,,,1,,,,,,,o
155,1,Presentation,3,00801941205fa_sunagvprlbprarvgdvj.jpg,00122931230fa_sunaakxjfbrrequcjmx.jpg,00801941205fa.jpg,sunagvprlbprarvgdvj.jpg,00122931230fa.jpg,sunaakxjfbrrequcjmx.jpg,,,>,Face,,,,,1,,,,,,,o
156,1,Presentation,3,00080931230fb_sunaafjszryxyavjzln.jpg,00741941201fa_sunaemcowdozyphwknd.jpg,00080931230fb.jpg,sunaafjszryxyavjzln.jpg,00741941201fa.jpg,sunaemcowdozyphwknd.jpg,,,<,Place,,,,,1,,,,,,,o
157,1,Presentation,3,00077931230fb_sunaafgqutfaishsxyu.jpg,00880960530fa_sunakmnfgklupjijsgf.jpg,00077931230fb.jpg,sunaafgqutfaishsxyu.jpg,00880960530fa.jpg,sunakmnfgklupjijsgf.jpg,,,<,Place,,,,,1,,,,,,,x
158,1,Presentation,3,00762941201fa_sunafgzgbisbopcyslr.jpg,00634940928fa_sunadcphrizvfpljiqt.jpg,00762941201fa.jpg,sunafgzgbisbopcyslr.jpg,00634940928fa.jpg,sunadcphrizvfpljiqt.jpg,,,>,Face,,,,,1,,,,,,,o
159,1,Presentation,3,00631940928fa_sunadbdqzigzwipuipr.jpg,00742941201fa_sunaenwuebvlpdmntju.jpg,00631940928fa.jpg,sunadbdqzigzwipuipr.jpg,00742941201fa.jpg,sunaenwuebvlpdmntju.jpg,,,>,Place,,,,,1,,,,,,,o
160,1,Memory,3,,,,,,,sunadakkdovnuzlycvp.jpg,,,,,,,,,,,,,,,
161,1,Memory,3,,,,,,,00598941031fa.jpg,,,,,,,,,,,,,,,
162,1,Memory,3,,,,,,,00741941201fa.jpg,,,,,,,,,,,,,,,
163,1,Memory,3,,,,,,,sunaemcowdozyphwknd.jpg,,,,,,,,,,,,,,,
164,1,Memory,3,,,,,,,00829940307fa.jpg,,,,,,,,,,,,,,,
165,1,Memory,3,,,,,,,sunaakjaacuzulqckgl.jpg,,,,,,,,,,,,,,,
166,1,Memory,3,,,,,,,sunabrwnslxalcohfre.jpg,,,,,,,,,,,,,,,
167,1,Memory,3,,,,,,,sunbvbrvgbpanfrawft.jpg,,,,,,,,,,,,,,,
168,1,Memory,3,,,,,,,00296940422fa.jpg,,,,,,,,,,,,,,,
169,1,Memory,3,,,,,,,sunaakxjfbrrequcjmx.jpg,,,,,,,,,,,,,,,
170,1,Memory,3,,,,,,,sunaalltyvjhbzhkmvg.jpg,,,,,,,,,,,,,,,
171,1,Memory,3,,,,,,,sunaofikylqtxphvdem.jpg,,,,,,,,,,,,,,,
172,1,Memory,3,,,,,,,sunbddbivbptlrlauhy.jpg,,,,,,,,,,,,,,,
173,1,Memory,3,,,,,,,sunahwgbqkqcrwprgvh.jpg,,,,,,,,,,,,,,,
174,1,Memory,3,,,,,,,00999960627fa.jpg,,,,,,,,,,,,,,,
175,1,Memory,3,,,,,,,00978960627fa.jpg,,,,,,,,,,,,,,,
176,1,Memory,3,,,,,,,00647941031fa.jpg,,,,,,,,,,,,,,,
177,1,Memory,3,,,,,,,00122931230fa.jpg,,,,,,,,,,,,,,,
178,1,Memory,3,,,,,,,00125931230fa.jpg,,,,,,,,,,,,,,,
179,1,Memory,3,,,,,,,00631940928fa.jpg,,,,,,,,,,,,,,,
180,1,Memory,3,,,,,,,00630941031fa.jpg,,,,,,,,,,,,,,,
181,1,Memory,3,,,,,,,sunarceibpcyacbmfga.jpg,,,,,,,,,,,,,,,
182,1,Memory,3,,,,,,,00762941201fa.jpg,,,,,,,,,,,,,,,
183,1,Memory,3,,,,,,,sunadbdqzigzwipuipr.jpg,,,,,,,,,,,,,,,
184,1,Memory,3,,,,,,,sunakmnfgklupjijsgf.jpg,,,,,,,,,,,,,,,
185,1,Memory,3,,,,,,,sunadflbrkckmepztql.jpg,,,,,,,,,,,,,,,
186,1,Memory,3,,,,,,,sunaampvucecsfbdafn.jpg,,,,,,,,,,,,,,,
187,1,Memory,3,,,,,,,00133931230fa.jpg,,,,,,,,,,,,,,,
188,1,Memory,3,,,,,,,00742941201fa.jpg,,,,,,,,,,,,,,,
189,1,Memory,3,,,,,,,sunacxtcahkymosigud.jpg,,,,,,,,,,,,,,,
190,1,Memory,3,,,,,,,00294940422fb.jpg,,,,,,,,,,,,,,,
191,1,Memory,3,,,,,,,00127931230fa.jpg,,,,,,,,,,,,,,,
192,1,Memory,3,,,,,,,sunabrlndkruqokhury.jpg,,,,,,,,,,,,,,,
193,1,Memory,3,,,,,,,00112931230fa.jpg,,,,,,,,,,,,,,,
194,1,Memory,3,,,,,,,sunaenwuebvlpdmntju.jpg,,,,,,,,,,,,,,,
195,1,Memory,3,,,,,,,00939960627fa.jpg,,,,,,,,,,,,,,,
196,1,Memory,3,,,,,,,00880960530fa.jpg,,,,,,,,,,,,,,,
197,1,Memory,3,,,,,,,00910960530fa.jpg,,,,,,,,,,,,,,,
198,1,Memory,3,,,,,,,sunafgzgbisbopcyslr.jpg,,,,,,,,,,,,,,,
199,1,Memory,3,,,,,,,sunaanlwnpqndclffxt.jpg,,,,,,,,,,,,,,,
200,1,Presentation,4,00728941205fa_sunaejnvnpltdmhbcsi.jpg,00705960530fa_sunaduslxfzlbxlllnz.jpg,00728941205fa.jpg,sunaejnvnpltdmhbcsi.jpg,00705960530fa.jpg,sunaduslxfzlbxlllnz.jpg,,,>,Place,,,,,1,,,,,,,x
201,1,Presentation,4,00903960620fa_sunanainkqdvktzoxyl.jpg,00126931230fb_sunaamdjwemxpmmtypi.jpg,00903960620fa.jpg,sunanainkqdvktzoxyl.jpg,00126931230fb.jpg,sunaamdjwemxpmmtypi.jpg,,,>,Face,,,,,1,,,,,,,o
202,1,Presentation,4,00871940307_sunajrujcsdxmfbssmc.jpg,00770941201fa_sunaflojskatpeqyzqp.jpg,00871940307.jpg,sunajrujcsdxmfbssmc.jpg,00770941201fa.jpg,sunaflojskatpeqyzqp.jpg,,,>,Face,,,,,1,,,,,,,o
203,1,Presentation,4,00576941031fa_sunacvjlsylseoghjup.jpg,00193940928fa_sunaaxjpzcnxligjtjq.jpg,00576941031fa.jpg,sunacvjlsylseoghjup.jpg,00193940928fa.jpg,sunaaxjpzcnxligjtjq.jpg,,,<,Face,,,,,1,,,,,,,o
204,1,Presentation,4,00116931230fa_sunaakqepfoeqomfgxf.jpg,00985960627fa_sunbgklxeqjhdbyfhhy.jpg,00116931230fa.jpg,sunaakqepfoeqomfgxf.jpg,00985960627fa.jpg,sunbgklxeqjhdbyfhhy.jpg,,,>,Face,,,,,1,,,,,,,x
205,1,Presentation,4,00993960627fa_sunbprywzqxjcezkbch.jpg,00069931230fb_sunaaeowapdkwzqpgqr.jpg,00993960627fa.jpg,sunbprywzqxjcezkbch.jpg,00069931230fb.jpg,sunaaeowapdkwzqpgqr.jpg,,,<,Place,,,,,1,,,,,,,o
206,1,Presentation,4,00132931230fb_sunaanjcbzdvtvblsdy.jpg,00559940519fa_sunacjkmnpawfzbyvae.jpg,00132931230fb.jpg,sunaanjcbzdvtvblsdy.jpg,00559940519fa.jpg,sunacjkmnpawfzbyvae.jpg,,,>,Place,,,,,1,,,,,,,x
207,1,Presentation,4,00893960530Fa_sunaloffvbvysigxent.jpg,00996960627fa_sunbpvgllfdejxcpjqp.jpg,00893960530Fa.jpg,sunaloffvbvysigxent.jpg,00996960627fa.jpg,sunbpvgllfdejxcpjqp.jpg,,,<,Place,,,,,1,,,,,,,o
208,1,Presentation,4,00763941205fa_sunafhmnhsdurlvddpw.jpg,00943960627fa_sunarpsxqkduedrrzyi.jpg,00763941205fa.jpg,sunafhmnhsdurlvddpw.jpg,00943960627fa.jpg,sunarpsxqkduedrrzyi.jpg,,,<,Face,,,,,1,,,,,,,x
209,1,Presentation,4,00532960627fa_sunaccdtpgenvcbcbcf.jpg,00108960530fa_sunaajtnvzzpsjdzres.jpg,00532960627fa.jpg,sunaccdtpgenvcbcbcf.jpg,00108960530fa.jpg,sunaajtnvzzpsjdzres.jpg,,,<,Place,,,,,1,,,,,,,x
210,1,Memory,4,,,,,,,00943960627fa.jpg,,,,,,,,,,,,,,,
211,1,Memory,4,,,,,,,sunagtqhhwxjeuxdebe.jpg,,,,,,,,,,,,,,,
212,1,Memory,4,,,,,,,00993960627fa.jpg,,,,,,,,,,,,,,,
213,1,Memory,4,,,,,,,sunaakqepfoeqomfgxf.jpg,,,,,,,,,,,,,,,
214,1,Memory,4,,,,,,,00871940307.jpg,,,,,,,,,,,,,,,
215,1,Memory,4,,,,,,,sunabwfvcqqidycwypa.jpg,,,,,,,,,,,,,,,
216,1,Memory,4,,,,,,,sunaajtnvzzpsjdzres.jpg,,,,,,,,,,,,,,,
217,1,Memory,4,,,,,,,sunaflojskatpeqyzqp.jpg,,,,,,,,,,,,,,,
218,1,Memory,4,,,,,,,00797960620fa.jpg,,,,,,,,,,,,,,,
219,1,Memory,4,,,,,,,sunanaacmmosxrfwmvl.jpg,,,,,,,,,,,,,,,
220,1,Memory,4,,,,,,,00985960627fa.jpg,,,,,,,,,,,,,,,
221,1,Memory,4,,,,,,,sunaduslxfzlbxlllnz.jpg,,,,,,,,,,,,,,,
222,1,Memory,4,,,,,,,00116931230fa.jpg,,,,,,,,,,,,,,,
223,1,Memory,4,,,,,,,00966960627fa.jpg,,,,,,,,,,,,,,,
224,1,Memory,4,,,,,,,00096931230fa.jpg,,,,,,,,,,,,,,,
225,1,Memory,4,,,,,,,sunbprywzqxjcezkbch.jpg,,,,,,,,,,,,,,,
226,1,Memory,4,,,,,,,00770941201fa.jpg,,,,,,,,,,,,,,,
227,1,Memory,4,,,,,,,sunafhmnhsdurlvddpw.jpg,,,,,,,,,,,,,,,
228,1,Memory,4,,,,,,,sunaejnvnpltdmhbcsi.jpg,,,,,,,,,,,,,,,
229,1,Memory,4,,,,,,,sunadqmjrhfjyuzyvdd.jpg,,,,,,,,,,,,,,,
230,1,Memory,4,,,,,,,sunbgklxeqjhdbyfhhy.jpg,,,,,,,,,,,,,,,
231,1,Memory,4,,,,,,,sunarpsxqkduedrrzyi.jpg,,,,,,,,,,,,,,,
232,1,Memory,4,,,,,,,sunaaiqiqcggrskoqgy.jpg,,,,,,,,,,,,,,,
233,1,Memory,4,,,,,,,00681941121fa.jpg,,,,,,,,,,,,,,,
234,1,Memory,4,,,,,,,sunbaejotfklekvpxcz.jpg,,,,,,,,,,,,,,,
235,1,Memory,4,,,,,,,sunaeutbrtswvsozxyk.jpg,,,,,,,,,,,,,,,
236,1,Memory,4,,,,,,,00794960620fa.jpg,,,,,,,,,,,,,,,
237,1,Memory,4,,,,,,,sunagufzbeteqdjxais.jpg,,,,,,,,,,,,,,,
238,1,Memory,4,,,,,,,00581940928fa.jpg,,,,,,,,,,,,,,,
239,1,Memory,4,,,,,,,00308940422fb.jpg,,,,,,,,,,,,,,,
240,1,Memory,4,,,,,,,00763941205fa.jpg,,,,,,,,,,,,,,,
241,1,Memory,4,,,,,,,sunaygrtwrwfezqjizr.jpg,,,,,,,,,,,,,,,
242,1,Memory,4,,,,,,,00108960530fa.jpg,,,,,,,,,,,,,,,
243,1,Memory,4,,,,,,,sunajrujcsdxmfbssmc.jpg,,,,,,,,,,,,,,,
244,1,Memory,4,,,,,,,00902960530fa.jpg,,,,,,,,,,,,,,,
245,1,Memory,4,,,,,,,00747941201fa.jpg,,,,,,,,,,,,,,,
246,1,Memory,4,,,,,,,00967960627fa.jpg,,,,,,,,,,,,,,,
247,1,Memory,4,,,,,,,00728941205fa.jpg,,,,,,,,,,,,,,,
248,1,Memory,4,,,,,,,00705960530fa.jpg,,,,,,,,,,,,,,,
249,1,Memory,4,,,,,,,sunacvzhvcksnwqcqbw.jpg,,,,,,,,,,,,,,,
250,1,Presentation,5,00828940307fa_sunahuynahneraqftyz.jpg,00778941205fa_sunagcthdfirrcawoic.jpg,00828940307fa.jpg,sunahuynahneraqftyz.jpg,00778941205fa.jpg,sunagcthdfirrcawoic.jpg,,,<,Place,,,,,1,,,,,,,o
251,1,Presentation,5,00564941031fa_sunacsaovnjezqwbykf.jpg,00081941031fa_sunaaftlyfudyzuhqzf.jpg,00564941031fa.jpg,sunacsaovnjezqwbykf.jpg,00081941031fa.jpg,sunaaftlyfudyzuhqzf.jpg,,,<,Face,,,,,1,,,,,,,o
252,1,Presentation,5,00827940307fa_sunahtfxgsrmkiulnwk.jpg,00070940307fa_sunaaeplwsfslcbtojr.jpg,00827940307fa.jpg,sunahtfxgsrmkiulnwk.jpg,00070940307fa.jpg,sunaaeplwsfslcbtojr.jpg,,,>,Face,,,,,1,,,,,,,o
253,1,Presentation,5,00786941205fa_sunagmhildamktmqjss.jpg,00620940928fa_sunacypmnujalygkunp.jpg,00786941205fa.jpg,sunagmhildamktmqjss.jpg,00620940928fa.jpg,sunacypmnujalygkunp.jpg,,,<,Face,,,,,1,,,,,,,o
254,1,Presentation,5,00937960627fa_sunaqsolmfydodnakub.jpg,00145931230fb_sunaatjesvdupctftmn.jpg,00937960627fa.jpg,sunaqsolmfydodnakub.jpg,00145931230fb.jpg,sunaatjesvdupctftmn.jpg,,,>,Place,,,,,1,,,,,,,x
255,1,Presentation,5,00138931230fa_sunaapfaivxqoynnwwp.jpg,00915960620fa_sunapileznnbbmrwoei.jpg,00138931230fa.jpg,sunaapfaivxqoynnwwp.jpg,00915960620fa.jpg,sunapileznnbbmrwoei.jpg,,,>,Place,,,,,0,,,,,,,o
256,1,Presentation,5,00854940307fa_sunaiwduelojtwaqeyh.jpg,00481940519fa_sunabxsuqbleluwczoy.jpg,00854940307fa.jpg,sunaiwduelojtwaqeyh.jpg,00481940519fa.jpg,sunabxsuqbleluwczoy.jpg,,,>,Face,,,,,1,,,,,,,o
257,1,Presentation,5,00752960620fa_sunafbwnojpqeyzssoe.jpg,00636941031fa_sunaddtdkycxbqlpfqa.jpg,00752960620fa.jpg,sunafbwnojpqeyzssoe.jpg,00636941031fa.jpg,sunaddtdkycxbqlpfqa.jpg,,,<,Place,,,,,1,,,,,,,o
258,1,Presentation,5,00060931230fa_sunaaehaikpckyjsety.jpg,00153931230fa_sunaauhozyxzeeqstxi.jpg,00060931230fa.jpg,sunaaehaikpckyjsety.jpg,00153931230fa.jpg,sunaauhozyxzeeqstxi.jpg,,,<,Place,,,,,1,,,,,,,o
259,1,Presentation,5,00564940928fa_sunacmpqqfbsvlzinzl.jpg,00792941205fa_sunagsiwrmuixqgdimb.jpg,00564940928fa.jpg,sunacmpqqfbsvlzinzl.jpg,00792941205fa.jpg,sunagsiwrmuixqgdimb.jpg,,,>,Face,,,,,1,,,,,,,o
260,1,Memory,5,,,,,,,00543940519fa.jpg,,,,,,,,,,,,,,,
261,1,Memory,5,,,,,,,01002960627fb.jpg,,,,,,,,,,,,,,,
262,1,Memory,5,,,,,,,sunaaeplwsfslcbtojr.jpg,,,,,,,,,,,,,,,
263,1,Memory,5,,,,,,,sunacepzfrmtkiqonpy.jpg,,,,,,,,,,,,,,,
264,1,Memory,5,,,,,,,sunafbwnojpqeyzssoe.jpg,,,,,,,,,,,,,,,
265,1,Memory,5,,,,,,,00081941031fa.jpg,,,,,,,,,,,,,,,
266,1,Memory,5,,,,,,,00778941205fa.jpg,,,,,,,,,,,,,,,
267,1,Memory,5,,,,,,,sunaooaqzputrowwbsw.jpg,,,,,,,,,,,,,,,
268,1,Memory,5,,,,,,,00847940307fa.jpg,,,,,,,,,,,,,,,
269,1,Memory,5,,,,,,,00070940307fa.jpg,,,,,,,,,,,,,,,
270,1,Memory,5,,,,,,,sunagcthdfirrcawoic.jpg,,,,,,,,,,,,,,,
271,1,Memory,5,,,,,,,00483940519fa.jpg,,,,,,,,,,,,,,,
272,1,Memory,5,,,,,,,sunahgtbwgsmtqeodwh.jpg,,,,,,,,,,,,,,,
273,1,Memory,5,,,,,,,sunadpnqovzckyikrjo.jpg,,,,,,,,,,,,,,,
274,1,Memory,5,,,,,,,sunaaehaikpckyjsety.jpg,,,,,,,,,,,,,,,
275,1,Memory,5,,,,,,,00564941031fa.jpg,,,,,,,,,,,,,,,
276,1,Memory,5,,,,,,,sunagmhildamktmqjss.jpg,,,,,,,,,,,,,,,
277,1,Memory,5,,,,,,,sunacsaovnjezqwbykf.jpg,,,,,,,,,,,,,,,
278,1,Memory,5,,,,,,,sunacypmnujalygkunp.jpg,,,,,,,,,,,,,,,
279,1,Memory,5,,,,,,,00564940928fa.jpg,,,,,,,,,,,,,,,
280,1,Memory,5,,,,,,,00620940928fa.jpg,,,,,,,,,,,,,,,
281,1,Memory,5,,,,,,,sunbwaafjdebjzttuvq.jpg,,,,,,,,,,,,,,,
282,1,Memory,5,,,,,,,00481940519fa.jpg,,,,,,,,,,,,,,,
283,1,Memory,5,,,,,,,sunaipyohrqlwngaqif.jpg,,,,,,,,,,,,,,,
284,1,Memory,5,,,,,,,sunabyvpwkgsjtijdwj.jpg,,,,,,,,,,,,,,,
285,1,Memory,5,,,,,,,00786941205fa.jpg,,,,,,,,,,,,,,,
286,1,Memory,5,,,,,,,sunabclssnoeuigtawp.jpg,,,,,,,,,,,,,,,
287,1,Memory,5,,,,,,,sunalqmfgeadpqsyzpd.jpg,,,,,,,,,,,,,,,
288,1,Memory,5,,,,,,,00894960620fa.jpg,,,,,,,,,,,,,,,
289,1,Memory,5,,,,,,,00060931230fa.jpg,,,,,,,,,,,,,,,
290,1,Memory,5,,,,,,,sunaivdjruhkrfywfed.jpg,,,,,,,,,,,,,,,
291,1,Memory,5,,,,,,,sunaaftlyfudyzuhqzf.jpg,,,,,,,,,,,,,,,
292,1,Memory,5,,,,,,,00911960530fa.jpg,,,,,,,,,,,,,,,
293,1,Memory,5,,,,,,,00839940307fa.jpg,,,,,,,,,,,,,,,
294,1,Memory,5,,,,,,,00812941205fa.jpg,,,,,,,,,,,,,,,
295,1,Memory,5,,,,,,,sunacmpqqfbsvlzinzl.jpg,,,,,,,,,,,,,,,
296,1,Memory,5,,,,,,,00235940128fb.jpg,,,,,,,,,,,,,,,
297,1,Memory,5,,,,,,,00752960620fa.jpg,,,,,,,,,,,,,,,
298,1,Memory,5,,,,,,,00676941121fa.jpg,,,,,,,,,,,,,,,
299,1,Memory,5,,,,,,,sunabxsuqbleluwczoy.jpg,,,,,,,,,,,,,,,
300,1,Presentation,6,00766960620fa_sunafijbgncijwykrnl.jpg,00221940128fa_sunabcfpwlpolnutyju.jpg,00766960620fa.jpg,sunafijbgncijwykrnl.jpg,00221940128fa.jpg,sunabcfpwlpolnutyju.jpg,,,<,Face,,,,,1,,,,,,,o
301,1,Presentation,6,00799941205fa_sunagutjvdvnhxejerz.jpg,00870940307fa_sunajrgtewnualfcerj.jpg,00799941205fa.jpg,sunagutjvdvnhxejerz.jpg,00870940307fa.jpg,sunajrgtewnualfcerj.jpg,,,>,Face,,,,,1,,,,,,,o
302,1,Presentation,6,00909960530_sunaobtizabegtwfwul.jpg,00818940307fa_sunahpblecxtmuzkmxb.jpg,00909960530.jpg,sunaobtizabegtwfwul.jpg,00818940307fa.jpg,sunahpblecxtmuzkmxb.jpg,,,<,Place,,,,,1,,,,,,,o
303,1,Presentation,6,00983960627fa_sunbfyvfqiimvdaxlqn.jpg,00782941205fa_sunagfvluwixdsozaql.jpg,00983960627fa.jpg,sunbfyvfqiimvdaxlqn.jpg,00782941205fa.jpg,sunagfvluwixdsozaql.jpg,,,<,Place,,,,,1,,,,,,,x
304,1,Presentation,6,00119931230fb_sunaakvmbftkrgqhjun.jpg,00650941031fa_sunadikxpvqeabxrvvc.jpg,00119931230fb.jpg,sunaakvmbftkrgqhjun.jpg,00650941031fa.jpg,sunadikxpvqeabxrvvc.jpg,,,<,Place,,,,,1,,,,,,,x
305,1,Presentation,6,00648941031fa_sunadfndyrtqqiasoig.jpg,00129931230fb_sunaamsdyakblkfoydx.jpg,00648941031fa.jpg,sunadfndyrtqqiasoig.jpg,00129931230fb.jpg,sunaamsdyakblkfoydx.jpg,,,>,Face,,,,,1,,,,,,,x
306,1,Presentation,6,00270940422fb_sunabllobxadqcyttej.jpg,00568940928fa_sunacsdhbbsybcyxnel.jpg,00270940422fb.jpg,sunabllobxadqcyttej.jpg,00568940928fa.jpg,sunacsdhbbsybcyxnel.jpg,,,>,Face,,,,,1,,,,,,,x
307,1,Presentation,6,00773941201fa_sunafvcflzhlqloapyo.jpg,00775941205fa_sunafvwfsmqkjrutjta.jpg,00773941201fa.jpg,sunafvcflzhlqloapyo.jpg,00775941205fa.jpg,sunafvwfsmqkjrutjta.jpg,,,>,Place,,,,,1,,,,,,,x
308,1,Presentation,6,00562941031fa_sunacjnahdmqfnjfwqx.jpg,00098931230fa_sunaajpqmulidejvjsr.jpg,00562941031fa.jpg,sunacjnahdmqfnjfwqx.jpg,00098931230fa.jpg,sunaajpqmulidejvjsr.jpg,,,<,Face,,,,,1,,,,,,,x
309,1,Presentation,6,00887960530_sunalcrtwiycqobgelp.jpg,00838940307fa_sunaiozxhxgtfrmoagh.jpg,00887960530.jpg,sunalcrtwiycqobgelp.jpg,00838940307fa.jpg,sunaiozxhxgtfrmoagh.jpg,,,>,Place,,,,,0,,,,,,,o
310,1,Memory,6,,,,,,,00965960627fa.jpg,,,,,,,,,,,,,,,
311,1,Memory,6,,,,,,,00983960627fa.jpg,,,,,,,,,,,,,,,
312,1,Memory,6,,,,,,,sunahpblecxtmuzkmxb.jpg,,,,,,,,,,,,,,,
313,1,Memory,6,,,,,,,00773941201fa.jpg,,,,,,,,,,,,,,,
314,1,Memory,6,,,,,,,00860940307fa.jpg,,,,,,,,,,,,,,,
315,1,Memory,6,,,,,,,00909960530.jpg,,,,,,,,,,,,,,,
316,1,Memory,6,,,,,,,sunbaoizrfijvhpnnjn.jpg,,,,,,,,,,,,,,,
317,1,Memory,6,,,,,,,00969960627fa.jpg,,,,,,,,,,,,,,,
318,1,Memory,6,,,,,,,sunaakvmbftkrgqhjun.jpg,,,,,,,,,,,,,,,
319,1,Memory,6,,,,,,,00952960627fa.jpg,,,,,,,,,,,,,,,
320,1,Memory,6,,,,,,,sunaydywdmvlfddbxbk.jpg,,,,,,,,,,,,,,,
321,1,Memory,6,,,,,,,00818940307fa.jpg,,,,,,,,,,,,,,,
322,1,Memory,6,,,,,,,sunaajpqmulidejvjsr.jpg,,,,,,,,,,,,,,,
323,1,Memory,6,,,,,,,00811960530fa.jpg,,,,,,,,,,,,,,,
324,1,Memory,6,,,,,,,00280940422fb.jpg,,,,,,,,,,,,,,,
325,1,Memory,6,,,,,,,00221940128fa.jpg,,,,,,,,,,,,,,,
326,1,Memory,6,,,,,,,sunabohxbskznglnrhv.jpg,,,,,,,,,,,,,,,
327,1,Memory,6,,,,,,,sunbfyvfqiimvdaxlqn.jpg,,,,,,,,,,,,,,,
328,1,Memory,6,,,,,,,sunaeuvjbmdpknaqqaj.jpg,,,,,,,,,,,,,,,
329,1,Memory,6,,,,,,,sunaizeyhvjzknwjudw.jpg,,,,,,,,,,,,,,,
330,1,Memory,6,,,,,,,00997960627fa.jpg,,,,,,,,,,,,,,,
331,1,Memory,6,,,,,,,sunaptrqvaooxfvktvw.jpg,,,,,,,,,,,,,,,
332,1,Memory,6,,,,,,,00799941205fa.jpg,,,,,,,,,,,,,,,
333,1,Memory,6,,,,,,,sunbtpilbhhbmhmeuzq.jpg,,,,,,,,,,,,,,,
334,1,Memory,6,,,,,,,sunafvcflzhlqloapyo.jpg,,,,,,,,,,,,,,,
335,1,Memory,6,,,,,,,sunahedfrhtcwpneund.jpg,,,,,,,,,,,,,,,
336,1,Memory,6,,,,,,,sunaahwnmtqsrhocysw.jpg,,,,,,,,,,,,,,,
337,1,Memory,6,,,,,,,00870940307fa.jpg,,,,,,,,,,,,,,,
338,1,Memory,6,,,,,,,sunabcfpwlpolnutyju.jpg,,,,,,,,,,,,,,,
339,1,Memory,6,,,,,,,sunajrgtewnualfcerj.jpg,,,,,,,,,,,,,,,
340,1,Memory,6,,,,,,,00782941205fa.jpg,,,,,,,,,,,,,,,
341,1,Memory,6,,,,,,,00093931230fa.jpg,,,,,,,,,,,,,,,
342,1,Memory,6,,,,,,,sunaobtizabegtwfwul.jpg,,,,,,,,,,,,,,,
343,1,Memory,6,,,,,,,00931960627fa.jpg,,,,,,,,,,,,,,,
344,1,Memory,6,,,,,,,00119931230fb.jpg,,,,,,,,,,,,,,,
345,1,Memory,6,,,,,,,sunathzzbcwjykldrem.jpg,,,,,,,,,,,,,,,
346,1,Memory,6,,,,,,,sunagutjvdvnhxejerz.jpg,,,,,,,,,,,,,,,
347,1,Memory,6,,,,,,,00749941201fa.jpg,,,,,,,,,,,,,,,
348,1,Memory,6,,,,,,,sunagfvluwixdsozaql.jpg,,,,,,,,,,,,,,,
349,1,Memory,6,,,,,,,00098931230fa.jpg,,,,,,,,,,,,,,,
350,1,Presentation,7,00090931230fa_sunaahedjlmtqekgyvj.jpg,00988960627fa_sunbmaiocftdtvnzgap.jpg,00090931230fa.jpg,sunaahedjlmtqekgyvj.jpg,00988960627fa.jpg,sunbmaiocftdtvnzgap.jpg,,,<,Face,,,,,0,,,,,,,x
351,1,Presentation,7,00803941205fa_sunagvxkjokqimstxpe.jpg,00313940422fa_sunabwjvmoaddlyxfjr.jpg,00803941205fa.jpg,sunagvxkjokqimstxpe.jpg,00313940422fa.jpg,sunabwjvmoaddlyxfjr.jpg,,,>,Place,,,,,0,,,,,,,x
352,1,Presentation,7,00922960627fa_sunapqkyghktgtosuuk.jpg,00968960627fa_sunbagfpovqwbuexqdn.jpg,00922960627fa.jpg,sunapqkyghktgtosuuk.jpg,00968960627fa.jpg,sunbagfpovqwbuexqdn.jpg,,,>,Face,,,,,1,,,,,,,o
353,1,Presentation,7,00670941121fa_sunadochqcucscehsgk.jpg,00866940307fa_sunajbwkywmsqkldfml.jpg,00670941121fa.jpg,sunadochqcucscehsgk.jpg,00866940307fa.jpg,sunajbwkywmsqkldfml.jpg,,,>,Place,,,,,1,,,,,,,o
354,1,Presentation,7,00858940307fa_sunaixpqndlwhwjtjek.jpg,00061931230fb_sunaaekxzjzrfgtkwjf.jpg,00858940307fa.jpg,sunaixpqndlwhwjtjek.jpg,00061931230fb.jpg,sunaaekxzjzrfgtkwjf.jpg,,,<,Face,,,,,1,,,,,,,o
355,1,Presentation,7,00953960627fa_sunatstrpjxhvtbaczf.jpg,00635941031fa_sunaddsaeicthrfbkhe.jpg,00953960627fa.jpg,sunatstrpjxhvtbaczf.jpg,00635941031fa.jpg,sunaddsaeicthrfbkhe.jpg,,,<,Place,,,,,0,,,,,,,x
356,1,Presentation,7,00071940128fa_sunaaexpnawiehinlpy.jpg,00926960627Fa_sunapqwoeotxshkukbh.jpg,00071940128fa.jpg,sunaaexpnawiehinlpy.jpg,00926960627Fa.jpg,sunapqwoeotxshkukbh.jpg,,,<,Place,,,,,1,,,,,,,o
357,1,Presentation,7,00851940307fa_sunaivflshbyfrfzhqb.jpg,00162931230fb_sunaavjinpnkappuonm.jpg,00851940307fa.jpg,sunaivflshbyfrfzhqb.jpg,00162931230fb.jpg,sunaavjinpnkappuonm.jpg,,,>,Place,,,,,1,,,,,,,x
358,1,Presentation,7,00805941205fa_sunagwzdbtlixdhgolm.jpg,01005960627fa_sunbwyuesflwdpqtgoy.jpg,00805941205fa.jpg,sunagwzdbtlixdhgolm.jpg,01005960627fa.jpg,sunbwyuesflwdpqtgoy.jpg,,,<,Face,,,,,1,,,,,,,x
359,1,Presentation,7,00209940128fb_sunabaergayifsgacxt.jpg,00745941205fa_sunaeouogqolxvggaoq.jpg,00209940128fb.jpg,sunabaergayifsgacxt.jpg,00745941205fa.jpg,sunaeouogqolxvggaoq.jpg,,,>,Face,,,,,1,,,,,,,o
360,1,Memory,7,,,,,,,sunagwzdbtlixdhgolm.jpg,,,,,,,,,,,,,,,
361,1,Memory,7,,,,,,,00313940422fa.jpg,,,,,,,,,,,,,,,
362,1,Memory,7,,,,,,,sunatstrpjxhvtbaczf.jpg,,,,,,,,,,,,,,,
363,1,Memory,7,,,,,,,00670941121fa.jpg,,,,,,,,,,,,,,,
364,1,Memory,7,,,,,,,sunaavjinpnkappuonm.jpg,,,,,,,,,,,,,,,
365,1,Memory,7,,,,,,,sunabzuqsrgcsonqlkz.jpg,,,,,,,,,,,,,,,
366,1,Memory,7,,,,,,,00953960627fa.jpg,,,,,,,,,,,,,,,
367,1,Memory,7,,,,,,,sunaqbmgkgqucajzrkp.jpg,,,,,,,,,,,,,,,
368,1,Memory,7,,,,,,,sunamkmeblgteyggink.jpg,,,,,,,,,,,,,,,
369,1,Memory,7,,,,,,,00071940128fa.jpg,,,,,,,,,,,,,,,
370,1,Memory,7,,,,,,,sunadochqcucscehsgk.jpg,,,,,,,,,,,,,,,
371,1,Memory,7,,,,,,,sunabzjxlmkwnwzimua.jpg,,,,,,,,,,,,,,,
372,1,Memory,7,,,,,,,sunaapllqyqlykszopd.jpg,,,,,,,,,,,,,,,
373,1,Memory,7,,,,,,,00935960627fa.jpg,,,,,,,,,,,,,,,
374,1,Memory,7,,,,,,,sunaddsaeicthrfbkhe.jpg,,,,,,,,,,,,,,,
375,1,Memory,7,,,,,,,00745941205fa.jpg,,,,,,,,,,,,,,,
376,1,Memory,7,,,,,,,00184940128fa.jpg,,,,,,,,,,,,,,,
377,1,Memory,7,,,,,,,00505960627fa.jpg,,,,,,,,,,,,,,,
378,1,Memory,7,,,,,,,sunabwjvmoaddlyxfjr.jpg,,,,,,,,,,,,,,,
379,1,Memory,7,,,,,,,00898960530fa.jpg,,,,,,,,,,,,,,,
380,1,Memory,7,,,,,,,00862940307fa.jpg,,,,,,,,,,,,,,,
381,1,Memory,7,,,,,,,00635941031fa.jpg,,,,,,,,,,,,,,,
382,1,Memory,7,,,,,,,sunaaexpnawiehinlpy.jpg,,,,,,,,,,,,,,,
383,1,Memory,7,,,,,,,00162931230fb.jpg,,,,,,,,,,,,,,,
384,1,Memory,7,,,,,,,sunagountlxpzkytsmp.jpg,,,,,,,,,,,,,,,
385,1,Memory,7,,,,,,,00140931230fb.jpg,,,,,,,,,,,,,,,
386,1,Memory,7,,,,,,,00851940307fa.jpg,,,,,,,,,,,,,,,
387,1,Memory,7,,,,,,,00805941205fa.jpg,,,,,,,,,,,,,,,
388,1,Memory,7,,,,,,,sunadzuvtmtmgupotmf.jpg,,,,,,,,,,,,,,,
389,1,Memory,7,,,,,,,sunapqwnqzxlsfvgsjm.jpg,,,,,,,,,,,,,,,
390,1,Memory,7,,,,,,,sunaeouogqolxvggaoq.jpg,,,,,,,,,,,,,,,
391,1,Memory,7,,,,,,,00498960627fa.jpg,,,,,,,,,,,,,,,
392,1,Memory,7,,,,,,,sunaavtbadenwnzeutj.jpg,,,,,,,,,,,,,,,
393,1,Memory,7,,,,,,,00788941205fa.jpg,,,,,,,,,,,,,,,
394,1,Memory,7,,,,,,,sunbmaiocftdtvnzgap.jpg,,,,,,,,,,,,,,,
395,1,Memory,7,,,,,,,sunaizgnnplsvajzhkc.jpg,,,,,,,,,,,,,,,
396,1,Memory,7,,,,,,,00988960627fa.jpg,,,,,,,,,,,,,,,
397,1,Memory,7,,,,,,,00925960627fa.jpg,,,,,,,,,,,,,,,
398,1,Memory,7,,,,,,,00719960620fa.jpg,,,,,,,,,,,,,,,
399,1,Memory,7,,,,,,,sunaivflshbyfrfzhqb.jpg,,,,,,,,,,,,,,,
