,Subject,Trial Type,Run,Cued Composite,Uncued Composite,Cued Face,Cued Place,Uncued Face,Uncued Place,Memory Image,Category,Cued Side,Cued Category,Attention Reaction Time (s),Familiarity Reaction Time (s),Familiarity Rating,Attention Level,Cue Validity,Post Invalid Cue,Pre Invalid Cue,Attention Button,Rating History,Stimulus Onset,Stimulus End,Attention Probe
0,30,Presentation,0,00529940519fa_sunacbeefkxpymwevpk.jpg,00938960627fa_sunaqyylsngywqzwfmx.jpg,00529940519fa.jpg,sunacbeefkxpymwevpk.jpg,00938960627fa.jpg,sunaqyylsngywqzwfmx.jpg,,,<,Face,,,,,1,,,,,,,o
1,30,Presentation,0,01007960627fa_sunbxarcshsnqsefemx.jpg,01010960627fa_suncnkvbhypnivcohyx.jpg,01007960627fa.jpg,sunbxarcshsnqsefemx.jpg,01010960627fa.jpg,suncnkvbhypnivcohyx.jpg,,,<,Face,,,,,1,,,,,,,o
2,30,Presentation,0,00093931230fa_sunaahwnmtqsrhocysw.jpg,00937960627fa_sunaqsolmfydodnakub.jpg,00093931230fa.jpg,sunaahwnmtqsrhocysw.jpg,00937960627fa.jpg,sunaqsolmfydodnakub.jpg,,,<,Face,,,,,1,,,,,,,x
3,30,Presentation,0,00870940307fa_sunajrgtewnualfcerj.jpg,00950960627fa_sunasrjlmglmjzbmqxb.jpg,00870940307fa.jpg,sunajrgtewnualfcerj.jpg,00950960627fa.jpg,sunasrjlmglmjzbmqxb.jpg,,,<,Face,,,,,1,,,,,,,x
4,30,Presentation,0,00576941031fa_sunacvjlsylseoghjup.jpg,00723941201fa_sunaedtgwjvvziytspa.jpg,00576941031fa.jpg,sunacvjlsylseoghjup.jpg,00723941201fa.jpg,sunaedtgwjvvziytspa.jpg,,,<,Face,,,,,1,,,,,,,o
5,30,Presentation,0,00260940128fa_sunabgfhvifeijihhjw.jpg,00090931230fa_sunaahedjlmtqekgyvj.jpg,00260940128fa.jpg,sunabgfhvifeijihhjw.jpg,00090931230fa.jpg,sunaahedjlmtqekgyvj.jpg,,,<,Face,,,,,0,,,,,,,x
6,30,Presentation,0,00266940128fb_sunabkngeblodihjvbk.jpg,00773941201fa_sunafvcflzhlqloapyo.jpg,00266940128fb.jpg,sunabkngeblodihjvbk.jpg,00773941201fa.jpg,sunafvcflzhlqloapyo.jpg,,,<,Face,,,,,1,,,,,,,o
7,30,Presentation,0,00218940128fa_sunabbwggenhfbftyvi.jpg,00227940128fa_sunabckqabszusgcykj.jpg,00218940128fa.jpg,sunabbwggenhfbftyvi.jpg,00227940128fa.jpg,sunabckqabszusgcykj.jpg,,,<,Face,,,,,1,,,,,,,x
8,30,Presentation,0,00316940422fa_sunabxmguapjekttvwm.jpg,00136931230fb_sunaanptmsknhirrzed.jpg,00316940422fa.jpg,sunabxmguapjekttvwm.jpg,00136931230fb.jpg,sunaanptmsknhirrzed.jpg,,,<,Face,,,,,1,,,,,,,x
9,30,Presentation,0,00568940928fa_sunacsdhbbsybcyxnel.jpg,00270940422fb_sunabllobxadqcyttej.jpg,00568940928fa.jpg,sunacsdhbbsybcyxnel.jpg,00270940422fb.jpg,sunabllobxadqcyttej.jpg,,,<,Face,,,,,1,,,,,,,o
10,30,Memory,0,,,,,,,00598941031fa.jpg,,,,,,,,,,,,,,,
11,30,Memory,0,,,,,,,00260940128fa.jpg,,,,,,,,,,,,,,,
12,30,Memory,0,,,,,,,sunabkngeblodihjvbk.jpg,,,,,,,,,,,,,,,
13,30,Memory,0,,,,,,,00938960627fa.jpg,,,,,,,,,,,,,,,
14,30,Memory,0,,,,,,,00815941205fa.jpg,,,,,,,,,,,,,,,
15,30,Memory,0,,,,,,,00730960620fa.jpg,,,,,,,,,,,,,,,
16,30,Memory,0,,,,,,,sunaahwnmtqsrhocysw.jpg,,,,,,,,,,,,,,,
17,30,Memory,0,,,,,,,sunafvcflzhlqloapyo.jpg,,,,,,,,,,,,,,,
18,30,Memory,0,,,,,,,sunabxmguapjekttvwm.jpg,,,,,,,,,,,,,,,
19,30,Memory,0,,,,,,,00773941201fa.jpg,,,,,,,,,,,,,,,
20,30,Memory,0,,,,,,,sunaknlirqjqiwbbeeg.jpg,,,,,,,,,,,,,,,
21,30,Memory,0,,,,,,,01010960627fa.jpg,,,,,,,,,,,,,,,
22,30,Memory,0,,,,,,,sunaekgzpfilgjxpeyq.jpg,,,,,,,,,,,,,,,
23,30,Memory,0,,,,,,,00316940422fa.jpg,,,,,,,,,,,,,,,
24,30,Memory,0,,,,,,,00096931230fa.jpg,,,,,,,,,,,,,,,
25,30,Memory,0,,,,,,,00090931230fa.jpg,,,,,,,,,,,,,,,
26,30,Memory,0,,,,,,,sunaaiqiqcggrskoqgy.jpg,,,,,,,,,,,,,,,
27,30,Memory,0,,,,,,,00647941031fa.jpg,,,,,,,,,,,,,,,
28,30,Memory,0,,,,,,,sunaahedjlmtqekgyvj.jpg,,,,,,,,,,,,,,,
29,30,Memory,0,,,,,,,00136931230fb.jpg,,,,,,,,,,,,,,,
30,30,Memory,0,,,,,,,sunakodkcslgqhqlgwl.jpg,,,,,,,,,,,,,,,
31,30,Memory,0,,,,,,,sunahiphsekjihkafsl.jpg,,,,,,,,,,,,,,,
32,30,Memory,0,,,,,,,sunahuynahneraqftyz.jpg,,,,,,,,,,,,,,,
33,30,Memory,0,,,,,,,00848940307fa.jpg,,,,,,,,,,,,,,,
34,30,Memory,0,,,,,,,sunaivdylrawbmhryfp.jpg,,,,,,,,,,,,,,,
35,30,Memory,0,,,,,,,suncnkvbhypnivcohyx.jpg,,,,,,,,,,,,,,,
36,30,Memory,0,,,,,,,sunaqyylsngywqzwfmx.jpg,,,,,,,,,,,,,,,
37,30,Memory,0,,,,,,,00266940128fb.jpg,,,,,,,,,,,,,,,
38,30,Memory,0,,,,,,,00529940519fa.jpg,,,,,,,,,,,,,,,
39,30,Memory,0,,,,,,,00828940307fa.jpg,,,,,,,,,,,,,,,
40,30,Memory,0,,,,,,,00882960530fa.jpg,,,,,,,,,,,,,,,
41,30,Memory,0,,,,,,,00884960530fa.jpg,,,,,,,,,,,,,,,
42,30,Memory,0,,,,,,,sunadflbrkckmepztql.jpg,,,,,,,,,,,,,,,
43,30,Memory,0,,,,,,,sunafijbgncijwykrnl.jpg,,,,,,,,,,,,,,,
44,30,Memory,0,,,,,,,sunaanptmsknhirrzed.jpg,,,,,,,,,,,,,,,
45,30,Memory,0,,,,,,,sunacxtcahkymosigud.jpg,,,,,,,,,,,,,,,
46,30,Memory,0,,,,,,,sunabgfhvifeijihhjw.jpg,,,,,,,,,,,,,,,
47,30,Memory,0,,,,,,,00766960620fa.jpg,,,,,,,,,,,,,,,
48,30,Memory,0,,,,,,,sunacbeefkxpymwevpk.jpg,,,,,,,,,,,,,,,
49,30,Memory,0,,,,,,,00093931230fa.jpg,,,,,,,,,,,,,,,
50,30,Presentation,1,00221940128fa_sunabcfpwlpolnutyju.jpg,00082931230fa_sunaafvitpexrpvumsa.jpg,00221940128fa.jpg,sunabcfpwlpolnutyju.jpg,00082931230fa.jpg,sunaafvitpexrpvumsa.jpg,,,>,Face,,,,,1,,,,,,,o
51,30,Presentation,1,00122931230fa_sunaakxjfbrrequcjmx.jpg,00949960627fb_sunasnqkkyhilqkxiqm.jpg,00122931230fa.jpg,sunaakxjfbrrequcjmx.jpg,00949960627fb.jpg,sunasnqkkyhilqkxiqm.jpg,,,>,Face,,,,,1,,,,,,,o
52,30,Presentation,1,00163931230fb_sunaavodbcpygkggnfp.jpg,00498960627fa_sunabzjxlmkwnwzimua.jpg,00163931230fb.jpg,sunaavodbcpygkggnfp.jpg,00498960627fa.jpg,sunabzjxlmkwnwzimua.jpg,,,>,Face,,,,,1,,,,,,,o
53,30,Presentation,1,00725941201fa_sunaefgzwiramypjvtd.jpg,01009960627fa_sunbxzweleltykebgan.jpg,00725941201fa.jpg,sunaefgzwiramypjvtd.jpg,01009960627fa.jpg,sunbxzweleltykebgan.jpg,,,>,Face,,,,,1,,,,,,,x
54,30,Presentation,1,00294940422fb_sunabrlndkruqokhury.jpg,00071941031fa_sunaaexqbtdswxrqjvz.jpg,00294940422fb.jpg,sunabrlndkruqokhury.jpg,00071941031fa.jpg,sunaaexqbtdswxrqjvz.jpg,,,>,Face,,,,,1,,,,,,,o
55,30,Presentation,1,00903960620fa_sunanainkqdvktzoxyl.jpg,00540940519fa_sunacdnquypmsshhsbk.jpg,00903960620fa.jpg,sunanainkqdvktzoxyl.jpg,00540940519fa.jpg,sunacdnquypmsshhsbk.jpg,,,>,Face,,,,,1,,,,,,,o
56,30,Presentation,1,00772941201fa_sunafpfpiiujzoesnqg.jpg,00648941031fa_sunadfndyrtqqiasoig.jpg,00772941201fa.jpg,sunafpfpiiujzoesnqg.jpg,00648941031fa.jpg,sunadfndyrtqqiasoig.jpg,,,>,Face,,,,,1,,,,,,,x
57,30,Presentation,1,00140931230fb_sunaapllqyqlykszopd.jpg,00782941205fa_sunagfvluwixdsozaql.jpg,00140931230fb.jpg,sunaapllqyqlykszopd.jpg,00782941205fa.jpg,sunagfvluwixdsozaql.jpg,,,>,Face,,,,,1,,,,,,,o
58,30,Presentation,1,00893960530Fa_sunaloffvbvysigxent.jpg,00874940307fa_sunajtrfunvzdfticna.jpg,00893960530Fa.jpg,sunaloffvbvysigxent.jpg,00874940307fa.jpg,sunajtrfunvzdfticna.jpg,,,>,Face,,,,,1,,,,,,,x
59,30,Presentation,1,00978960627fa_sunbddbivbptlrlauhy.jpg,00242940128fa_sunabcuurugvxwparpk.jpg,00978960627fa.jpg,sunbddbivbptlrlauhy.jpg,00242940128fa.jpg,sunabcuurugvxwparpk.jpg,,,>,Face,,,,,1,,,,,,,x
60,30,Memory,1,,,,,,,sunagfvluwixdsozaql.jpg,,,,,,,,,,,,,,,
61,30,Memory,1,,,,,,,sunadbhmrgrrpyzglxs.jpg,,,,,,,,,,,,,,,
62,30,Memory,1,,,,,,,00633940928fa.jpg,,,,,,,,,,,,,,,
63,30,Memory,1,,,,,,,sunanainkqdvktzoxyl.jpg,,,,,,,,,,,,,,,
64,30,Memory,1,,,,,,,sunadzuvtmtmgupotmf.jpg,,,,,,,,,,,,,,,
65,30,Memory,1,,,,,,,00071941031fa.jpg,,,,,,,,,,,,,,,
66,30,Memory,1,,,,,,,00925960627fa.jpg,,,,,,,,,,,,,,,
67,30,Memory,1,,,,,,,sunaakxjfbrrequcjmx.jpg,,,,,,,,,,,,,,,
68,30,Memory,1,,,,,,,sunabzjxlmkwnwzimua.jpg,,,,,,,,,,,,,,,
69,30,Memory,1,,,,,,,00782941205fa.jpg,,,,,,,,,,,,,,,
70,30,Memory,1,,,,,,,sunabcuurugvxwparpk.jpg,,,,,,,,,,,,,,,
71,30,Memory,1,,,,,,,sunaaexqbtdswxrqjvz.jpg,,,,,,,,,,,,,,,
72,30,Memory,1,,,,,,,00630941031fa.jpg,,,,,,,,,,,,,,,
73,30,Memory,1,,,,,,,00648941031fa.jpg,,,,,,,,,,,,,,,
74,30,Memory,1,,,,,,,00725941201fa.jpg,,,,,,,,,,,,,,,
75,30,Memory,1,,,,,,,00125931230fa.jpg,,,,,,,,,,,,,,,
76,30,Memory,1,,,,,,,sunapqwnqzxlsfvgsjm.jpg,,,,,,,,,,,,,,,
77,30,Memory,1,,,,,,,00242940128fa.jpg,,,,,,,,,,,,,,,
78,30,Memory,1,,,,,,,00089931230fa.jpg,,,,,,,,,,,,,,,
79,30,Memory,1,,,,,,,00719960620fa.jpg,,,,,,,,,,,,,,,
80,30,Memory,1,,,,,,,sunadakkdovnuzlycvp.jpg,,,,,,,,,,,,,,,
81,30,Memory,1,,,,,,,sunaefgzwiramypjvtd.jpg,,,,,,,,,,,,,,,
82,30,Memory,1,,,,,,,sunalkiibhqpxfamlll.jpg,,,,,,,,,,,,,,,
83,30,Memory,1,,,,,,,00498960627fa.jpg,,,,,,,,,,,,,,,
84,30,Memory,1,,,,,,,00891960530fa.jpg,,,,,,,,,,,,,,,
85,30,Memory,1,,,,,,,sunabizydfotqddlnjp.jpg,,,,,,,,,,,,,,,
86,30,Memory,1,,,,,,,00262940128fa.jpg,,,,,,,,,,,,,,,
87,30,Memory,1,,,,,,,00978960627fa.jpg,,,,,,,,,,,,,,,
88,30,Memory,1,,,,,,,sunbddbivbptlrlauhy.jpg,,,,,,,,,,,,,,,
89,30,Memory,1,,,,,,,sunadfndyrtqqiasoig.jpg,,,,,,,,,,,,,,,
90,30,Memory,1,,,,,,,00122931230fa.jpg,,,,,,,,,,,,,,,
91,30,Memory,1,,,,,,,sunaalltyvjhbzhkmvg.jpg,,,,,,,,,,,,,,,
92,30,Memory,1,,,,,,,00993960627fa.jpg,,,,,,,,,,,,,,,
93,30,Memory,1,,,,,,,00903960620fa.jpg,,,,,,,,,,,,,,,
94,30,Memory,1,,,,,,,sunaagcpoejbuzyvddd.jpg,,,,,,,,,,,,,,,
95,30,Memory,1,,,,,,,00913960530fa.jpg,,,,,,,,,,,,,,,
96,30,Memory,1,,,,,,,00772941201fa.jpg,,,,,,,,,,,,,,,
97,30,Memory,1,,,,,,,sunafpfpiiujzoesnqg.jpg,,,,,,,,,,,,,,,
98,30,Memory,1,,,,,,,sunbprywzqxjcezkbch.jpg,,,,,,,,,,,,,,,
99,30,Memory,1,,,,,,,sunaooffzffbhcpirmm.jpg,,,,,,,,,,,,,,,
100,30,Presentation,2,00753941201fa_sunafcofuuzebuadceo.jpg,00805941205fa_sunagwzdbtlixdhgolm.jpg,00753941201fa.jpg,sunafcofuuzebuadceo.jpg,00805941205fa.jpg,sunagwzdbtlixdhgolm.jpg,,,<,Place,,,,,1,,,,,,,o
101,30,Presentation,2,00746941201fa_sunaetydippjxikifsb.jpg,00922960627fa_sunapqkyghktgtosuuk.jpg,00746941201fa.jpg,sunaetydippjxikifsb.jpg,00922960627fa.jpg,sunapqkyghktgtosuuk.jpg,,,<,Place,,,,,1,,,,,,,x
102,30,Presentation,2,00780960530fa_sunagetqixeypsysbpn.jpg,00969960627fa_sunbaoizrfijvhpnnjn.jpg,00780960530fa.jpg,sunagetqixeypsysbpn.jpg,00969960627fa.jpg,sunbaoizrfijvhpnnjn.jpg,,,<,Place,,,,,1,,,,,,,o
103,30,Presentation,2,00851940307fa_sunaivflshbyfrfzhqb.jpg,00779941205fa_sunagdzlvkqtpnfxfcg.jpg,00851940307fa.jpg,sunaivflshbyfrfzhqb.jpg,00779941205fa.jpg,sunagdzlvkqtpnfxfcg.jpg,,,<,Place,,,,,0,,,,,,,o
104,30,Presentation,2,00786941205fa_sunagmhildamktmqjss.jpg,01000960627fa_sunbvzmgrdvaakxusbu.jpg,00786941205fa.jpg,sunagmhildamktmqjss.jpg,01000960627fa.jpg,sunbvzmgrdvaakxusbu.jpg,,,<,Place,,,,,1,,,,,,,x
105,30,Presentation,2,00694941121fa_sunadrmfzmstgdjdcod.jpg,00968960627fa_sunbagfpovqwbuexqdn.jpg,00694941121fa.jpg,sunadrmfzmstgdjdcod.jpg,00968960627fa.jpg,sunbagfpovqwbuexqdn.jpg,,,<,Place,,,,,1,,,,,,,x
106,30,Presentation,2,00827940307fa_sunahtfxgsrmkiulnwk.jpg,00073931230fa_sunaafbmtoniaasysgu.jpg,00827940307fa.jpg,sunahtfxgsrmkiulnwk.jpg,00073931230fa.jpg,sunaafbmtoniaasysgu.jpg,,,<,Place,,,,,1,,,,,,,o
107,30,Presentation,2,00120931230fa_sunaakxgygjfqrzpyoz.jpg,00564941031fa_sunacsaovnjezqwbykf.jpg,00120931230fa.jpg,sunaakxgygjfqrzpyoz.jpg,00564941031fa.jpg,sunacsaovnjezqwbykf.jpg,,,<,Place,,,,,1,,,,,,,x
108,30,Presentation,2,00119931230fb_sunaakvmbftkrgqhjun.jpg,00208940128fa_sunaazzyhbvqjpmazjq.jpg,00119931230fb.jpg,sunaakvmbftkrgqhjun.jpg,00208940128fa.jpg,sunaazzyhbvqjpmazjq.jpg,,,<,Place,,,,,1,,,,,,,x
109,30,Presentation,2,00071940128fa_sunaaexpnawiehinlpy.jpg,00965960627fa_sunaydywdmvlfddbxbk.jpg,00071940128fa.jpg,sunaaexpnawiehinlpy.jpg,00965960627fa.jpg,sunaydywdmvlfddbxbk.jpg,,,<,Place,,,,,1,,,,,,,x
110,30,Memory,2,,,,,,,sunacjkmnpawfzbyvae.jpg,,,,,,,,,,,,,,,
111,30,Memory,2,,,,,,,sunapqkpqdfvxlbqwyo.jpg,,,,,,,,,,,,,,,
112,30,Memory,2,,,,,,,00753941201fa.jpg,,,,,,,,,,,,,,,
113,30,Memory,2,,,,,,,00935960627fa.jpg,,,,,,,,,,,,,,,
114,30,Memory,2,,,,,,,00073931230fa.jpg,,,,,,,,,,,,,,,
115,30,Memory,2,,,,,,,sunagwzdbtlixdhgolm.jpg,,,,,,,,,,,,,,,
116,30,Memory,2,,,,,,,sunbagfpovqwbuexqdn.jpg,,,,,,,,,,,,,,,
117,30,Memory,2,,,,,,,00921960627fa.jpg,,,,,,,,,,,,,,,
118,30,Memory,2,,,,,,,00119931230fb.jpg,,,,,,,,,,,,,,,
119,30,Memory,2,,,,,,,00835940307fa.jpg,,,,,,,,,,,,,,,
120,30,Memory,2,,,,,,,00851940307fa.jpg,,,,,,,,,,,,,,,
121,30,Memory,2,,,,,,,sunagvjurcwdbixvnyi.jpg,,,,,,,,,,,,,,,
122,30,Memory,2,,,,,,,01005960627fa.jpg,,,,,,,,,,,,,,,
123,30,Memory,2,,,,,,,sunafhmnhsdurlvddpw.jpg,,,,,,,,,,,,,,,
124,30,Memory,2,,,,,,,00780960530fa.jpg,,,,,,,,,,,,,,,
125,30,Memory,2,,,,,,,sunacsaovnjezqwbykf.jpg,,,,,,,,,,,,,,,
126,30,Memory,2,,,,,,,sunagetqixeypsysbpn.jpg,,,,,,,,,,,,,,,
127,30,Memory,2,,,,,,,sunbaoizrfijvhpnnjn.jpg,,,,,,,,,,,,,,,
128,30,Memory,2,,,,,,,00705960530fa.jpg,,,,,,,,,,,,,,,
129,30,Memory,2,,,,,,,sunaygrtwrwfezqjizr.jpg,,,,,,,,,,,,,,,
130,30,Memory,2,,,,,,,sunaakxgygjfqrzpyoz.jpg,,,,,,,,,,,,,,,
131,30,Memory,2,,,,,,,sunaijsqpvodplbwxkf.jpg,,,,,,,,,,,,,,,
132,30,Memory,2,,,,,,,00120931230fa.jpg,,,,,,,,,,,,,,,
133,30,Memory,2,,,,,,,sunbwyuesflwdpqtgoy.jpg,,,,,,,,,,,,,,,
134,30,Memory,2,,,,,,,sunafcofuuzebuadceo.jpg,,,,,,,,,,,,,,,
135,30,Memory,2,,,,,,,sunacfdkbsrughwqwtt.jpg,,,,,,,,,,,,,,,
136,30,Memory,2,,,,,,,sunaafbmtoniaasysgu.jpg,,,,,,,,,,,,,,,
137,30,Memory,2,,,,,,,00800941205fb.jpg,,,,,,,,,,,,,,,
138,30,Memory,2,,,,,,,sunaivflshbyfrfzhqb.jpg,,,,,,,,,,,,,,,
139,30,Memory,2,,,,,,,00968960627fa.jpg,,,,,,,,,,,,,,,
140,30,Memory,2,,,,,,,00763941205fa.jpg,,,,,,,,,,,,,,,
141,30,Memory,2,,,,,,,00559940519fa.jpg,,,,,,,,,,,,,,,
142,30,Memory,2,,,,,,,00966960627fa.jpg,,,,,,,,,,,,,,,
143,30,Memory,2,,,,,,,sunaqbmgkgqucajzrkp.jpg,,,,,,,,,,,,,,,
144,30,Memory,2,,,,,,,00969960627fa.jpg,,,,,,,,,,,,,,,
145,30,Memory,2,,,,,,,00805941205fa.jpg,,,,,,,,,,,,,,,
146,30,Memory,2,,,,,,,sunaakvmbftkrgqhjun.jpg,,,,,,,,,,,,,,,
147,30,Memory,2,,,,,,,sunaduslxfzlbxlllnz.jpg,,,,,,,,,,,,,,,
148,30,Memory,2,,,,,,,00554940519fa.jpg,,,,,,,,,,,,,,,
149,30,Memory,2,,,,,,,00564941031fa.jpg,,,,,,,,,,,,,,,
150,30,Presentation,3,00803941205fa_sunagvxkjokqimstxpe.jpg,00507940519fa_sunacacflqoyxhsqzhe.jpg,00803941205fa.jpg,sunagvxkjokqimstxpe.jpg,00507940519fa.jpg,sunacacflqoyxhsqzhe.jpg,,,>,Place,,,,,1,,,,,,,x
151,30,Presentation,3,00214940128fa_sunabbafjowbzcvbucc.jpg,00557940519fa_sunachtuarilwyqnvjx.jpg,00214940128fa.jpg,sunabbafjowbzcvbucc.jpg,00557940519fa.jpg,sunachtuarilwyqnvjx.jpg,,,>,Place,,,,,1,,,,,,,x
152,30,Presentation,3,00741941201fa_sunaemcowdozyphwknd.jpg,00062931230fb_sunaaelotvjgibjtjhs.jpg,00741941201fa.jpg,sunaemcowdozyphwknd.jpg,00062931230fb.jpg,sunaaelotvjgibjtjhs.jpg,,,>,Place,,,,,0,,,,,,,o
153,30,Presentation,3,00147931230fb_sunaatpkocdkocwxpkb.jpg,00795941205fa_sunagtumacdlmciqamz.jpg,00147931230fb.jpg,sunaatpkocdkocwxpkb.jpg,00795941205fa.jpg,sunagtumacdlmciqamz.jpg,,,>,Place,,,,,1,,,,,,,x
154,30,Presentation,3,00983960627fa_sunbfyvfqiimvdaxlqn.jpg,00482940519fa_sunabyfxcxhdebvdyfd.jpg,00983960627fa.jpg,sunbfyvfqiimvdaxlqn.jpg,00482940519fa.jpg,sunabyfxcxhdebvdyfd.jpg,,,>,Place,,,,,1,,,,,,,o
155,30,Presentation,3,01207940128fa_sundbixjudsgeuuehrn.jpg,00834940307fa_sunaibnpvhkdpdnzcnz.jpg,01207940128fa.jpg,sundbixjudsgeuuehrn.jpg,00834940307fa.jpg,sunaibnpvhkdpdnzcnz.jpg,,,>,Place,,,,,0,,,,,,,x
156,30,Presentation,3,00776941205fa_sunafxokyavhgptyfye.jpg,00111931230fb_sunaakgekhjklxmvulj.jpg,00776941205fa.jpg,sunafxokyavhgptyfye.jpg,00111931230fb.jpg,sunaakgekhjklxmvulj.jpg,,,>,Place,,,,,1,,,,,,,o
157,30,Presentation,3,00760960620fa_sunaffstbkappprzxnv.jpg,00984960627fa_sunbfzchmomnvzhbxdg.jpg,00760960620fa.jpg,sunaffstbkappprzxnv.jpg,00984960627fa.jpg,sunbfzchmomnvzhbxdg.jpg,,,>,Place,,,,,1,,,,,,,o
158,30,Presentation,3,00636941031fa_sunaddtdkycxbqlpfqa.jpg,00505960627fa_sunabzuqsrgcsonqlkz.jpg,00636941031fa.jpg,sunaddtdkycxbqlpfqa.jpg,00505960627fa.jpg,sunabzuqsrgcsonqlkz.jpg,,,>,Place,,,,,1,,,,,,,x
159,30,Presentation,3,00931960627fa_sunaptrqvaooxfvktvw.jpg,00209940128fb_sunabaergayifsgacxt.jpg,00931960627fa.jpg,sunaptrqvaooxfvktvw.jpg,00209940128fb.jpg,sunabaergayifsgacxt.jpg,,,>,Place,,,,,1,,,,,,,x
160,30,Memory,3,,,,,,,sunagvxkjokqimstxpe.jpg,,,,,,,,,,,,,,,
161,30,Memory,3,,,,,,,sunamlotskmmsjeogby.jpg,,,,,,,,,,,,,,,
162,30,Memory,3,,,,,,,sunabbafjowbzcvbucc.jpg,,,,,,,,,,,,,,,
163,30,Memory,3,,,,,,,00898960530fa.jpg,,,,,,,,,,,,,,,
164,30,Memory,3,,,,,,,00062931230fb.jpg,,,,,,,,,,,,,,,
165,30,Memory,3,,,,,,,00636941031fa.jpg,,,,,,,,,,,,,,,
166,30,Memory,3,,,,,,,sunbbxkanhzjgbwyxqs.jpg,,,,,,,,,,,,,,,
167,30,Memory,3,,,,,,,sunafxokyavhgptyfye.jpg,,,,,,,,,,,,,,,
168,30,Memory,3,,,,,,,00776941205fa.jpg,,,,,,,,,,,,,,,
169,30,Memory,3,,,,,,,sunaatpkocdkocwxpkb.jpg,,,,,,,,,,,,,,,
170,30,Memory,3,,,,,,,sunamkmeblgteyggink.jpg,,,,,,,,,,,,,,,
171,30,Memory,3,,,,,,,00834940307fa.jpg,,,,,,,,,,,,,,,
172,30,Memory,3,,,,,,,sunacjnahdmqfnjfwqx.jpg,,,,,,,,,,,,,,,
173,30,Memory,3,,,,,,,00505960627fa.jpg,,,,,,,,,,,,,,,
174,30,Memory,3,,,,,,,sunachtuarilwyqnvjx.jpg,,,,,,,,,,,,,,,
175,30,Memory,3,,,,,,,sunaaelotvjgibjtjhs.jpg,,,,,,,,,,,,,,,
176,30,Memory,3,,,,,,,00131931230fb.jpg,,,,,,,,,,,,,,,
177,30,Memory,3,,,,,,,00264940128fb.jpg,,,,,,,,,,,,,,,
178,30,Memory,3,,,,,,,sunaddtdkycxbqlpfqa.jpg,,,,,,,,,,,,,,,
179,30,Memory,3,,,,,,,sunaibnpvhkdpdnzcnz.jpg,,,,,,,,,,,,,,,
180,30,Memory,3,,,,,,,00797960620fa.jpg,,,,,,,,,,,,,,,
181,30,Memory,3,,,,,,,sunabyfxcxhdebvdyfd.jpg,,,,,,,,,,,,,,,
182,30,Memory,3,,,,,,,00562941031fa.jpg,,,,,,,,,,,,,,,
183,30,Memory,3,,,,,,,00482940519fa.jpg,,,,,,,,,,,,,,,
184,30,Memory,3,,,,,,,sunaazezcsunmhttzxz.jpg,,,,,,,,,,,,,,,
185,30,Memory,3,,,,,,,sunaangbuylfvckqqoo.jpg,,,,,,,,,,,,,,,
186,30,Memory,3,,,,,,,00557940519fa.jpg,,,,,,,,,,,,,,,
187,30,Memory,3,,,,,,,sunadtlxenqqxsyjvix.jpg,,,,,,,,,,,,,,,
188,30,Memory,3,,,,,,,sunabjzyxcjnmztdonj.jpg,,,,,,,,,,,,,,,
189,30,Memory,3,,,,,,,00977960627fa.jpg,,,,,,,,,,,,,,,
190,30,Memory,3,,,,,,,00909960530.jpg,,,,,,,,,,,,,,,
191,30,Memory,3,,,,,,,sunabzuqsrgcsonqlkz.jpg,,,,,,,,,,,,,,,
192,30,Memory,3,,,,,,,sunaobtizabegtwfwul.jpg,,,,,,,,,,,,,,,
193,30,Memory,3,,,,,,,00198940128fb.jpg,,,,,,,,,,,,,,,
194,30,Memory,3,,,,,,,sunagufzbeteqdjxais.jpg,,,,,,,,,,,,,,,
195,30,Memory,3,,,,,,,00147931230fb.jpg,,,,,,,,,,,,,,,
196,30,Memory,3,,,,,,,00803941205fa.jpg,,,,,,,,,,,,,,,
197,30,Memory,3,,,,,,,00900960530fa.jpg,,,,,,,,,,,,,,,
198,30,Memory,3,,,,,,,00214940128fa.jpg,,,,,,,,,,,,,,,
199,30,Memory,3,,,,,,,00705941205fa.jpg,,,,,,,,,,,,,,,
200,30,Presentation,4,00133931230fa_sunaanlwnpqndclffxt.jpg,00598940928fa_sunacxeheuiigkcgquf.jpg,00133931230fa.jpg,sunaanlwnpqndclffxt.jpg,00598940928fa.jpg,sunacxeheuiigkcgquf.jpg,,,>,Place,,,,,1,,,,,,,o
201,30,Presentation,4,00265940128fb_sunabkmdplkdbvxriff.jpg,00589940928fa_sunacwggadqsfpovdjv.jpg,00265940128fb.jpg,sunabkmdplkdbvxriff.jpg,00589940928fa.jpg,sunacwggadqsfpovdjv.jpg,,,>,Place,,,,,1,,,,,,,o
202,30,Presentation,4,00305940422fa_sunabtrnbvpppgczjim.jpg,00532960627fa_sunaccdtpgenvcbcbcf.jpg,00305940422fa.jpg,sunabtrnbvpppgczjim.jpg,00532960627fa.jpg,sunaccdtpgenvcbcbcf.jpg,,,>,Place,,,,,1,,,,,,,o
203,30,Presentation,4,00308940422fb_sunabwfvcqqidycwypa.jpg,00957960627fa_sunavhxgmgrqsaptynb.jpg,00308940422fb.jpg,sunabwfvcqqidycwypa.jpg,00957960627fa.jpg,sunavhxgmgrqsaptynb.jpg,,,>,Place,,,,,1,,,,,,,o
204,30,Presentation,4,00060931230fa_sunaaehaikpckyjsety.jpg,00862940307fa_sunaizgnnplsvajzhkc.jpg,00060931230fa.jpg,sunaaehaikpckyjsety.jpg,00862940307fa.jpg,sunaizgnnplsvajzhkc.jpg,,,>,Place,,,,,1,,,,,,,x
205,30,Presentation,4,00634940928fa_sunadcphrizvfpljiqt.jpg,00829940307fa_sunahwgbqkqcrwprgvh.jpg,00634940928fa.jpg,sunadcphrizvfpljiqt.jpg,00829940307fa.jpg,sunahwgbqkqcrwprgvh.jpg,,,>,Place,,,,,1,,,,,,,x
206,30,Presentation,4,00787960620fa_sunagoufulkpsxrmklt.jpg,00296940422fa_sunabrwnslxalcohfre.jpg,00787960620fa.jpg,sunagoufulkpsxrmklt.jpg,00296940422fa.jpg,sunabrwnslxalcohfre.jpg,,,>,Place,,,,,1,,,,,,,x
207,30,Presentation,4,00127931230fa_sunaampvucecsfbdafn.jpg,00959960627fa_sunavxokzybtomhbmvm.jpg,00127931230fa.jpg,sunaampvucecsfbdafn.jpg,00959960627fa.jpg,sunavxokzybtomhbmvm.jpg,,,>,Place,,,,,1,,,,,,,x
208,30,Presentation,4,00943960627fa_sunarpsxqkduedrrzyi.jpg,00915960620fa_sunapileznnbbmrwoei.jpg,00943960627fa.jpg,sunarpsxqkduedrrzyi.jpg,00915960620fa.jpg,sunapileznnbbmrwoei.jpg,,,>,Place,,,,,1,,,,,,,x
209,30,Presentation,4,00211940128fa_sunabasphceswhwwqvv.jpg,00070940307fa_sunaaeplwsfslcbtojr.jpg,00211940128fa.jpg,sunabasphceswhwwqvv.jpg,00070940307fa.jpg,sunaaeplwsfslcbtojr.jpg,,,>,Place,,,,,0,,,,,,,x
210,30,Memory,4,,,,,,,sunacycdoztxoluxjyk.jpg,,,,,,,,,,,,,,,
211,30,Memory,4,,,,,,,00153931230fa.jpg,,,,,,,,,,,,,,,
212,30,Memory,4,,,,,,,sunaizeyhvjzknwjudw.jpg,,,,,,,,,,,,,,,
213,30,Memory,4,,,,,,,00862940307fa.jpg,,,,,,,,,,,,,,,
214,30,Memory,4,,,,,,,00901960530fa.jpg,,,,,,,,,,,,,,,
215,30,Memory,4,,,,,,,sunabkmdplkdbvxriff.jpg,,,,,,,,,,,,,,,
216,30,Memory,4,,,,,,,sunapileznnbbmrwoei.jpg,,,,,,,,,,,,,,,
217,30,Memory,4,,,,,,,sunaflojskatpeqyzqp.jpg,,,,,,,,,,,,,,,
218,30,Memory,4,,,,,,,sunaanlwnpqndclffxt.jpg,,,,,,,,,,,,,,,
219,30,Memory,4,,,,,,,sunaaylzyqlqrsmfwif.jpg,,,,,,,,,,,,,,,
220,30,Memory,4,,,,,,,00787960620fa.jpg,,,,,,,,,,,,,,,
221,30,Memory,4,,,,,,,00770941201fa.jpg,,,,,,,,,,,,,,,
222,30,Memory,4,,,,,,,00915960620fa.jpg,,,,,,,,,,,,,,,
223,30,Memory,4,,,,,,,sunabtrnbvpppgczjim.jpg,,,,,,,,,,,,,,,
224,30,Memory,4,,,,,,,00957960627fa.jpg,,,,,,,,,,,,,,,
225,30,Memory,4,,,,,,,00926960627Fa.jpg,,,,,,,,,,,,,,,
226,30,Memory,4,,,,,,,sunathzzbcwjykldrem.jpg,,,,,,,,,,,,,,,
227,30,Memory,4,,,,,,,sunaccdtpgenvcbcbcf.jpg,,,,,,,,,,,,,,,
228,30,Memory,4,,,,,,,00211940128fa.jpg,,,,,,,,,,,,,,,
229,30,Memory,4,,,,,,,sunadikxpvqeabxrvvc.jpg,,,,,,,,,,,,,,,
230,30,Memory,4,,,,,,,00305940422fa.jpg,,,,,,,,,,,,,,,
231,30,Memory,4,,,,,,,sunammbnoambmhdxdwd.jpg,,,,,,,,,,,,,,,
232,30,Memory,4,,,,,,,00609940928fa.jpg,,,,,,,,,,,,,,,
233,30,Memory,4,,,,,,,sunabrwnslxalcohfre.jpg,,,,,,,,,,,,,,,
234,30,Memory,4,,,,,,,00952960627fa.jpg,,,,,,,,,,,,,,,
235,30,Memory,4,,,,,,,00532960627fa.jpg,,,,,,,,,,,,,,,
236,30,Memory,4,,,,,,,sunavhxgmgrqsaptynb.jpg,,,,,,,,,,,,,,,
237,30,Memory,4,,,,,,,sunaizgnnplsvajzhkc.jpg,,,,,,,,,,,,,,,
238,30,Memory,4,,,,,,,00296940422fa.jpg,,,,,,,,,,,,,,,
239,30,Memory,4,,,,,,,00860940307fa.jpg,,,,,,,,,,,,,,,
240,30,Memory,4,,,,,,,sunapqwoeotxshkukbh.jpg,,,,,,,,,,,,,,,
241,30,Memory,4,,,,,,,00986960627fa.jpg,,,,,,,,,,,,,,,
242,30,Memory,4,,,,,,,sunagoufulkpsxrmklt.jpg,,,,,,,,,,,,,,,
243,30,Memory,4,,,,,,,00133931230fa.jpg,,,,,,,,,,,,,,,
244,30,Memory,4,,,,,,,sunbgzjryivyczuvkvm.jpg,,,,,,,,,,,,,,,
245,30,Memory,4,,,,,,,00265940128fb.jpg,,,,,,,,,,,,,,,
246,30,Memory,4,,,,,,,00197940128fa.jpg,,,,,,,,,,,,,,,
247,30,Memory,4,,,,,,,sunabasphceswhwwqvv.jpg,,,,,,,,,,,,,,,
248,30,Memory,4,,,,,,,sunaauhozyxzeeqstxi.jpg,,,,,,,,,,,,,,,
249,30,Memory,4,,,,,,,00650941031fa.jpg,,,,,,,,,,,,,,,
250,30,Presentation,5,00807941205fa_sunahawfngukizslzsd.jpg,00069931230fb_sunaaeowapdkwzqpgqr.jpg,00807941205fa.jpg,sunahawfngukizslzsd.jpg,00069931230fb.jpg,sunaaeowapdkwzqpgqr.jpg,,,<,Place,,,,,1,,,,,,,x
251,30,Presentation,5,00676941121fa_sunadpnqovzckyikrjo.jpg,00963960627fa_sunayaepykrqvenaqqy.jpg,00676941121fa.jpg,sunadpnqovzckyikrjo.jpg,00963960627fa.jpg,sunayaepykrqvenaqqy.jpg,,,<,Place,,,,,1,,,,,,,x
252,30,Presentation,5,00801941205fa_sunagvprlbprarvgdvj.jpg,00871940307_sunajrujcsdxmfbssmc.jpg,00801941205fa.jpg,sunagvprlbprarvgdvj.jpg,00871940307.jpg,sunajrujcsdxmfbssmc.jpg,,,<,Place,,,,,1,,,,,,,o
253,30,Presentation,5,00979960627fa_sunbdycacjfaujxitbw.jpg,00869940307fa_sunajoveqhiprwqgoco.jpg,00979960627fa.jpg,sunbdycacjfaujxitbw.jpg,00869940307fa.jpg,sunajoveqhiprwqgoco.jpg,,,<,Place,,,,,0,,,,,,,x
254,30,Presentation,5,00847940307fa_sunaivdjruhkrfywfed.jpg,00987960627fa_sunbloeoiozwjjsiamp.jpg,00847940307fa.jpg,sunaivdjruhkrfywfed.jpg,00987960627fa.jpg,sunbloeoiozwjjsiamp.jpg,,,<,Place,,,,,1,,,,,,,o
255,30,Presentation,5,00126931230fb_sunaamdjwemxpmmtypi.jpg,00564940928fa_sunacmpqqfbsvlzinzl.jpg,00126931230fb.jpg,sunaamdjwemxpmmtypi.jpg,00564940928fa.jpg,sunacmpqqfbsvlzinzl.jpg,,,<,Place,,,,,1,,,,,,,o
256,30,Presentation,5,00894960620fa_sunalqmfgeadpqsyzpd.jpg,00574940928fa_sunacvbrcejzwmcgnoq.jpg,00894960620fa.jpg,sunalqmfgeadpqsyzpd.jpg,00574940928fa.jpg,sunacvbrcejzwmcgnoq.jpg,,,<,Place,,,,,1,,,,,,,o
257,30,Presentation,5,00130931230fa_sunaamvxnvouicstkjb.jpg,00929960627fa_sunaprnrbmgkomdbchr.jpg,00130931230fa.jpg,sunaamvxnvouicstkjb.jpg,00929960627fa.jpg,sunaprnrbmgkomdbchr.jpg,,,<,Place,,,,,1,,,,,,,x
258,30,Presentation,5,00129931230fb_sunaamsdyakblkfoydx.jpg,00973960627fa_sunbbgtoeuzierkkajt.jpg,00129931230fb.jpg,sunaamsdyakblkfoydx.jpg,00973960627fa.jpg,sunbbgtoeuzierkkajt.jpg,,,<,Place,,,,,0,,,,,,,x
259,30,Presentation,5,00124931230fa_sunaalhlvzmjmitybdn.jpg,00239940128fa_sunabctlikybqabezjv.jpg,00124931230fa.jpg,sunaalhlvzmjmitybdn.jpg,00239940128fa.jpg,sunabctlikybqabezjv.jpg,,,<,Place,,,,,1,,,,,,,x
260,30,Memory,5,,,,,,,00979960627fa.jpg,,,,,,,,,,,,,,,
261,30,Memory,5,,,,,,,sunaathajvxrgptwhoj.jpg,,,,,,,,,,,,,,,
262,30,Memory,5,,,,,,,00574940928fa.jpg,,,,,,,,,,,,,,,
263,30,Memory,5,,,,,,,00807941205fa.jpg,,,,,,,,,,,,,,,
264,30,Memory,5,,,,,,,00754941201fa.jpg,,,,,,,,,,,,,,,
265,30,Memory,5,,,,,,,sunbdycacjfaujxitbw.jpg,,,,,,,,,,,,,,,
266,30,Memory,5,,,,,,,00841940307fa.jpg,,,,,,,,,,,,,,,
267,30,Memory,5,,,,,,,sunbbgtoeuzierkkajt.jpg,,,,,,,,,,,,,,,
268,30,Memory,5,,,,,,,00271940422fa.jpg,,,,,,,,,,,,,,,
269,30,Memory,5,,,,,,,sunajxpkuhbizeveguy.jpg,,,,,,,,,,,,,,,
270,30,Memory,5,,,,,,,sunaisiwfgppimtnmxl.jpg,,,,,,,,,,,,,,,
271,30,Memory,5,,,,,,,00877960530fa.jpg,,,,,,,,,,,,,,,
272,30,Memory,5,,,,,,,sunaamsdyakblkfoydx.jpg,,,,,,,,,,,,,,,
273,30,Memory,5,,,,,,,sunbondbduabvijnmch.jpg,,,,,,,,,,,,,,,
274,30,Memory,5,,,,,,,sunabmbnddafmywtjjj.jpg,,,,,,,,,,,,,,,
275,30,Memory,5,,,,,,,sunaffgsyyvoqdlkmnk.jpg,,,,,,,,,,,,,,,
276,30,Memory,5,,,,,,,00989960627fa.jpg,,,,,,,,,,,,,,,
277,30,Memory,5,,,,,,,sunaamvxnvouicstkjb.jpg,,,,,,,,,,,,,,,
278,30,Memory,5,,,,,,,00825940307fa.jpg,,,,,,,,,,,,,,,
279,30,Memory,5,,,,,,,sunajoveqhiprwqgoco.jpg,,,,,,,,,,,,,,,
280,30,Memory,5,,,,,,,sunacvbrcejzwmcgnoq.jpg,,,,,,,,,,,,,,,
281,30,Memory,5,,,,,,,00130931230fa.jpg,,,,,,,,,,,,,,,
282,30,Memory,5,,,,,,,00092931230fa.jpg,,,,,,,,,,,,,,,
283,30,Memory,5,,,,,,,00801941205fa.jpg,,,,,,,,,,,,,,,
284,30,Memory,5,,,,,,,sunahrltmuwbiehihpe.jpg,,,,,,,,,,,,,,,
285,30,Memory,5,,,,,,,00973960627fa.jpg,,,,,,,,,,,,,,,
286,30,Memory,5,,,,,,,00778941205fa.jpg,,,,,,,,,,,,,,,
287,30,Memory,5,,,,,,,00997960627fa.jpg,,,,,,,,,,,,,,,
288,30,Memory,5,,,,,,,00564940928fa.jpg,,,,,,,,,,,,,,,
289,30,Memory,5,,,,,,,00987960627fa.jpg,,,,,,,,,,,,,,,
290,30,Memory,5,,,,,,,sunacmpqqfbsvlzinzl.jpg,,,,,,,,,,,,,,,
291,30,Memory,5,,,,,,,sunahawfngukizslzsd.jpg,,,,,,,,,,,,,,,
292,30,Memory,5,,,,,,,sunagcthdfirrcawoic.jpg,,,,,,,,,,,,,,,
293,30,Memory,5,,,,,,,sunbloeoiozwjjsiamp.jpg,,,,,,,,,,,,,,,
294,30,Memory,5,,,,,,,00144931230fb.jpg,,,,,,,,,,,,,,,
295,30,Memory,5,,,,,,,00869940307fa.jpg,,,,,,,,,,,,,,,
296,30,Memory,5,,,,,,,00129931230fb.jpg,,,,,,,,,,,,,,,
297,30,Memory,5,,,,,,,sunagvprlbprarvgdvj.jpg,,,,,,,,,,,,,,,
298,30,Memory,5,,,,,,,sunaaheqzstzxuadglu.jpg,,,,,,,,,,,,,,,
299,30,Memory,5,,,,,,,sunbtpilbhhbmhmeuzq.jpg,,,,,,,,,,,,,,,
300,30,Presentation,6,01004960627fa_sunbwtlihsuptkrckid.jpg,00751960620fa_sunaezuszgtxnmsxdbk.jpg,01004960627fa.jpg,sunbwtlihsuptkrckid.jpg,00751960620fa.jpg,sunaezuszgtxnmsxdbk.jpg,,,>,Face,,,,,1,,,,,,,x
301,30,Presentation,6,00895960530fa_sunamczizlzavhzhpay.jpg,00866940307fa_sunajbwkywmsqkldfml.jpg,00895960530fa.jpg,sunamczizlzavhzhpay.jpg,00866940307fa.jpg,sunajbwkywmsqkldfml.jpg,,,>,Face,,,,,1,,,,,,,o
302,30,Presentation,6,00990960627fa_sunbpflsdaxnddnwcqi.jpg,00967960627fa_sunbaejotfklekvpxcz.jpg,00990960627fa.jpg,sunbpflsdaxnddnwcqi.jpg,00967960627fa.jpg,sunbaejotfklekvpxcz.jpg,,,>,Face,,,,,1,,,,,,,x
303,30,Presentation,6,00095931230fa_sunaahzooisqkwlxwoz.jpg,00933960627fa_sunapwjkcxdaeqehfql.jpg,00095931230fa.jpg,sunaahzooisqkwlxwoz.jpg,00933960627fa.jpg,sunapwjkcxdaeqehfql.jpg,,,>,Face,,,,,1,,,,,,,o
304,30,Presentation,6,00822940307fa_sunahqrxievfeusiqlt.jpg,00799941205fa_sunagutjvdvnhxejerz.jpg,00822940307fa.jpg,sunahqrxievfeusiqlt.jpg,00799941205fa.jpg,sunagutjvdvnhxejerz.jpg,,,>,Face,,,,,1,,,,,,,o
305,30,Presentation,6,00804960530fa_sunagwswhkvnsmuszlz.jpg,00097931230fa_sunaajayojuslbbnneg.jpg,00804960530fa.jpg,sunagwswhkvnsmuszlz.jpg,00097931230fa.jpg,sunaajayojuslbbnneg.jpg,,,>,Face,,,,,1,,,,,,,o
306,30,Presentation,6,00936960627fa_sunaqgjuuwvdcyiccjt.jpg,00184940128fa_sunaavtbadenwnzeutj.jpg,00936960627fa.jpg,sunaqgjuuwvdcyiccjt.jpg,00184940128fa.jpg,sunaavtbadenwnzeutj.jpg,,,>,Face,,,,,1,,,,,,,o
307,30,Presentation,6,00839940307fa_sunaipyohrqlwngaqif.jpg,00788941205fa_sunagountlxpzkytsmp.jpg,00839940307fa.jpg,sunaipyohrqlwngaqif.jpg,00788941205fa.jpg,sunagountlxpzkytsmp.jpg,,,>,Face,,,,,1,,,,,,,o
308,30,Presentation,6,00115931230fa_sunaakmxzhuceuiryah.jpg,00819940307fa_sunahqldjibofgsfdgb.jpg,00115931230fa.jpg,sunaakmxzhuceuiryah.jpg,00819940307fa.jpg,sunahqldjibofgsfdgb.jpg,,,>,Face,,,,,1,,,,,,,o
309,30,Presentation,6,00720960620fa_sunaecpkgfewqqreqwe.jpg,00662941121fa_sunadkazmlajmohnwfl.jpg,00720960620fa.jpg,sunaecpkgfewqqreqwe.jpg,00662941121fa.jpg,sunadkazmlajmohnwfl.jpg,,,>,Face,,,,,1,,,,,,,x
310,30,Memory,6,,,,,,,00771941205fa.jpg,,,,,,,,,,,,,,,
311,30,Memory,6,,,,,,,00936960627fa.jpg,,,,,,,,,,,,,,,
312,30,Memory,6,,,,,,,sunbgklxeqjhdbyfhhy.jpg,,,,,,,,,,,,,,,
313,30,Memory,6,,,,,,,00976960627fa.jpg,,,,,,,,,,,,,,,
314,30,Memory,6,,,,,,,sunajbwkywmsqkldfml.jpg,,,,,,,,,,,,,,,
315,30,Memory,6,,,,,,,sunaecpkgfewqqreqwe.jpg,,,,,,,,,,,,,,,
316,30,Memory,6,,,,,,,00892960530fa.jpg,,,,,,,,,,,,,,,
317,30,Memory,6,,,,,,,sunaavtbadenwnzeutj.jpg,,,,,,,,,,,,,,,
318,30,Memory,6,,,,,,,sunafowswglhxcsufpo.jpg,,,,,,,,,,,,,,,
319,30,Memory,6,,,,,,,00115931230fa.jpg,,,,,,,,,,,,,,,
320,30,Memory,6,,,,,,,sunaqgjuuwvdcyiccjt.jpg,,,,,,,,,,,,,,,
321,30,Memory,6,,,,,,,sunahpblecxtmuzkmxb.jpg,,,,,,,,,,,,,,,
322,30,Memory,6,,,,,,,sunahqldjibofgsfdgb.jpg,,,,,,,,,,,,,,,
323,30,Memory,6,,,,,,,sunalntxqqadigcletd.jpg,,,,,,,,,,,,,,,
324,30,Memory,6,,,,,,,00720960620fa.jpg,,,,,,,,,,,,,,,
325,30,Memory,6,,,,,,,sunaahzooisqkwlxwoz.jpg,,,,,,,,,,,,,,,
326,30,Memory,6,,,,,,,sunaakmxzhuceuiryah.jpg,,,,,,,,,,,,,,,
327,30,Memory,6,,,,,,,00985960627fa.jpg,,,,,,,,,,,,,,,
328,30,Memory,6,,,,,,,00788941205fa.jpg,,,,,,,,,,,,,,,
329,30,Memory,6,,,,,,,00812941205fa.jpg,,,,,,,,,,,,,,,
330,30,Memory,6,,,,,,,00895960530fa.jpg,,,,,,,,,,,,,,,
331,30,Memory,6,,,,,,,sunaeuvjbmdpknaqqaj.jpg,,,,,,,,,,,,,,,
332,30,Memory,6,,,,,,,sunagountlxpzkytsmp.jpg,,,,,,,,,,,,,,,
333,30,Memory,6,,,,,,,00276940422fa.jpg,,,,,,,,,,,,,,,
334,30,Memory,6,,,,,,,00818940307fa.jpg,,,,,,,,,,,,,,,
335,30,Memory,6,,,,,,,00095931230fa.jpg,,,,,,,,,,,,,,,
336,30,Memory,6,,,,,,,00811960530fa.jpg,,,,,,,,,,,,,,,
337,30,Memory,6,,,,,,,00749941201fa.jpg,,,,,,,,,,,,,,,
338,30,Memory,6,,,,,,,00662941121fa.jpg,,,,,,,,,,,,,,,
339,30,Memory,6,,,,,,,00184940128fa.jpg,,,,,,,,,,,,,,,
340,30,Memory,6,,,,,,,sunbbhqyyzmsxhsbjmp.jpg,,,,,,,,,,,,,,,
341,30,Memory,6,,,,,,,sunabmytpyhsgigllxu.jpg,,,,,,,,,,,,,,,
342,30,Memory,6,,,,,,,00866940307fa.jpg,,,,,,,,,,,,,,,
343,30,Memory,6,,,,,,,sunafvsxtzaizojicxx.jpg,,,,,,,,,,,,,,,
344,30,Memory,6,,,,,,,sunamczizlzavhzhpay.jpg,,,,,,,,,,,,,,,
345,30,Memory,6,,,,,,,00773960620fa.jpg,,,,,,,,,,,,,,,
346,30,Memory,6,,,,,,,00819940307fa.jpg,,,,,,,,,,,,,,,
347,30,Memory,6,,,,,,,sunahgtbwgsmtqeodwh.jpg,,,,,,,,,,,,,,,
348,30,Memory,6,,,,,,,sunahedfrhtcwpneund.jpg,,,,,,,,,,,,,,,
349,30,Memory,6,,,,,,,sunadkazmlajmohnwfl.jpg,,,,,,,,,,,,,,,
350,30,Presentation,7,00742941201fa_sunaenwuebvlpdmntju.jpg,01002960627fb_sunbwaafjdebjzttuvq.jpg,00742941201fa.jpg,sunaenwuebvlpdmntju.jpg,01002960627fb.jpg,sunbwaafjdebjzttuvq.jpg,,,<,Face,,,,,0,,,,,,,o
351,30,Presentation,7,00809960620fa_sunahbvlpavurqoxdeq.jpg,00999960627fa_sunbvbrvgbpanfrawft.jpg,00809960620fa.jpg,sunahbvlpavurqoxdeq.jpg,00999960627fa.jpg,sunbvbrvgbpanfrawft.jpg,,,<,Face,,,,,1,,,,,,,o
352,30,Presentation,7,00481940519fa_sunabxsuqbleluwczoy.jpg,00961960627fa_sunawotxrevnqvamsfp.jpg,00481940519fa.jpg,sunabxsuqbleluwczoy.jpg,00961960627fa.jpg,sunawotxrevnqvamsfp.jpg,,,<,Face,,,,,1,,,,,,,x
353,30,Presentation,7,00065931230fb_sunaaemixhfquhnxxlm.jpg,00970960627fa_sunbasypfgzjtomktmu.jpg,00065931230fb.jpg,sunaaemixhfquhnxxlm.jpg,00970960627fa.jpg,sunbasypfgzjtomktmu.jpg,,,<,Face,,,,,1,,,,,,,x
354,30,Presentation,7,00750941201fa_sunaeuzwggvibufclwf.jpg,00960960627fa_sunawksfbacycuhbrsc.jpg,00750941201fa.jpg,sunaeuzwggvibufclwf.jpg,00960960627fa.jpg,sunawksfbacycuhbrsc.jpg,,,<,Face,,,,,1,,,,,,,o
355,30,Presentation,7,00076931230fa_sunaafewhewbxmjiurz.jpg,00235940128fb_sunabclssnoeuigtawp.jpg,00076931230fa.jpg,sunaafewhewbxmjiurz.jpg,00235940128fb.jpg,sunabclssnoeuigtawp.jpg,,,<,Face,,,,,1,,,,,,,o
356,30,Presentation,7,00744941201fa_sunaeomlfaabhpswasy.jpg,00267940128fb_sunablfqiwfqomjarht.jpg,00744941201fa.jpg,sunaeomlfaabhpswasy.jpg,00267940128fb.jpg,sunablfqiwfqomjarht.jpg,,,<,Face,,,,,1,,,,,,,x
357,30,Presentation,7,00210940128fb_sunabanoxjtqxamkucc.jpg,00789960620fa_sunagpancjmxqfazssf.jpg,00210940128fb.jpg,sunabanoxjtqxamkucc.jpg,00789960620fa.jpg,sunagpancjmxqfazssf.jpg,,,<,Face,,,,,1,,,,,,,o
358,30,Presentation,7,00158931230fb_sunaavchcbptaerhcfy.jpg,00138931230fa_sunaapfaivxqoynnwwp.jpg,00158931230fb.jpg,sunaavchcbptaerhcfy.jpg,00138931230fa.jpg,sunaapfaivxqoynnwwp.jpg,,,<,Face,,,,,1,,,,,,,o
359,30,Presentation,7,00955960627fb_sunauburywlkjszngcq.jpg,00810941205fa_sunahctntqrunhdxhtb.jpg,00955960627fb.jpg,sunauburywlkjszngcq.jpg,00810941205fa.jpg,sunahctntqrunhdxhtb.jpg,,,<,Face,,,,,1,,,,,,,x
360,30,Memory,7,,,,,,,sunaenwuebvlpdmntju.jpg,,,,,,,,,,,,,,,
361,30,Memory,7,,,,,,,00191940128fb.jpg,,,,,,,,,,,,,,,
362,30,Memory,7,,,,,,,sunarceibpcyacbmfga.jpg,,,,,,,,,,,,,,,
363,30,Memory,7,,,,,,,sunbwaafjdebjzttuvq.jpg,,,,,,,,,,,,,,,
364,30,Memory,7,,,,,,,00306940422fa.jpg,,,,,,,,,,,,,,,
365,30,Memory,7,,,,,,,sunbpvgllfdejxcpjqp.jpg,,,,,,,,,,,,,,,
366,30,Memory,7,,,,,,,00971960627fa.jpg,,,,,,,,,,,,,,,
367,30,Memory,7,,,,,,,sunaawsdjisukbbginm.jpg,,,,,,,,,,,,,,,
368,30,Memory,7,,,,,,,00065931230fb.jpg,,,,,,,,,,,,,,,
369,30,Memory,7,,,,,,,00280940422fb.jpg,,,,,,,,,,,,,,,
370,30,Memory,7,,,,,,,00999960627fa.jpg,,,,,,,,,,,,,,,
371,30,Memory,7,,,,,,,00939960627fa.jpg,,,,,,,,,,,,,,,
372,30,Memory,7,,,,,,,sunahctntqrunhdxhtb.jpg,,,,,,,,,,,,,,,
373,30,Memory,7,,,,,,,sunafgdqbclkwfocdhg.jpg,,,,,,,,,,,,,,,
374,30,Memory,7,,,,,,,00663941121fa.jpg,,,,,,,,,,,,,,,
375,30,Memory,7,,,,,,,sunbbegcweqnetpdlrh.jpg,,,,,,,,,,,,,,,
376,30,Memory,7,,,,,,,sunaaemixhfquhnxxlm.jpg,,,,,,,,,,,,,,,
377,30,Memory,7,,,,,,,00076931230fa.jpg,,,,,,,,,,,,,,,
378,30,Memory,7,,,,,,,sunahbvlpavurqoxdeq.jpg,,,,,,,,,,,,,,,
379,30,Memory,7,,,,,,,sunagcinxkccdtrjmlv.jpg,,,,,,,,,,,,,,,
380,30,Memory,7,,,,,,,00960960627fa.jpg,,,,,,,,,,,,,,,
381,30,Memory,7,,,,,,,sunaauglwmctnkxyird.jpg,,,,,,,,,,,,,,,
382,30,Memory,7,,,,,,,sunabueyoajufbkraki.jpg,,,,,,,,,,,,,,,
383,30,Memory,7,,,,,,,sunadnjjzohjhbohlwq.jpg,,,,,,,,,,,,,,,
384,30,Memory,7,,,,,,,00761960627fa.jpg,,,,,,,,,,,,,,,
385,30,Memory,7,,,,,,,00149931230fa.jpg,,,,,,,,,,,,,,,
386,30,Memory,7,,,,,,,00996960627fa.jpg,,,,,,,,,,,,,,,
387,30,Memory,7,,,,,,,sunabohxbskznglnrhv.jpg,,,,,,,,,,,,,,,
388,30,Memory,7,,,,,,,sunbvbrvgbpanfrawft.jpg,,,,,,,,,,,,,,,
389,30,Memory,7,,,,,,,sunaafewhewbxmjiurz.jpg,,,,,,,,,,,,,,,
390,30,Memory,7,,,,,,,01002960627fb.jpg,,,,,,,,,,,,,,,
391,30,Memory,7,,,,,,,00809960620fa.jpg,,,,,,,,,,,,,,,
392,30,Memory,7,,,,,,,sunawksfbacycuhbrsc.jpg,,,,,,,,,,,,,,,
393,30,Memory,7,,,,,,,00742941201fa.jpg,,,,,,,,,,,,,,,
394,30,Memory,7,,,,,,,00138931230fa.jpg,,,,,,,,,,,,,,,
395,30,Memory,7,,,,,,,sunaapfaivxqoynnwwp.jpg,,,,,,,,,,,,,,,
396,30,Memory,7,,,,,,,00810941205fa.jpg,,,,,,,,,,,,,,,
397,30,Memory,7,,,,,,,sunaavchcbptaerhcfy.jpg,,,,,,,,,,,,,,,
398,30,Memory,7,,,,,,,00777941205fa.jpg,,,,,,,,,,,,,,,
399,30,Memory,7,,,,,,,00158931230fb.jpg,,,,,,,,,,,,,,,
