,Subject,Trial Type,Run,Cued Composite,Uncued Composite,Cued Face,Cued Place,Uncued Face,Uncued Place,Memory Image,Category,Cued Side,Cued Category,Attention Reaction Time (s),Familiarity Reaction Time (s),Familiarity Rating,Attention Level,Cue Validity,Post Invalid Cue,Pre Invalid Cue,Attention Button,Rating History,Stimulus Onset,Stimulus End,Attention Probe
0,5,Presentation,0,00851940307fa_sunaivflshbyfrfzhqb.jpg,00797960620fa_sunagufzbeteqdjxais.jpg,00851940307fa.jpg,sunaivflshbyfrfzhqb.jpg,00797960620fa.jpg,sunagufzbeteqdjxais.jpg,,,>,Face,,,,,1,,,,,,,x
1,5,Presentation,0,00877960530fa_sunajxpkuhbizeveguy.jpg,00548940519fa_sunacerqowiaeoqkmsq.jpg,00877960530fa.jpg,sunajxpkuhbizeveguy.jpg,00548940519fa.jpg,sunacerqowiaeoqkmsq.jpg,,,<,Face,,,,,1,,,,,,,x
2,5,Presentation,0,00908960530fa_sunanwjjyqqwzqrqagd.jpg,00598940928fa_sunacxeheuiigkcgquf.jpg,00908960530fa.jpg,sunanwjjyqqwzqrqagd.jpg,00598940928fa.jpg,sunacxeheuiigkcgquf.jpg,,,<,Place,,,,,1,,,,,,,o
3,5,Presentation,0,00589940928fa_sunacwggadqsfpovdjv.jpg,00270940422fb_sunabllobxadqcyttej.jpg,00589940928fa.jpg,sunacwggadqsfpovdjv.jpg,00270940422fb.jpg,sunabllobxadqcyttej.jpg,,,>,Place,,,,,1,,,,,,,x
4,5,Presentation,0,00095931230fa_sunaahzooisqkwlxwoz.jpg,00858940307fa_sunaixpqndlwhwjtjek.jpg,00095931230fa.jpg,sunaahzooisqkwlxwoz.jpg,00858940307fa.jpg,sunaixpqndlwhwjtjek.jpg,,,<,Place,,,,,1,,,,,,,o
5,5,Presentation,0,00979960627fa_sunbdycacjfaujxitbw.jpg,00777941205fa_sunagcinxkccdtrjmlv.jpg,00979960627fa.jpg,sunbdycacjfaujxitbw.jpg,00777941205fa.jpg,sunagcinxkccdtrjmlv.jpg,,,<,Face,,,,,0,,,,,,,o
6,5,Presentation,0,00950960627fa_sunasrjlmglmjzbmqxb.jpg,00631940928fa_sunadbdqzigzwipuipr.jpg,00950960627fa.jpg,sunasrjlmglmjzbmqxb.jpg,00631940928fa.jpg,sunadbdqzigzwipuipr.jpg,,,>,Face,,,,,1,,,,,,,o
7,5,Presentation,0,00090931230fa_sunaahedjlmtqekgyvj.jpg,00784941205fb_sunagjzcrjvmxzqzljx.jpg,00090931230fa.jpg,sunaahedjlmtqekgyvj.jpg,00784941205fb.jpg,sunagjzcrjvmxzqzljx.jpg,,,>,Face,,,,,1,,,,,,,x
8,5,Presentation,0,00124931230fa_sunaalhlvzmjmitybdn.jpg,00870940307fa_sunajrgtewnualfcerj.jpg,00124931230fa.jpg,sunaalhlvzmjmitybdn.jpg,00870940307fa.jpg,sunajrgtewnualfcerj.jpg,,,>,Place,,,,,1,,,,,,,x
9,5,Presentation,0,00081941031fa_sunaaftlyfudyzuhqzf.jpg,00070940307fa_sunaaeplwsfslcbtojr.jpg,00081941031fa.jpg,sunaaftlyfudyzuhqzf.jpg,00070940307fa.jpg,sunaaeplwsfslcbtojr.jpg,,,<,Place,,,,,1,,,,,,,o
10,5,Memory,0,,,,,,,sunabqowuarvqqcnipn.jpg,,,,,,,,,,,,,,,
11,5,Memory,0,,,,,,,00090931230fa.jpg,,,,,,,,,,,,,,,
12,5,Memory,0,,,,,,,00776941205fa.jpg,,,,,,,,,,,,,,,
13,5,Memory,0,,,,,,,sunaalltyvjhbzhkmvg.jpg,,,,,,,,,,,,,,,
14,5,Memory,0,,,,,,,sunahgtbwgsmtqeodwh.jpg,,,,,,,,,,,,,,,
15,5,Memory,0,,,,,,,sunagjeesomrwjsfqie.jpg,,,,,,,,,,,,,,,
16,5,Memory,0,,,,,,,sunagufzbeteqdjxais.jpg,,,,,,,,,,,,,,,
17,5,Memory,0,,,,,,,sunanwjjyqqwzqrqagd.jpg,,,,,,,,,,,,,,,
18,5,Memory,0,,,,,,,00124931230fa.jpg,,,,,,,,,,,,,,,
19,5,Memory,0,,,,,,,00529940519fa.jpg,,,,,,,,,,,,,,,
20,5,Memory,0,,,,,,,sunaixpqndlwhwjtjek.jpg,,,,,,,,,,,,,,,
21,5,Memory,0,,,,,,,sunaahedjlmtqekgyvj.jpg,,,,,,,,,,,,,,,
22,5,Memory,0,,,,,,,00783941205fa.jpg,,,,,,,,,,,,,,,
23,5,Memory,0,,,,,,,sunacxeheuiigkcgquf.jpg,,,,,,,,,,,,,,,
24,5,Memory,0,,,,,,,00101931230fb.jpg,,,,,,,,,,,,,,,
25,5,Memory,0,,,,,,,00125931230fa.jpg,,,,,,,,,,,,,,,
26,5,Memory,0,,,,,,,00598940928fa.jpg,,,,,,,,,,,,,,,
27,5,Memory,0,,,,,,,sunaalhlvzmjmitybdn.jpg,,,,,,,,,,,,,,,
28,5,Memory,0,,,,,,,00812941205fa.jpg,,,,,,,,,,,,,,,
29,5,Memory,0,,,,,,,00270940422fb.jpg,,,,,,,,,,,,,,,
30,5,Memory,0,,,,,,,00797960620fa.jpg,,,,,,,,,,,,,,,
31,5,Memory,0,,,,,,,sunaahzooisqkwlxwoz.jpg,,,,,,,,,,,,,,,
32,5,Memory,0,,,,,,,sunafxokyavhgptyfye.jpg,,,,,,,,,,,,,,,
33,5,Memory,0,,,,,,,00925960627fa.jpg,,,,,,,,,,,,,,,
34,5,Memory,0,,,,,,,00081941031fa.jpg,,,,,,,,,,,,,,,
35,5,Memory,0,,,,,,,sunacbeefkxpymwevpk.jpg,,,,,,,,,,,,,,,
36,5,Memory,0,,,,,,,00858940307fa.jpg,,,,,,,,,,,,,,,
37,5,Memory,0,,,,,,,sunaajqmsaavkmgbsth.jpg,,,,,,,,,,,,,,,
38,5,Memory,0,,,,,,,00070940307fa.jpg,,,,,,,,,,,,,,,
39,5,Memory,0,,,,,,,sunaptrqvaooxfvktvw.jpg,,,,,,,,,,,,,,,
40,5,Memory,0,,,,,,,00942960627fa.jpg,,,,,,,,,,,,,,,
41,5,Memory,0,,,,,,,00095931230fa.jpg,,,,,,,,,,,,,,,
42,5,Memory,0,,,,,,,sunabllobxadqcyttej.jpg,,,,,,,,,,,,,,,
43,5,Memory,0,,,,,,,00931960627fa.jpg,,,,,,,,,,,,,,,
44,5,Memory,0,,,,,,,sunarfdklgdnjgeqfjg.jpg,,,,,,,,,,,,,,,
45,5,Memory,0,,,,,,,sunapqwnqzxlsfvgsjm.jpg,,,,,,,,,,,,,,,
46,5,Memory,0,,,,,,,sunaaeplwsfslcbtojr.jpg,,,,,,,,,,,,,,,
47,5,Memory,0,,,,,,,sunaaftlyfudyzuhqzf.jpg,,,,,,,,,,,,,,,
48,5,Memory,0,,,,,,,00908960530fa.jpg,,,,,,,,,,,,,,,
49,5,Memory,0,,,,,,,00290940422fa.jpg,,,,,,,,,,,,,,,
50,5,Presentation,1,00133931230fa_sunaanlwnpqndclffxt.jpg,00789960620fa_sunagpancjmxqfazssf.jpg,00133931230fa.jpg,sunaanlwnpqndclffxt.jpg,00789960620fa.jpg,sunagpancjmxqfazssf.jpg,,,<,Face,,,,,1,,,,,,,x
51,5,Presentation,1,00761960627fa_sunafgdqbclkwfocdhg.jpg,00835940307fa_sunaijsqpvodplbwxkf.jpg,00761960627fa.jpg,sunafgdqbclkwfocdhg.jpg,00835940307fa.jpg,sunaijsqpvodplbwxkf.jpg,,,>,Place,,,,,1,,,,,,,x
52,5,Presentation,1,00780960530fa_sunagetqixeypsysbpn.jpg,00793941205fa_sunagtjwilqjvxohypn.jpg,00780960530fa.jpg,sunagetqixeypsysbpn.jpg,00793941205fa.jpg,sunagtjwilqjvxohypn.jpg,,,>,Face,,,,,1,,,,,,,x
53,5,Presentation,1,00063931230fa_sunaaelyvurpntclgau.jpg,00868960307fa_sunajjxttslobudoqbv.jpg,00063931230fa.jpg,sunaaelyvurpntclgau.jpg,00868960307fa.jpg,sunajjxttslobudoqbv.jpg,,,>,Place,,,,,1,,,,,,,x
54,5,Presentation,1,00112931230fa_sunaakjaacuzulqckgl.jpg,00973960627fa_sunbbgtoeuzierkkajt.jpg,00112931230fa.jpg,sunaakjaacuzulqckgl.jpg,00973960627fa.jpg,sunbbgtoeuzierkkajt.jpg,,,<,Place,,,,,1,,,,,,,o
55,5,Presentation,1,00727941205fa_sunaeisnjeetzmkbuad.jpg,00296940422fa_sunabrwnslxalcohfre.jpg,00727941205fa.jpg,sunaeisnjeetzmkbuad.jpg,00296940422fa.jpg,sunabrwnslxalcohfre.jpg,,,>,Face,,,,,1,,,,,,,x
56,5,Presentation,1,00815941205fa_sunahiphsekjihkafsl.jpg,00638941031fa_sunadfktsqjthoglcsm.jpg,00815941205fa.jpg,sunahiphsekjihkafsl.jpg,00638941031fa.jpg,sunadfktsqjthoglcsm.jpg,,,<,Face,,,,,1,,,,,,,o
57,5,Presentation,1,00208940128fa_sunaazzyhbvqjpmazjq.jpg,00911960530fa_sunaooaqzputrowwbsw.jpg,00208940128fa.jpg,sunaazzyhbvqjpmazjq.jpg,00911960530fa.jpg,sunaooaqzputrowwbsw.jpg,,,<,Place,,,,,1,,,,,,,o
58,5,Presentation,1,00804960530fa_sunagwswhkvnsmuszlz.jpg,00197940128fa_sunaaylzyqlqrsmfwif.jpg,00804960530fa.jpg,sunagwswhkvnsmuszlz.jpg,00197940128fa.jpg,sunaaylzyqlqrsmfwif.jpg,,,<,Place,,,,,1,,,,,,,x
59,5,Presentation,1,00162931230fb_sunaavjinpnkappuonm.jpg,00984960627fa_sunbfzchmomnvzhbxdg.jpg,00162931230fb.jpg,sunaavjinpnkappuonm.jpg,00984960627fa.jpg,sunbfzchmomnvzhbxdg.jpg,,,>,Face,,,,,1,,,,,,,o
60,5,Memory,1,,,,,,,sunadfktsqjthoglcsm.jpg,,,,,,,,,,,,,,,
61,5,Memory,1,,,,,,,sunahqldjibofgsfdgb.jpg,,,,,,,,,,,,,,,
62,5,Memory,1,,,,,,,00126931230fb.jpg,,,,,,,,,,,,,,,
63,5,Memory,1,,,,,,,sunaamdjwemxpmmtypi.jpg,,,,,,,,,,,,,,,
64,5,Memory,1,,,,,,,00162931230fb.jpg,,,,,,,,,,,,,,,
65,5,Memory,1,,,,,,,sunaakxjfbrrequcjmx.jpg,,,,,,,,,,,,,,,
66,5,Memory,1,,,,,,,00727941205fa.jpg,,,,,,,,,,,,,,,
67,5,Memory,1,,,,,,,sunbgklxeqjhdbyfhhy.jpg,,,,,,,,,,,,,,,
68,5,Memory,1,,,,,,,00815941205fa.jpg,,,,,,,,,,,,,,,
69,5,Memory,1,,,,,,,00793941205fa.jpg,,,,,,,,,,,,,,,
70,5,Memory,1,,,,,,,sunaaylzyqlqrsmfwif.jpg,,,,,,,,,,,,,,,
71,5,Memory,1,,,,,,,00984960627fa.jpg,,,,,,,,,,,,,,,
72,5,Memory,1,,,,,,,00804960530fa.jpg,,,,,,,,,,,,,,,
73,5,Memory,1,,,,,,,00122931230fa.jpg,,,,,,,,,,,,,,,
74,5,Memory,1,,,,,,,00760960620fa.jpg,,,,,,,,,,,,,,,
75,5,Memory,1,,,,,,,sunaaexqbtdswxrqjvz.jpg,,,,,,,,,,,,,,,
76,5,Memory,1,,,,,,,sunaavodbcpygkggnfp.jpg,,,,,,,,,,,,,,,
77,5,Memory,1,,,,,,,sunajjxttslobudoqbv.jpg,,,,,,,,,,,,,,,
78,5,Memory,1,,,,,,,00944960627fa.jpg,,,,,,,,,,,,,,,
79,5,Memory,1,,,,,,,00197940128fa.jpg,,,,,,,,,,,,,,,
80,5,Memory,1,,,,,,,00819940307fa.jpg,,,,,,,,,,,,,,,
81,5,Memory,1,,,,,,,sunahiphsekjihkafsl.jpg,,,,,,,,,,,,,,,
82,5,Memory,1,,,,,,,sunacsaovnjezqwbykf.jpg,,,,,,,,,,,,,,,
83,5,Memory,1,,,,,,,00063931230fa.jpg,,,,,,,,,,,,,,,
84,5,Memory,1,,,,,,,sunasbbntuiheekqyaq.jpg,,,,,,,,,,,,,,,
85,5,Memory,1,,,,,,,sunagtjwilqjvxohypn.jpg,,,,,,,,,,,,,,,
86,5,Memory,1,,,,,,,sunaeisnjeetzmkbuad.jpg,,,,,,,,,,,,,,,
87,5,Memory,1,,,,,,,sunagwswhkvnsmuszlz.jpg,,,,,,,,,,,,,,,
88,5,Memory,1,,,,,,,sunaavjinpnkappuonm.jpg,,,,,,,,,,,,,,,
89,5,Memory,1,,,,,,,00638941031fa.jpg,,,,,,,,,,,,,,,
90,5,Memory,1,,,,,,,00868960307fa.jpg,,,,,,,,,,,,,,,
91,5,Memory,1,,,,,,,00163931230fb.jpg,,,,,,,,,,,,,,,
92,5,Memory,1,,,,,,,sunaaelyvurpntclgau.jpg,,,,,,,,,,,,,,,
93,5,Memory,1,,,,,,,00564941031fa.jpg,,,,,,,,,,,,,,,
94,5,Memory,1,,,,,,,00071941031fa.jpg,,,,,,,,,,,,,,,
95,5,Memory,1,,,,,,,sunaffstbkappprzxnv.jpg,,,,,,,,,,,,,,,
96,5,Memory,1,,,,,,,00869940307fa.jpg,,,,,,,,,,,,,,,
97,5,Memory,1,,,,,,,00985960627fa.jpg,,,,,,,,,,,,,,,
98,5,Memory,1,,,,,,,sunbfzchmomnvzhbxdg.jpg,,,,,,,,,,,,,,,
99,5,Memory,1,,,,,,,sunajoveqhiprwqgoco.jpg,,,,,,,,,,,,,,,
100,5,Presentation,2,00884960530fa_sunakodkcslgqhqlgwl.jpg,00505960627fa_sunabzuqsrgcsonqlkz.jpg,00884960530fa.jpg,sunakodkcslgqhqlgwl.jpg,00505960627fa.jpg,sunabzuqsrgcsonqlkz.jpg,,,<,Face,,,,,1,,,,,,,o
101,5,Presentation,2,00482940519fa_sunabyfxcxhdebvdyfd.jpg,00109931230fa_sunaajuzribjrizdshh.jpg,00482940519fa.jpg,sunabyfxcxhdebvdyfd.jpg,00109931230fa.jpg,sunaajuzribjrizdshh.jpg,,,<,Face,,,,,1,,,,,,,x
102,5,Presentation,2,00498960627fa_sunabzjxlmkwnwzimua.jpg,00746941201fa_sunaetydippjxikifsb.jpg,00498960627fa.jpg,sunabzjxlmkwnwzimua.jpg,00746941201fa.jpg,sunaetydippjxikifsb.jpg,,,>,Place,,,,,1,,,,,,,o
103,5,Presentation,2,00313940422fa_sunabwjvmoaddlyxfjr.jpg,00816941205fa_sunahmhrncocyhsjpxk.jpg,00313940422fa.jpg,sunabwjvmoaddlyxfjr.jpg,00816941205fa.jpg,sunahmhrncocyhsjpxk.jpg,,,>,Face,,,,,0,,,,,,,o
104,5,Presentation,2,00728941205fa_sunaejnvnpltdmhbcsi.jpg,00211940128fa_sunabasphceswhwwqvv.jpg,00728941205fa.jpg,sunaejnvnpltdmhbcsi.jpg,00211940128fa.jpg,sunabasphceswhwwqvv.jpg,,,>,Place,,,,,1,,,,,,,o
105,5,Presentation,2,00153931230fa_sunaauhozyxzeeqstxi.jpg,00871940307_sunajrujcsdxmfbssmc.jpg,00153931230fa.jpg,sunaauhozyxzeeqstxi.jpg,00871940307.jpg,sunajrujcsdxmfbssmc.jpg,,,<,Place,,,,,1,,,,,,,x
106,5,Presentation,2,00267940128fb_sunablfqiwfqomjarht.jpg,00893960530Fa_sunaloffvbvysigxent.jpg,00267940128fb.jpg,sunablfqiwfqomjarht.jpg,00893960530Fa.jpg,sunaloffvbvysigxent.jpg,,,<,Face,,,,,1,,,,,,,o
107,5,Presentation,2,00540940519fa_sunacdnquypmsshhsbk.jpg,00080931230fb_sunaafjszryxyavjzln.jpg,00540940519fa.jpg,sunacdnquypmsshhsbk.jpg,00080931230fb.jpg,sunaafjszryxyavjzln.jpg,,,>,Face,,,,,1,,,,,,,o
108,5,Presentation,2,00809960620fa_sunahbvlpavurqoxdeq.jpg,00060931230fa_sunaaehaikpckyjsety.jpg,00809960620fa.jpg,sunahbvlpavurqoxdeq.jpg,00060931230fa.jpg,sunaaehaikpckyjsety.jpg,,,<,Place,,,,,1,,,,,,,x
109,5,Presentation,2,00065931230fb_sunaaemixhfquhnxxlm.jpg,00836940307fa_sunainqelldeebvxtcz.jpg,00065931230fb.jpg,sunaaemixhfquhnxxlm.jpg,00836940307fa.jpg,sunainqelldeebvxtcz.jpg,,,>,Place,,,,,1,,,,,,,x
110,5,Memory,2,,,,,,,00893960530Fa.jpg,,,,,,,,,,,,,,,
111,5,Memory,2,,,,,,,00568940928fa.jpg,,,,,,,,,,,,,,,
112,5,Memory,2,,,,,,,00096931230fa.jpg,,,,,,,,,,,,,,,
113,5,Memory,2,,,,,,,00498960627fa.jpg,,,,,,,,,,,,,,,
114,5,Memory,2,,,,,,,00836940307fa.jpg,,,,,,,,,,,,,,,
115,5,Memory,2,,,,,,,00795941205fa.jpg,,,,,,,,,,,,,,,
116,5,Memory,2,,,,,,,00884960530fa.jpg,,,,,,,,,,,,,,,
117,5,Memory,2,,,,,,,00809960620fa.jpg,,,,,,,,,,,,,,,
118,5,Memory,2,,,,,,,sunatstrpjxhvtbaczf.jpg,,,,,,,,,,,,,,,
119,5,Memory,2,,,,,,,00993960627fa.jpg,,,,,,,,,,,,,,,
120,5,Memory,2,,,,,,,sunbprywzqxjcezkbch.jpg,,,,,,,,,,,,,,,
121,5,Memory,2,,,,,,,sunahbvlpavurqoxdeq.jpg,,,,,,,,,,,,,,,
122,5,Memory,2,,,,,,,sunaauhozyxzeeqstxi.jpg,,,,,,,,,,,,,,,
123,5,Memory,2,,,,,,,sunauburywlkjszngcq.jpg,,,,,,,,,,,,,,,
124,5,Memory,2,,,,,,,00955960627fb.jpg,,,,,,,,,,,,,,,
125,5,Memory,2,,,,,,,sunabzuqsrgcsonqlkz.jpg,,,,,,,,,,,,,,,
126,5,Memory,2,,,,,,,00609940928fa.jpg,,,,,,,,,,,,,,,
127,5,Memory,2,,,,,,,00719960620fa.jpg,,,,,,,,,,,,,,,
128,5,Memory,2,,,,,,,sunaqbmgkgqucajzrkp.jpg,,,,,,,,,,,,,,,
129,5,Memory,2,,,,,,,00153931230fa.jpg,,,,,,,,,,,,,,,
130,5,Memory,2,,,,,,,sunainqelldeebvxtcz.jpg,,,,,,,,,,,,,,,
131,5,Memory,2,,,,,,,00728941205fa.jpg,,,,,,,,,,,,,,,
132,5,Memory,2,,,,,,,00935960627fa.jpg,,,,,,,,,,,,,,,
133,5,Memory,2,,,,,,,00650941031fa.jpg,,,,,,,,,,,,,,,
134,5,Memory,2,,,,,,,sunaaiqiqcggrskoqgy.jpg,,,,,,,,,,,,,,,
135,5,Memory,2,,,,,,,00211940128fa.jpg,,,,,,,,,,,,,,,
136,5,Memory,2,,,,,,,sunadikxpvqeabxrvvc.jpg,,,,,,,,,,,,,,,
137,5,Memory,2,,,,,,,sunacycdoztxoluxjyk.jpg,,,,,,,,,,,,,,,
138,5,Memory,2,,,,,,,00953960627fa.jpg,,,,,,,,,,,,,,,
139,5,Memory,2,,,,,,,sunadzuvtmtmgupotmf.jpg,,,,,,,,,,,,,,,
140,5,Memory,2,,,,,,,sunabzjxlmkwnwzimua.jpg,,,,,,,,,,,,,,,
141,5,Memory,2,,,,,,,sunaetydippjxikifsb.jpg,,,,,,,,,,,,,,,
142,5,Memory,2,,,,,,,00746941201fa.jpg,,,,,,,,,,,,,,,
143,5,Memory,2,,,,,,,sunacsdhbbsybcyxnel.jpg,,,,,,,,,,,,,,,
144,5,Memory,2,,,,,,,sunaejnvnpltdmhbcsi.jpg,,,,,,,,,,,,,,,
145,5,Memory,2,,,,,,,sunakodkcslgqhqlgwl.jpg,,,,,,,,,,,,,,,
146,5,Memory,2,,,,,,,sunabasphceswhwwqvv.jpg,,,,,,,,,,,,,,,
147,5,Memory,2,,,,,,,sunagtumacdlmciqamz.jpg,,,,,,,,,,,,,,,
148,5,Memory,2,,,,,,,00505960627fa.jpg,,,,,,,,,,,,,,,
149,5,Memory,2,,,,,,,sunaloffvbvysigxent.jpg,,,,,,,,,,,,,,,
150,5,Presentation,3,00138931230fa_sunaapfaivxqoynnwwp.jpg,00796941205fa_sunaguchqqnrtodtezq.jpg,00138931230fa.jpg,sunaapfaivxqoynnwwp.jpg,00796941205fa.jpg,sunaguchqqnrtodtezq.jpg,,,>,Face,,,,,1,,,,,,,o
151,5,Presentation,3,00779941205fa_sunagdzlvkqtpnfxfcg.jpg,00922960627fa_sunapqkyghktgtosuuk.jpg,00779941205fa.jpg,sunagdzlvkqtpnfxfcg.jpg,00922960627fa.jpg,sunapqkyghktgtosuuk.jpg,,,<,Face,,,,,1,,,,,,,x
152,5,Presentation,3,00854940307fa_sunaiwduelojtwaqeyh.jpg,00959960627fa_sunavxokzybtomhbmvm.jpg,00854940307fa.jpg,sunaiwduelojtwaqeyh.jpg,00959960627fa.jpg,sunavxokzybtomhbmvm.jpg,,,<,Place,,,,,1,,,,,,,o
153,5,Presentation,3,00990960627fa_sunbpflsdaxnddnwcqi.jpg,01007960627fa_sunbxarcshsnqsefemx.jpg,00990960627fa.jpg,sunbpflsdaxnddnwcqi.jpg,01007960627fa.jpg,sunbxarcshsnqsefemx.jpg,,,<,Face,,,,,1,,,,,,,o
154,5,Presentation,3,00741941201fa_sunaemcowdozyphwknd.jpg,00971960627fa_sunbbegcweqnetpdlrh.jpg,00741941201fa.jpg,sunaemcowdozyphwknd.jpg,00971960627fa.jpg,sunbbegcweqnetpdlrh.jpg,,,>,Place,,,,,1,,,,,,,x
155,5,Presentation,3,00745941205fa_sunaeouogqolxvggaoq.jpg,00803941205fa_sunagvxkjokqimstxpe.jpg,00745941205fa.jpg,sunaeouogqolxvggaoq.jpg,00803941205fa.jpg,sunagvxkjokqimstxpe.jpg,,,<,Face,,,,,1,,,,,,,x
156,5,Presentation,3,00963960627fa_sunayaepykrqvenaqqy.jpg,00889960530fa_sunaletopenvvozhpxc.jpg,00963960627fa.jpg,sunayaepykrqvenaqqy.jpg,00889960530fa.jpg,sunaletopenvvozhpxc.jpg,,,<,Place,,,,,1,,,,,,,o
157,5,Presentation,3,00936960627fa_sunaqgjuuwvdcyiccjt.jpg,00260940128fa_sunabgfhvifeijihhjw.jpg,00936960627fa.jpg,sunaqgjuuwvdcyiccjt.jpg,00260940128fa.jpg,sunabgfhvifeijihhjw.jpg,,,>,Place,,,,,1,,,,,,,x
158,5,Presentation,3,00919960620fa_sunapmfmzadmosuogaz.jpg,00772941201fa_sunafpfpiiujzoesnqg.jpg,00919960620fa.jpg,sunapmfmzadmosuogaz.jpg,00772941201fa.jpg,sunafpfpiiujzoesnqg.jpg,,,>,Face,,,,,1,,,,,,,o
159,5,Presentation,3,00305940422fa_sunabtrnbvpppgczjim.jpg,00092931230fa_sunaaheqzstzxuadglu.jpg,00305940422fa.jpg,sunabtrnbvpppgczjim.jpg,00092931230fa.jpg,sunaaheqzstzxuadglu.jpg,,,>,Place,,,,,0,,,,,,,x
160,5,Memory,3,,,,,,,sunapmfmzadmosuogaz.jpg,,,,,,,,,,,,,,,
161,5,Memory,3,,,,,,,01003960627fb.jpg,,,,,,,,,,,,,,,
162,5,Memory,3,,,,,,,sunbbxkanhzjgbwyxqs.jpg,,,,,,,,,,,,,,,
163,5,Memory,3,,,,,,,sunbwdrdvsweerwsdrj.jpg,,,,,,,,,,,,,,,
164,5,Memory,3,,,,,,,00959960627fa.jpg,,,,,,,,,,,,,,,
165,5,Memory,3,,,,,,,00138931230fa.jpg,,,,,,,,,,,,,,,
166,5,Memory,3,,,,,,,00963960627fa.jpg,,,,,,,,,,,,,,,
167,5,Memory,3,,,,,,,sunbxarcshsnqsefemx.jpg,,,,,,,,,,,,,,,
168,5,Memory,3,,,,,,,sunaletopenvvozhpxc.jpg,,,,,,,,,,,,,,,
169,5,Memory,3,,,,,,,00779941205fa.jpg,,,,,,,,,,,,,,,
170,5,Memory,3,,,,,,,00796941205fa.jpg,,,,,,,,,,,,,,,
171,5,Memory,3,,,,,,,sunafowswglhxcsufpo.jpg,,,,,,,,,,,,,,,
172,5,Memory,3,,,,,,,00266940128fb.jpg,,,,,,,,,,,,,,,
173,5,Memory,3,,,,,,,sunagmhildamktmqjss.jpg,,,,,,,,,,,,,,,
174,5,Memory,3,,,,,,,sunapileznnbbmrwoei.jpg,,,,,,,,,,,,,,,
175,5,Memory,3,,,,,,,sunagdzlvkqtpnfxfcg.jpg,,,,,,,,,,,,,,,
176,5,Memory,3,,,,,,,00915960620fa.jpg,,,,,,,,,,,,,,,
177,5,Memory,3,,,,,,,sunagtqhhwxjeuxdebe.jpg,,,,,,,,,,,,,,,
178,5,Memory,3,,,,,,,sunabtrnbvpppgczjim.jpg,,,,,,,,,,,,,,,
179,5,Memory,3,,,,,,,00922960627fa.jpg,,,,,,,,,,,,,,,
180,5,Memory,3,,,,,,,sunapqkyghktgtosuuk.jpg,,,,,,,,,,,,,,,
181,5,Memory,3,,,,,,,sunaguchqqnrtodtezq.jpg,,,,,,,,,,,,,,,
182,5,Memory,3,,,,,,,00262940128fa.jpg,,,,,,,,,,,,,,,
183,5,Memory,3,,,,,,,00073931230fa.jpg,,,,,,,,,,,,,,,
184,5,Memory,3,,,,,,,00889960530fa.jpg,,,,,,,,,,,,,,,
185,5,Memory,3,,,,,,,sunayaepykrqvenaqqy.jpg,,,,,,,,,,,,,,,
186,5,Memory,3,,,,,,,00305940422fa.jpg,,,,,,,,,,,,,,,
187,5,Memory,3,,,,,,,00771941205fa.jpg,,,,,,,,,,,,,,,
188,5,Memory,3,,,,,,,00786941205fa.jpg,,,,,,,,,,,,,,,
189,5,Memory,3,,,,,,,sunaapfaivxqoynnwwp.jpg,,,,,,,,,,,,,,,
190,5,Memory,3,,,,,,,00977960627fa.jpg,,,,,,,,,,,,,,,
191,5,Memory,3,,,,,,,sunabmbnddafmywtjjj.jpg,,,,,,,,,,,,,,,
192,5,Memory,3,,,,,,,sunavxokzybtomhbmvm.jpg,,,,,,,,,,,,,,,
193,5,Memory,3,,,,,,,sunabkngeblodihjvbk.jpg,,,,,,,,,,,,,,,
194,5,Memory,3,,,,,,,00919960620fa.jpg,,,,,,,,,,,,,,,
195,5,Memory,3,,,,,,,00794960620fa.jpg,,,,,,,,,,,,,,,
196,5,Memory,3,,,,,,,sunaafbmtoniaasysgu.jpg,,,,,,,,,,,,,,,
197,5,Memory,3,,,,,,,00271940422fa.jpg,,,,,,,,,,,,,,,
198,5,Memory,3,,,,,,,01007960627fa.jpg,,,,,,,,,,,,,,,
199,5,Memory,3,,,,,,,sunabizydfotqddlnjp.jpg,,,,,,,,,,,,,,,
200,5,Presentation,4,00754941201fa_sunaffgsyyvoqdlkmnk.jpg,00723941201fa_sunaedtgwjvvziytspa.jpg,00754941201fa.jpg,sunaffgsyyvoqdlkmnk.jpg,00723941201fa.jpg,sunaedtgwjvvziytspa.jpg,,,>,Place,,,,,1,,,,,,,o
201,5,Presentation,4,00952960627fa_sunathzzbcwjykldrem.jpg,00938960627fa_sunaqyylsngywqzwfmx.jpg,00952960627fa.jpg,sunathzzbcwjykldrem.jpg,00938960627fa.jpg,sunaqyylsngywqzwfmx.jpg,,,>,Face,,,,,0,,,,,,,x
202,5,Presentation,4,00235940128fb_sunabclssnoeuigtawp.jpg,00280940422fb_sunabohxbskznglnrhv.jpg,00235940128fb.jpg,sunabclssnoeuigtawp.jpg,00280940422fb.jpg,sunabohxbskznglnrhv.jpg,,,>,Place,,,,,1,,,,,,,x
203,5,Presentation,4,00902960530fa_sunanaacmmosxrfwmvl.jpg,00969960627fa_sunbaoizrfijvhpnnjn.jpg,00902960530fa.jpg,sunanaacmmosxrfwmvl.jpg,00969960627fa.jpg,sunbaoizrfijvhpnnjn.jpg,,,<,Place,,,,,1,,,,,,,o
204,5,Presentation,4,00076931230fa_sunaafewhewbxmjiurz.jpg,00885960530fa_sunakwlvxjpddialozd.jpg,00076931230fa.jpg,sunaafewhewbxmjiurz.jpg,00885960530fa.jpg,sunakwlvxjpddialozd.jpg,,,>,Face,,,,,1,,,,,,,x
205,5,Presentation,4,00554940519fa_sunacfdkbsrughwqwtt.jpg,00891960530fa_sunalkiibhqpxfamlll.jpg,00554940519fa.jpg,sunacfdkbsrughwqwtt.jpg,00891960530fa.jpg,sunalkiibhqpxfamlll.jpg,,,<,Face,,,,,1,,,,,,,x
206,5,Presentation,4,00294940422fb_sunabrlndkruqokhury.jpg,00913960530fa_sunaooffzffbhcpirmm.jpg,00294940422fb.jpg,sunabrlndkruqokhury.jpg,00913960530fa.jpg,sunaooffzffbhcpirmm.jpg,,,<,Place,,,,,1,,,,,,,x
207,5,Presentation,4,00559940519fa_sunacjkmnpawfzbyvae.jpg,00744941201fa_sunaeomlfaabhpswasy.jpg,00559940519fa.jpg,sunacjkmnpawfzbyvae.jpg,00744941201fa.jpg,sunaeomlfaabhpswasy.jpg,,,>,Face,,,,,1,,,,,,,x
208,5,Presentation,4,00077931230fb_sunaafgqutfaishsxyu.jpg,00909960530_sunaobtizabegtwfwul.jpg,00077931230fb.jpg,sunaafgqutfaishsxyu.jpg,00909960530.jpg,sunaobtizabegtwfwul.jpg,,,<,Face,,,,,1,,,,,,,o
209,5,Presentation,4,00921960627fa_sunapqkpqdfvxlbqwyo.jpg,00882960530fa_sunaknlirqjqiwbbeeg.jpg,00921960627fa.jpg,sunapqkpqdfvxlbqwyo.jpg,00882960530fa.jpg,sunaknlirqjqiwbbeeg.jpg,,,<,Place,,,,,1,,,,,,,x
210,5,Memory,4,,,,,,,sunaapllqyqlykszopd.jpg,,,,,,,,,,,,,,,
211,5,Memory,4,,,,,,,sunathzzbcwjykldrem.jpg,,,,,,,,,,,,,,,
212,5,Memory,4,,,,,,,00280940422fb.jpg,,,,,,,,,,,,,,,
213,5,Memory,4,,,,,,,sunaooffzffbhcpirmm.jpg,,,,,,,,,,,,,,,
214,5,Memory,4,,,,,,,00744941201fa.jpg,,,,,,,,,,,,,,,
215,5,Memory,4,,,,,,,00723941201fa.jpg,,,,,,,,,,,,,,,
216,5,Memory,4,,,,,,,00983960627fa.jpg,,,,,,,,,,,,,,,
217,5,Memory,4,,,,,,,sunacfdkbsrughwqwtt.jpg,,,,,,,,,,,,,,,
218,5,Memory,4,,,,,,,sunacuatpqpqhyjhjqk.jpg,,,,,,,,,,,,,,,
219,5,Memory,4,,,,,,,00913960530fa.jpg,,,,,,,,,,,,,,,
220,5,Memory,4,,,,,,,00790941205fa.jpg,,,,,,,,,,,,,,,
221,5,Memory,4,,,,,,,00077931230fb.jpg,,,,,,,,,,,,,,,
222,5,Memory,4,,,,,,,00119931230fb.jpg,,,,,,,,,,,,,,,
223,5,Memory,4,,,,,,,sunagpjzsbltchlwvou.jpg,,,,,,,,,,,,,,,
224,5,Memory,4,,,,,,,00140931230fb.jpg,,,,,,,,,,,,,,,
225,5,Memory,4,,,,,,,sunabohxbskznglnrhv.jpg,,,,,,,,,,,,,,,
226,5,Memory,4,,,,,,,sunafhmnhsdurlvddpw.jpg,,,,,,,,,,,,,,,
227,5,Memory,4,,,,,,,00878960530fa.jpg,,,,,,,,,,,,,,,
228,5,Memory,4,,,,,,,00825940307fa.jpg,,,,,,,,,,,,,,,
229,5,Memory,4,,,,,,,00763941205fa.jpg,,,,,,,,,,,,,,,
230,5,Memory,4,,,,,,,00663941121fa.jpg,,,,,,,,,,,,,,,
231,5,Memory,4,,,,,,,00571940928fa.jpg,,,,,,,,,,,,,,,
232,5,Memory,4,,,,,,,sunabrlndkruqokhury.jpg,,,,,,,,,,,,,,,
233,5,Memory,4,,,,,,,sunaedtgwjvvziytspa.jpg,,,,,,,,,,,,,,,
234,5,Memory,4,,,,,,,sunakgbnzxmfohgehnu.jpg,,,,,,,,,,,,,,,
235,5,Memory,4,,,,,,,00952960627fa.jpg,,,,,,,,,,,,,,,
236,5,Memory,4,,,,,,,00294940422fb.jpg,,,,,,,,,,,,,,,
237,5,Memory,4,,,,,,,sunaakvmbftkrgqhjun.jpg,,,,,,,,,,,,,,,
238,5,Memory,4,,,,,,,sunaqyylsngywqzwfmx.jpg,,,,,,,,,,,,,,,
239,5,Memory,4,,,,,,,sunapqkpqdfvxlbqwyo.jpg,,,,,,,,,,,,,,,
240,5,Memory,4,,,,,,,sunbfyvfqiimvdaxlqn.jpg,,,,,,,,,,,,,,,
241,5,Memory,4,,,,,,,sunadnjjzohjhbohlwq.jpg,,,,,,,,,,,,,,,
242,5,Memory,4,,,,,,,01009960627fa.jpg,,,,,,,,,,,,,,,
243,5,Memory,4,,,,,,,sunaeomlfaabhpswasy.jpg,,,,,,,,,,,,,,,
244,5,Memory,4,,,,,,,00938960627fa.jpg,,,,,,,,,,,,,,,
245,5,Memory,4,,,,,,,sunbxzweleltykebgan.jpg,,,,,,,,,,,,,,,
246,5,Memory,4,,,,,,,00921960627fa.jpg,,,,,,,,,,,,,,,
247,5,Memory,4,,,,,,,sunaafgqutfaishsxyu.jpg,,,,,,,,,,,,,,,
248,5,Memory,4,,,,,,,00554940519fa.jpg,,,,,,,,,,,,,,,
249,5,Memory,4,,,,,,,sunahrltmuwbiehihpe.jpg,,,,,,,,,,,,,,,
250,5,Presentation,5,00961960627fa_sunawotxrevnqvamsfp.jpg,00773960620fa_sunafvsxtzaizojicxx.jpg,00961960627fa.jpg,sunawotxrevnqvamsfp.jpg,00773960620fa.jpg,sunafvsxtzaizojicxx.jpg,,,>,Face,,,,,1,,,,,,,o
251,5,Presentation,5,00857940307fa_sunaiwfobocrruqznsv.jpg,01002960627fb_sunbwaafjdebjzttuvq.jpg,00857940307fa.jpg,sunaiwfobocrruqznsv.jpg,01002960627fb.jpg,sunbwaafjdebjzttuvq.jpg,,,<,Place,,,,,1,,,,,,,o
252,5,Presentation,5,00905960530fa_sunanmoqeyprjjjfxjt.jpg,00970960627fa_sunbasypfgzjtomktmu.jpg,00905960530fa.jpg,sunanmoqeyprjjjfxjt.jpg,00970960627fa.jpg,sunbasypfgzjtomktmu.jpg,,,>,Place,,,,,1,,,,,,,x
253,5,Presentation,5,00314940422fa_sunabwmcbaxwioksdgw.jpg,00997960627fa_sunbtpilbhhbmhmeuzq.jpg,00314940422fa.jpg,sunabwmcbaxwioksdgw.jpg,00997960627fa.jpg,sunbtpilbhhbmhmeuzq.jpg,,,<,Face,,,,,1,,,,,,,o
254,5,Presentation,5,00894960620fa_sunalqmfgeadpqsyzpd.jpg,00276940422fa_sunabmytpyhsgigllxu.jpg,00894960620fa.jpg,sunalqmfgeadpqsyzpd.jpg,00276940422fa.jpg,sunabmytpyhsgigllxu.jpg,,,>,Place,,,,,0,,,,,,,o
255,5,Presentation,5,00681941121fa_sunadqmjrhfjyuzyvdd.jpg,00914960620fa_sunaozisvwfbmlkfhzv.jpg,00681941121fa.jpg,sunadqmjrhfjyuzyvdd.jpg,00914960620fa.jpg,sunaozisvwfbmlkfhzv.jpg,,,<,Place,,,,,1,,,,,,,x
256,5,Presentation,5,00705941205fa_sunadtlxenqqxsyjvix.jpg,00191940128fb_sunaawsdjisukbbginm.jpg,00705941205fa.jpg,sunadtlxenqqxsyjvix.jpg,00191940128fb.jpg,sunaawsdjisukbbginm.jpg,,,<,Place,,,,,1,,,,,,,o
257,5,Presentation,5,00158931230fb_sunaavchcbptaerhcfy.jpg,00749941201fa_sunaeuvjbmdpknaqqaj.jpg,00158931230fb.jpg,sunaavchcbptaerhcfy.jpg,00749941201fa.jpg,sunaeuvjbmdpknaqqaj.jpg,,,<,Face,,,,,0,,,,,,,x
258,5,Presentation,5,00265940128fb_sunabkmdplkdbvxriff.jpg,00906960530fa_sunantryfbloeaomfta.jpg,00265940128fb.jpg,sunabkmdplkdbvxriff.jpg,00906960530fa.jpg,sunantryfbloeaomfta.jpg,,,>,Face,,,,,1,,,,,,,o
259,5,Presentation,5,00102931230fa_sunaajspcoepticvplv.jpg,00720960620fa_sunaecpkgfewqqreqwe.jpg,00102931230fa.jpg,sunaajspcoepticvplv.jpg,00720960620fa.jpg,sunaecpkgfewqqreqwe.jpg,,,>,Face,,,,,1,,,,,,,x
260,5,Memory,5,,,,,,,00265940128fb.jpg,,,,,,,,,,,,,,,
261,5,Memory,5,,,,,,,00720960620fa.jpg,,,,,,,,,,,,,,,
262,5,Memory,5,,,,,,,sunaeoghzrjarigmwua.jpg,,,,,,,,,,,,,,,
263,5,Memory,5,,,,,,,00198940128fb.jpg,,,,,,,,,,,,,,,
264,5,Memory,5,,,,,,,sunalqmfgeadpqsyzpd.jpg,,,,,,,,,,,,,,,
265,5,Memory,5,,,,,,,sunbddbivbptlrlauhy.jpg,,,,,,,,,,,,,,,
266,5,Memory,5,,,,,,,sunabkmdplkdbvxriff.jpg,,,,,,,,,,,,,,,
267,5,Memory,5,,,,,,,sunabrjdpmoedcdjbpo.jpg,,,,,,,,,,,,,,,
268,5,Memory,5,,,,,,,sunagwzdbtlixdhgolm.jpg,,,,,,,,,,,,,,,
269,5,Memory,5,,,,,,,sunaizgnnplsvajzhkc.jpg,,,,,,,,,,,,,,,
270,5,Memory,5,,,,,,,00766960620fa.jpg,,,,,,,,,,,,,,,
271,5,Memory,5,,,,,,,00276940422fa.jpg,,,,,,,,,,,,,,,
272,5,Memory,5,,,,,,,00191940128fb.jpg,,,,,,,,,,,,,,,
273,5,Memory,5,,,,,,,sunawotxrevnqvamsfp.jpg,,,,,,,,,,,,,,,
274,5,Memory,5,,,,,,,sunaazezcsunmhttzxz.jpg,,,,,,,,,,,,,,,
275,5,Memory,5,,,,,,,sunaecpkgfewqqreqwe.jpg,,,,,,,,,,,,,,,
276,5,Memory,5,,,,,,,00997960627fa.jpg,,,,,,,,,,,,,,,
277,5,Memory,5,,,,,,,00961960627fa.jpg,,,,,,,,,,,,,,,
278,5,Memory,5,,,,,,,00681941121fa.jpg,,,,,,,,,,,,,,,
279,5,Memory,5,,,,,,,00957960627fa.jpg,,,,,,,,,,,,,,,
280,5,Memory,5,,,,,,,00314940422fa.jpg,,,,,,,,,,,,,,,
281,5,Memory,5,,,,,,,sunaaeowapdkwzqpgqr.jpg,,,,,,,,,,,,,,,
282,5,Memory,5,,,,,,,sunbwaafjdebjzttuvq.jpg,,,,,,,,,,,,,,,
283,5,Memory,5,,,,,,,sunaawsdjisukbbginm.jpg,,,,,,,,,,,,,,,
284,5,Memory,5,,,,,,,sunadqmjrhfjyuzyvdd.jpg,,,,,,,,,,,,,,,
285,5,Memory,5,,,,,,,sunbtpilbhhbmhmeuzq.jpg,,,,,,,,,,,,,,,
286,5,Memory,5,,,,,,,00743941201fa.jpg,,,,,,,,,,,,,,,
287,5,Memory,5,,,,,,,sunabmytpyhsgigllxu.jpg,,,,,,,,,,,,,,,
288,5,Memory,5,,,,,,,sunabwmcbaxwioksdgw.jpg,,,,,,,,,,,,,,,
289,5,Memory,5,,,,,,,sunafijbgncijwykrnl.jpg,,,,,,,,,,,,,,,
290,5,Memory,5,,,,,,,00880960530fa.jpg,,,,,,,,,,,,,,,
291,5,Memory,5,,,,,,,sunavhxgmgrqsaptynb.jpg,,,,,,,,,,,,,,,
292,5,Memory,5,,,,,,,sunakmnfgklupjijsgf.jpg,,,,,,,,,,,,,,,
293,5,Memory,5,,,,,,,00292940422fb.jpg,,,,,,,,,,,,,,,
294,5,Memory,5,,,,,,,00805941205fa.jpg,,,,,,,,,,,,,,,
295,5,Memory,5,,,,,,,01002960627fb.jpg,,,,,,,,,,,,,,,
296,5,Memory,5,,,,,,,00069931230fb.jpg,,,,,,,,,,,,,,,
297,5,Memory,5,,,,,,,00978960627fa.jpg,,,,,,,,,,,,,,,
298,5,Memory,5,,,,,,,00894960620fa.jpg,,,,,,,,,,,,,,,
299,5,Memory,5,,,,,,,00862940307fa.jpg,,,,,,,,,,,,,,,
300,5,Presentation,6,00097931230fa_sunaajayojuslbbnneg.jpg,00209940128fb_sunabaergayifsgacxt.jpg,00097931230fa.jpg,sunaajayojuslbbnneg.jpg,00209940128fb.jpg,sunabaergayifsgacxt.jpg,,,>,Place,,,,,1,,,,,,,o
301,5,Presentation,6,00839940307fa_sunaipyohrqlwngaqif.jpg,00185940422fb_sunaawqdbpihmlbwyyn.jpg,00839940307fa.jpg,sunaipyohrqlwngaqif.jpg,00185940422fb.jpg,sunaawqdbpihmlbwyyn.jpg,,,<,Face,,,,,1,,,,,,,o
302,5,Presentation,6,00648941031fa_sunadfndyrtqqiasoig.jpg,00859940307fa_sunaiycurtqsfkvcaso.jpg,00648941031fa.jpg,sunadfndyrtqqiasoig.jpg,00859940307fa.jpg,sunaiycurtqsfkvcaso.jpg,,,>,Face,,,,,1,,,,,,,o
303,5,Presentation,6,00264940128fb_sunabjzyxcjnmztdonj.jpg,00630941031fa_sunadakkdovnuzlycvp.jpg,00264940128fb.jpg,sunabjzyxcjnmztdonj.jpg,00630941031fa.jpg,sunadakkdovnuzlycvp.jpg,,,<,Place,,,,,1,,,,,,,o
304,5,Presentation,6,00947960627fa_sunasmmcxdddtmtazwx.jpg,00129931230fb_sunaamsdyakblkfoydx.jpg,00947960627fa.jpg,sunasmmcxdddtmtazwx.jpg,00129931230fb.jpg,sunaamsdyakblkfoydx.jpg,,,>,Place,,,,,1,,,,,,,o
305,5,Presentation,6,00785941205fa_sunaglqunwuycxydmyu.jpg,00799941205fa_sunagutjvdvnhxejerz.jpg,00785941205fa.jpg,sunaglqunwuycxydmyu.jpg,00799941205fa.jpg,sunagutjvdvnhxejerz.jpg,,,<,Place,,,,,1,,,,,,,o
306,5,Presentation,6,00730960620fa_sunaekgzpfilgjxpeyq.jpg,00306940422fa_sunabueyoajufbkraki.jpg,00730960620fa.jpg,sunaekgzpfilgjxpeyq.jpg,00306940422fa.jpg,sunabueyoajufbkraki.jpg,,,<,Face,,,,,1,,,,,,,x
307,5,Presentation,6,00960960627fa_sunawksfbacycuhbrsc.jpg,00130931230fa_sunaamvxnvouicstkjb.jpg,00960960627fa.jpg,sunawksfbacycuhbrsc.jpg,00130931230fa.jpg,sunaamvxnvouicstkjb.jpg,,,>,Place,,,,,1,,,,,,,o
308,5,Presentation,6,00807941205fa_sunahawfngukizslzsd.jpg,00811960530fa_sunahedfrhtcwpneund.jpg,00807941205fa.jpg,sunahawfngukizslzsd.jpg,00811960530fa.jpg,sunahedfrhtcwpneund.jpg,,,>,Face,,,,,0,,,,,,,x
309,5,Presentation,6,00876960620fa_sunajwqkfsykceonyig.jpg,00747941201fa_sunaeutbrtswvsozxyk.jpg,00876960620fa.jpg,sunajwqkfsykceonyig.jpg,00747941201fa.jpg,sunaeutbrtswvsozxyk.jpg,,,<,Face,,,,,1,,,,,,,x
310,5,Memory,6,,,,,,,00662941121fa.jpg,,,,,,,,,,,,,,,
311,5,Memory,6,,,,,,,sunadkazmlajmohnwfl.jpg,,,,,,,,,,,,,,,
312,5,Memory,6,,,,,,,sunaddsaeicthrfbkhe.jpg,,,,,,,,,,,,,,,
313,5,Memory,6,,,,,,,sunahedfrhtcwpneund.jpg,,,,,,,,,,,,,,,
314,5,Memory,6,,,,,,,00543940519fa.jpg,,,,,,,,,,,,,,,
315,5,Memory,6,,,,,,,sunajbwkywmsqkldfml.jpg,,,,,,,,,,,,,,,
316,5,Memory,6,,,,,,,sunadakkdovnuzlycvp.jpg,,,,,,,,,,,,,,,
317,5,Memory,6,,,,,,,sunafbwnojpqeyzssoe.jpg,,,,,,,,,,,,,,,
318,5,Memory,6,,,,,,,00633940928fa.jpg,,,,,,,,,,,,,,,
319,5,Memory,6,,,,,,,00866940307fa.jpg,,,,,,,,,,,,,,,
320,5,Memory,6,,,,,,,00648941031fa.jpg,,,,,,,,,,,,,,,
321,5,Memory,6,,,,,,,00144931230fb.jpg,,,,,,,,,,,,,,,
322,5,Memory,6,,,,,,,00752960620fa.jpg,,,,,,,,,,,,,,,
323,5,Memory,6,,,,,,,sunaavtbadenwnzeutj.jpg,,,,,,,,,,,,,,,
324,5,Memory,6,,,,,,,sunasmmcxdddtmtazwx.jpg,,,,,,,,,,,,,,,
325,5,Memory,6,,,,,,,00184940128fa.jpg,,,,,,,,,,,,,,,
326,5,Memory,6,,,,,,,00185940422fb.jpg,,,,,,,,,,,,,,,
327,5,Memory,6,,,,,,,00264940128fb.jpg,,,,,,,,,,,,,,,
328,5,Memory,6,,,,,,,sunaagcpoejbuzyvddd.jpg,,,,,,,,,,,,,,,
329,5,Memory,6,,,,,,,00960960627fa.jpg,,,,,,,,,,,,,,,
330,5,Memory,6,,,,,,,00089931230fa.jpg,,,,,,,,,,,,,,,
331,5,Memory,6,,,,,,,00822940307fa.jpg,,,,,,,,,,,,,,,
332,5,Memory,6,,,,,,,sunadbhmrgrrpyzglxs.jpg,,,,,,,,,,,,,,,
333,5,Memory,6,,,,,,,00747941201fa.jpg,,,,,,,,,,,,,,,
334,5,Memory,6,,,,,,,sunaawqdbpihmlbwyyn.jpg,,,,,,,,,,,,,,,
335,5,Memory,6,,,,,,,00811960530fa.jpg,,,,,,,,,,,,,,,
336,5,Memory,6,,,,,,,00130931230fa.jpg,,,,,,,,,,,,,,,
337,5,Memory,6,,,,,,,00947960627fa.jpg,,,,,,,,,,,,,,,
338,5,Memory,6,,,,,,,sunadfndyrtqqiasoig.jpg,,,,,,,,,,,,,,,
339,5,Memory,6,,,,,,,sunabjzyxcjnmztdonj.jpg,,,,,,,,,,,,,,,
340,5,Memory,6,,,,,,,sunaeutbrtswvsozxyk.jpg,,,,,,,,,,,,,,,
341,5,Memory,6,,,,,,,00730960620fa.jpg,,,,,,,,,,,,,,,
342,5,Memory,6,,,,,,,sunaekgzpfilgjxpeyq.jpg,,,,,,,,,,,,,,,
343,5,Memory,6,,,,,,,sunawksfbacycuhbrsc.jpg,,,,,,,,,,,,,,,
344,5,Memory,6,,,,,,,sunaathajvxrgptwhoj.jpg,,,,,,,,,,,,,,,
345,5,Memory,6,,,,,,,00630941031fa.jpg,,,,,,,,,,,,,,,
346,5,Memory,6,,,,,,,sunacepzfrmtkiqonpy.jpg,,,,,,,,,,,,,,,
347,5,Memory,6,,,,,,,00635941031fa.jpg,,,,,,,,,,,,,,,
348,5,Memory,6,,,,,,,sunaamvxnvouicstkjb.jpg,,,,,,,,,,,,,,,
349,5,Memory,6,,,,,,,sunahqrxievfeusiqlt.jpg,,,,,,,,,,,,,,,
350,5,Presentation,7,00071940128fa_sunaaexpnawiehinlpy.jpg,00967960627fa_sunbaejotfklekvpxcz.jpg,00071940128fa.jpg,sunaaexpnawiehinlpy.jpg,00967960627fa.jpg,sunbaejotfklekvpxcz.jpg,,,>,Face,,,,,1,,,,,,,o
351,5,Presentation,7,00574940928fa_sunacvbrcejzwmcgnoq.jpg,00288940422fa_sunabppokiyglaxpcha.jpg,00574940928fa.jpg,sunacvbrcejzwmcgnoq.jpg,00288940422fa.jpg,sunabppokiyglaxpcha.jpg,,,<,Place,,,,,1,,,,,,,o
352,5,Presentation,7,00773941201fa_sunafvcflzhlqloapyo.jpg,00479940519fa_sunabxsbfwjccqxxzxq.jpg,00773941201fa.jpg,sunafvcflzhlqloapyo.jpg,00479940519fa.jpg,sunabxsbfwjccqxxzxq.jpg,,,>,Face,,,,,0,,,,,,,o
353,5,Presentation,7,00239940128fa_sunabctlikybqabezjv.jpg,00810941205fa_sunahctntqrunhdxhtb.jpg,00239940128fa.jpg,sunabctlikybqabezjv.jpg,00810941205fa.jpg,sunahctntqrunhdxhtb.jpg,,,<,Face,,,,,1,,,,,,,x
354,5,Presentation,7,00154931230fa_sunaauueuhhvklldjik.jpg,00800941205fb_sunagvjurcwdbixvnyi.jpg,00154931230fa.jpg,sunaauueuhhvklldjik.jpg,00800941205fb.jpg,sunagvjurcwdbixvnyi.jpg,,,>,Place,,,,,1,,,,,,,o
355,5,Presentation,7,00634940928fa_sunadcphrizvfpljiqt.jpg,00221940128fa_sunabcfpwlpolnutyju.jpg,00634940928fa.jpg,sunadcphrizvfpljiqt.jpg,00221940128fa.jpg,sunabcfpwlpolnutyju.jpg,,,<,Face,,,,,1,,,,,,,x
356,5,Presentation,7,00774941201fa_sunafvtpfczkzopbgue.jpg,00263940128fb_sunabjuovqvyfuzvqwt.jpg,00774941201fa.jpg,sunafvtpfczkzopbgue.jpg,00263940128fb.jpg,sunabjuovqvyfuzvqwt.jpg,,,<,Place,,,,,1,,,,,,,x
357,5,Presentation,7,00965960627fa_sunaydywdmvlfddbxbk.jpg,00086931230fa_sunaafynehyrzpsoaml.jpg,00965960627fa.jpg,sunaydywdmvlfddbxbk.jpg,00086931230fa.jpg,sunaafynehyrzpsoaml.jpg,,,>,Place,,,,,1,,,,,,,x
358,5,Presentation,7,00791941205fa_sunagrmyoovzukhxmlo.jpg,00719941201fa_sunadvithllcgmfxsrn.jpg,00791941205fa.jpg,sunagrmyoovzukhxmlo.jpg,00719941201fa.jpg,sunadvithllcgmfxsrn.jpg,,,<,Face,,,,,1,,,,,,,x
359,5,Presentation,7,00098931230fa_sunaajpqmulidejvjsr.jpg,01004960627fa_sunbwtlihsuptkrckid.jpg,00098931230fa.jpg,sunaajpqmulidejvjsr.jpg,01004960627fa.jpg,sunbwtlihsuptkrckid.jpg,,,>,Place,,,,,1,,,,,,,x
360,5,Memory,7,,,,,,,sunaauueuhhvklldjik.jpg,,,,,,,,,,,,,,,
361,5,Memory,7,,,,,,,sunabctlikybqabezjv.jpg,,,,,,,,,,,,,,,
362,5,Memory,7,,,,,,,sunarceibpcyacbmfga.jpg,,,,,,,,,,,,,,,
363,5,Memory,7,,,,,,,sunbgzjryivyczuvkvm.jpg,,,,,,,,,,,,,,,
364,5,Memory,7,,,,,,,01011960627fa.jpg,,,,,,,,,,,,,,,
365,5,Memory,7,,,,,,,sundahdxwmcdluscvot.jpg,,,,,,,,,,,,,,,
366,5,Memory,7,,,,,,,01004960627fa.jpg,,,,,,,,,,,,,,,
367,5,Memory,7,,,,,,,sunabxsbfwjccqxxzxq.jpg,,,,,,,,,,,,,,,
368,5,Memory,7,,,,,,,00239940128fa.jpg,,,,,,,,,,,,,,,
369,5,Memory,7,,,,,,,00194940128fb.jpg,,,,,,,,,,,,,,,
370,5,Memory,7,,,,,,,sunbwtlihsuptkrckid.jpg,,,,,,,,,,,,,,,
371,5,Memory,7,,,,,,,00818940307fa.jpg,,,,,,,,,,,,,,,
372,5,Memory,7,,,,,,,00308940422fb.jpg,,,,,,,,,,,,,,,
373,5,Memory,7,,,,,,,sunabcfpwlpolnutyju.jpg,,,,,,,,,,,,,,,
374,5,Memory,7,,,,,,,sunamczizlzavhzhpay.jpg,,,,,,,,,,,,,,,
375,5,Memory,7,,,,,,,sunaatpeezlljqaxlhj.jpg,,,,,,,,,,,,,,,
376,5,Memory,7,,,,,,,sunabwfvcqqidycwypa.jpg,,,,,,,,,,,,,,,
377,5,Memory,7,,,,,,,sunagrmyoovzukhxmlo.jpg,,,,,,,,,,,,,,,
378,5,Memory,7,,,,,,,00774941201fa.jpg,,,,,,,,,,,,,,,
379,5,Memory,7,,,,,,,00986960627fa.jpg,,,,,,,,,,,,,,,
380,5,Memory,7,,,,,,,00086931230fa.jpg,,,,,,,,,,,,,,,
381,5,Memory,7,,,,,,,00810941205fa.jpg,,,,,,,,,,,,,,,
382,5,Memory,7,,,,,,,00939960627fa.jpg,,,,,,,,,,,,,,,
383,5,Memory,7,,,,,,,sunaafynehyrzpsoaml.jpg,,,,,,,,,,,,,,,
384,5,Memory,7,,,,,,,sunafvtpfczkzopbgue.jpg,,,,,,,,,,,,,,,
385,5,Memory,7,,,,,,,sunaayehfdqcyxggsej.jpg,,,,,,,,,,,,,,,
386,5,Memory,7,,,,,,,00791941205fa.jpg,,,,,,,,,,,,,,,
387,5,Memory,7,,,,,,,00154931230fa.jpg,,,,,,,,,,,,,,,
388,5,Memory,7,,,,,,,00479940519fa.jpg,,,,,,,,,,,,,,,
389,5,Memory,7,,,,,,,sunahctntqrunhdxhtb.jpg,,,,,,,,,,,,,,,
390,5,Memory,7,,,,,,,sunahpblecxtmuzkmxb.jpg,,,,,,,,,,,,,,,
391,5,Memory,7,,,,,,,sunadoxcchtmsxewsau.jpg,,,,,,,,,,,,,,,
392,5,Memory,7,,,,,,,sunafvcflzhlqloapyo.jpg,,,,,,,,,,,,,,,
393,5,Memory,7,,,,,,,00146960620fb.jpg,,,,,,,,,,,,,,,
394,5,Memory,7,,,,,,,00895960530fa.jpg,,,,,,,,,,,,,,,
395,5,Memory,7,,,,,,,00062931230fb.jpg,,,,,,,,,,,,,,,
396,5,Memory,7,,,,,,,00773941201fa.jpg,,,,,,,,,,,,,,,
397,5,Memory,7,,,,,,,00221940128fa.jpg,,,,,,,,,,,,,,,
398,5,Memory,7,,,,,,,sunaaelotvjgibjtjhs.jpg,,,,,,,,,,,,,,,
399,5,Memory,7,,,,,,,00675941121fa.jpg,,,,,,,,,,,,,,,
