,Subject,Trial Type,Run,Cued Composite,Uncued Composite,Cued Face,Cued Place,Uncued Face,Uncued Place,Memory Image,Category,Cued Side,Cued Category,Attention Reaction Time (s),Familiarity Reaction Time (s),Familiarity Rating,Attention Level,Cue Validity,Post Invalid Cue,Pre Invalid Cue,Attention Button,Rating History,Stimulus Onset,Stimulus End,Attention Probe
0,21,Presentation,0,00211940128fa_sunabasphceswhwwqvv.jpg,00675941121fa_sunadoxcchtmsxewsau.jpg,00211940128fa.jpg,sunabasphceswhwwqvv.jpg,00675941121fa.jpg,sunadoxcchtmsxewsau.jpg,,,<,Place,,,,,1,,,,,,,o
1,21,Presentation,0,00778941205fa_sunagcthdfirrcawoic.jpg,00280940422fb_sunabohxbskznglnrhv.jpg,00778941205fa.jpg,sunagcthdfirrcawoic.jpg,00280940422fb.jpg,sunabohxbskznglnrhv.jpg,,,<,Place,,,,,1,,,,,,,o
2,21,Presentation,0,00119931230fb_sunaakvmbftkrgqhjun.jpg,00263940128fb_sunabjuovqvyfuzvqwt.jpg,00119931230fb.jpg,sunaakvmbftkrgqhjun.jpg,00263940128fb.jpg,sunabjuovqvyfuzvqwt.jpg,,,<,Face,,,,,1,,,,,,,o
3,21,Presentation,0,00973960627fa_sunbbgtoeuzierkkajt.jpg,00221940128fa_sunabcfpwlpolnutyju.jpg,00973960627fa.jpg,sunbbgtoeuzierkkajt.jpg,00221940128fa.jpg,sunabcfpwlpolnutyju.jpg,,,>,Place,,,,,1,,,,,,,x
4,21,Presentation,0,00777941205fa_sunagcinxkccdtrjmlv.jpg,00804960530fa_sunagwswhkvnsmuszlz.jpg,00777941205fa.jpg,sunagcinxkccdtrjmlv.jpg,00804960530fa.jpg,sunagwswhkvnsmuszlz.jpg,,,>,Face,,,,,1,,,,,,,x
5,21,Presentation,0,01009960627fa_sunbxzweleltykebgan.jpg,00296940422fa_sunabrwnslxalcohfre.jpg,01009960627fa.jpg,sunbxzweleltykebgan.jpg,00296940422fa.jpg,sunabrwnslxalcohfre.jpg,,,<,Face,,,,,1,,,,,,,o
6,21,Presentation,0,00796941205fa_sunaguchqqnrtodtezq.jpg,00746941201fa_sunaetydippjxikifsb.jpg,00796941205fa.jpg,sunaguchqqnrtodtezq.jpg,00746941201fa.jpg,sunaetydippjxikifsb.jpg,,,>,Place,,,,,1,,,,,,,o
7,21,Presentation,0,00568940928fa_sunacsdhbbsybcyxnel.jpg,00915960620fa_sunapileznnbbmrwoei.jpg,00568940928fa.jpg,sunacsdhbbsybcyxnel.jpg,00915960620fa.jpg,sunapileznnbbmrwoei.jpg,,,>,Face,,,,,1,,,,,,,x
8,21,Presentation,0,00876960620fa_sunajwqkfsykceonyig.jpg,00835940307fa_sunaijsqpvodplbwxkf.jpg,00876960620fa.jpg,sunajwqkfsykceonyig.jpg,00835940307fa.jpg,sunaijsqpvodplbwxkf.jpg,,,<,Face,,,,,1,,,,,,,o
9,21,Presentation,0,00719941201fa_sunadvithllcgmfxsrn.jpg,00127931230fa_sunaampvucecsfbdafn.jpg,00719941201fa.jpg,sunadvithllcgmfxsrn.jpg,00127931230fa.jpg,sunaampvucecsfbdafn.jpg,,,>,Place,,,,,1,,,,,,,o
10,21,Memory,0,,,,,,,sunafvwfsmqkjrutjta.jpg,,,,,,,,,,,,,,,
11,21,Memory,0,,,,,,,00782941205fa.jpg,,,,,,,,,,,,,,,
12,21,Memory,0,,,,,,,sunajwqkfsykceonyig.jpg,,,,,,,,,,,,,,,
13,21,Memory,0,,,,,,,00795941205fa.jpg,,,,,,,,,,,,,,,
14,21,Memory,0,,,,,,,00804960530fa.jpg,,,,,,,,,,,,,,,
15,21,Memory,0,,,,,,,00876960620fa.jpg,,,,,,,,,,,,,,,
16,21,Memory,0,,,,,,,00778941205fa.jpg,,,,,,,,,,,,,,,
17,21,Memory,0,,,,,,,sunadpnqovzckyikrjo.jpg,,,,,,,,,,,,,,,
18,21,Memory,0,,,,,,,sunagcthdfirrcawoic.jpg,,,,,,,,,,,,,,,
19,21,Memory,0,,,,,,,sunaakvmbftkrgqhjun.jpg,,,,,,,,,,,,,,,
20,21,Memory,0,,,,,,,00725941201fa.jpg,,,,,,,,,,,,,,,
21,21,Memory,0,,,,,,,00914960620fa.jpg,,,,,,,,,,,,,,,
22,21,Memory,0,,,,,,,sunaampvucecsfbdafn.jpg,,,,,,,,,,,,,,,
23,21,Memory,0,,,,,,,00481940519fa.jpg,,,,,,,,,,,,,,,
24,21,Memory,0,,,,,,,sunaetydippjxikifsb.jpg,,,,,,,,,,,,,,,
25,21,Memory,0,,,,,,,00647941031fa.jpg,,,,,,,,,,,,,,,
26,21,Memory,0,,,,,,,sunagwswhkvnsmuszlz.jpg,,,,,,,,,,,,,,,
27,21,Memory,0,,,,,,,00777941205fa.jpg,,,,,,,,,,,,,,,
28,21,Memory,0,,,,,,,sunagfvluwixdsozaql.jpg,,,,,,,,,,,,,,,
29,21,Memory,0,,,,,,,sunaozisvwfbmlkfhzv.jpg,,,,,,,,,,,,,,,
30,21,Memory,0,,,,,,,sunadvithllcgmfxsrn.jpg,,,,,,,,,,,,,,,
31,21,Memory,0,,,,,,,sunaooaqzputrowwbsw.jpg,,,,,,,,,,,,,,,
32,21,Memory,0,,,,,,,sunabtlfmiwtljmoues.jpg,,,,,,,,,,,,,,,
33,21,Memory,0,,,,,,,sunapileznnbbmrwoei.jpg,,,,,,,,,,,,,,,
34,21,Memory,0,,,,,,,00127931230fa.jpg,,,,,,,,,,,,,,,
35,21,Memory,0,,,,,,,00263940128fb.jpg,,,,,,,,,,,,,,,
36,21,Memory,0,,,,,,,00775941205fa.jpg,,,,,,,,,,,,,,,
37,21,Memory,0,,,,,,,00676941121fa.jpg,,,,,,,,,,,,,,,
38,21,Memory,0,,,,,,,sunabxsuqbleluwczoy.jpg,,,,,,,,,,,,,,,
39,21,Memory,0,,,,,,,00911960530fa.jpg,,,,,,,,,,,,,,,
40,21,Memory,0,,,,,,,00746941201fa.jpg,,,,,,,,,,,,,,,
41,21,Memory,0,,,,,,,00719941201fa.jpg,,,,,,,,,,,,,,,
42,21,Memory,0,,,,,,,sunagtumacdlmciqamz.jpg,,,,,,,,,,,,,,,
43,21,Memory,0,,,,,,,00302940422fa.jpg,,,,,,,,,,,,,,,
44,21,Memory,0,,,,,,,00119931230fb.jpg,,,,,,,,,,,,,,,
45,21,Memory,0,,,,,,,sunadflbrkckmepztql.jpg,,,,,,,,,,,,,,,
46,21,Memory,0,,,,,,,sunabjuovqvyfuzvqwt.jpg,,,,,,,,,,,,,,,
47,21,Memory,0,,,,,,,00915960620fa.jpg,,,,,,,,,,,,,,,
48,21,Memory,0,,,,,,,sunaefgzwiramypjvtd.jpg,,,,,,,,,,,,,,,
49,21,Memory,0,,,,,,,sunagcinxkccdtrjmlv.jpg,,,,,,,,,,,,,,,
50,21,Presentation,1,00562941031fa_sunacjnahdmqfnjfwqx.jpg,00122931230fa_sunaakxjfbrrequcjmx.jpg,00562941031fa.jpg,sunacjnahdmqfnjfwqx.jpg,00122931230fa.jpg,sunaakxjfbrrequcjmx.jpg,,,>,Place,,,,,1,,,,,,,x
51,21,Presentation,1,00149931230fa_sunaauglwmctnkxyird.jpg,00638941031fa_sunadfktsqjthoglcsm.jpg,00149931230fa.jpg,sunaauglwmctnkxyird.jpg,00638941031fa.jpg,sunadfktsqjthoglcsm.jpg,,,<,Face,,,,,1,,,,,,,o
52,21,Presentation,1,00146960620fb_sunaatpeezlljqaxlhj.jpg,00933960627fa_sunapwjkcxdaeqehfql.jpg,00146960620fb.jpg,sunaatpeezlljqaxlhj.jpg,00933960627fa.jpg,sunapwjkcxdaeqehfql.jpg,,,>,Face,,,,,1,,,,,,,o
53,21,Presentation,1,00952960627fa_sunathzzbcwjykldrem.jpg,00894960620fa_sunalqmfgeadpqsyzpd.jpg,00952960627fa.jpg,sunathzzbcwjykldrem.jpg,00894960620fa.jpg,sunalqmfgeadpqsyzpd.jpg,,,<,Face,,,,,1,,,,,,,x
54,21,Presentation,1,00184940128fa_sunaavtbadenwnzeutj.jpg,00125931230fa_sunaalltyvjhbzhkmvg.jpg,00184940128fa.jpg,sunaavtbadenwnzeutj.jpg,00125931230fa.jpg,sunaalltyvjhbzhkmvg.jpg,,,<,Face,,,,,1,,,,,,,x
55,21,Presentation,1,00819940307fa_sunahqldjibofgsfdgb.jpg,00762941201fa_sunafgzgbisbopcyslr.jpg,00819940307fa.jpg,sunahqldjibofgsfdgb.jpg,00762941201fa.jpg,sunafgzgbisbopcyslr.jpg,,,>,Face,,,,,1,,,,,,,o
56,21,Presentation,1,00903960620fa_sunanainkqdvktzoxyl.jpg,00681941121fa_sunadqmjrhfjyuzyvdd.jpg,00903960620fa.jpg,sunanainkqdvktzoxyl.jpg,00681941121fa.jpg,sunadqmjrhfjyuzyvdd.jpg,,,>,Place,,,,,0,,,,,,,x
57,21,Presentation,1,00242940128fa_sunabcuurugvxwparpk.jpg,01004960627fa_sunbwtlihsuptkrckid.jpg,00242940128fa.jpg,sunabcuurugvxwparpk.jpg,01004960627fa.jpg,sunbwtlihsuptkrckid.jpg,,,<,Place,,,,,1,,,,,,,x
58,21,Presentation,1,00988960627fa_sunbmaiocftdtvnzgap.jpg,00787960620fa_sunagoufulkpsxrmklt.jpg,00988960627fa.jpg,sunbmaiocftdtvnzgap.jpg,00787960620fa.jpg,sunagoufulkpsxrmklt.jpg,,,<,Place,,,,,1,,,,,,,x
59,21,Presentation,1,00970960627fa_sunbasypfgzjtomktmu.jpg,00126931230fb_sunaamdjwemxpmmtypi.jpg,00970960627fa.jpg,sunbasypfgzjtomktmu.jpg,00126931230fb.jpg,sunaamdjwemxpmmtypi.jpg,,,>,Place,,,,,1,,,,,,,x
60,21,Memory,1,,,,,,,00869940307fa.jpg,,,,,,,,,,,,,,,
61,21,Memory,1,,,,,,,sunacerqowiaeoqkmsq.jpg,,,,,,,,,,,,,,,
62,21,Memory,1,,,,,,,00548940519fa.jpg,,,,,,,,,,,,,,,
63,21,Memory,1,,,,,,,00681941121fa.jpg,,,,,,,,,,,,,,,
64,21,Memory,1,,,,,,,sunaiwfobocrruqznsv.jpg,,,,,,,,,,,,,,,
65,21,Memory,1,,,,,,,sunbmaiocftdtvnzgap.jpg,,,,,,,,,,,,,,,
66,21,Memory,1,,,,,,,00149931230fa.jpg,,,,,,,,,,,,,,,
67,21,Memory,1,,,,,,,00993960627fa.jpg,,,,,,,,,,,,,,,
68,21,Memory,1,,,,,,,00878960530fa.jpg,,,,,,,,,,,,,,,
69,21,Memory,1,,,,,,,sunajoveqhiprwqgoco.jpg,,,,,,,,,,,,,,,
70,21,Memory,1,,,,,,,00589940928fa.jpg,,,,,,,,,,,,,,,
71,21,Memory,1,,,,,,,sunahiphsekjihkafsl.jpg,,,,,,,,,,,,,,,
72,21,Memory,1,,,,,,,sunagoufulkpsxrmklt.jpg,,,,,,,,,,,,,,,
73,21,Memory,1,,,,,,,00952960627fa.jpg,,,,,,,,,,,,,,,
74,21,Memory,1,,,,,,,sunadqmjrhfjyuzyvdd.jpg,,,,,,,,,,,,,,,
75,21,Memory,1,,,,,,,sunabllobxadqcyttej.jpg,,,,,,,,,,,,,,,
76,21,Memory,1,,,,,,,00864940307fa.jpg,,,,,,,,,,,,,,,
77,21,Memory,1,,,,,,,00126931230fb.jpg,,,,,,,,,,,,,,,
78,21,Memory,1,,,,,,,sunacwggadqsfpovdjv.jpg,,,,,,,,,,,,,,,
79,21,Memory,1,,,,,,,00763941205fa.jpg,,,,,,,,,,,,,,,
80,21,Memory,1,,,,,,,sunakgbnzxmfohgehnu.jpg,,,,,,,,,,,,,,,
81,21,Memory,1,,,,,,,00184940128fa.jpg,,,,,,,,,,,,,,,
82,21,Memory,1,,,,,,,00125931230fa.jpg,,,,,,,,,,,,,,,
83,21,Memory,1,,,,,,,sunafhmnhsdurlvddpw.jpg,,,,,,,,,,,,,,,
84,21,Memory,1,,,,,,,00988960627fa.jpg,,,,,,,,,,,,,,,
85,21,Memory,1,,,,,,,00857940307fa.jpg,,,,,,,,,,,,,,,
86,21,Memory,1,,,,,,,00787960620fa.jpg,,,,,,,,,,,,,,,
87,21,Memory,1,,,,,,,sunaavtbadenwnzeutj.jpg,,,,,,,,,,,,,,,
88,21,Memory,1,,,,,,,sunahqldjibofgsfdgb.jpg,,,,,,,,,,,,,,,
89,21,Memory,1,,,,,,,sunajawzbrlrwafowen.jpg,,,,,,,,,,,,,,,
90,21,Memory,1,,,,,,,sunaauglwmctnkxyird.jpg,,,,,,,,,,,,,,,
91,21,Memory,1,,,,,,,sunathzzbcwjykldrem.jpg,,,,,,,,,,,,,,,
92,21,Memory,1,,,,,,,sunafgzgbisbopcyslr.jpg,,,,,,,,,,,,,,,
93,21,Memory,1,,,,,,,00270940422fb.jpg,,,,,,,,,,,,,,,
94,21,Memory,1,,,,,,,sunbprywzqxjcezkbch.jpg,,,,,,,,,,,,,,,
95,21,Memory,1,,,,,,,00819940307fa.jpg,,,,,,,,,,,,,,,
96,21,Memory,1,,,,,,,sunaalltyvjhbzhkmvg.jpg,,,,,,,,,,,,,,,
97,21,Memory,1,,,,,,,00815941205fa.jpg,,,,,,,,,,,,,,,
98,21,Memory,1,,,,,,,sunaamdjwemxpmmtypi.jpg,,,,,,,,,,,,,,,
99,21,Memory,1,,,,,,,00762941201fa.jpg,,,,,,,,,,,,,,,
100,21,Presentation,2,00116931230fa_sunaakqepfoeqomfgxf.jpg,00803941205fa_sunagvxkjokqimstxpe.jpg,00116931230fa.jpg,sunaakqepfoeqomfgxf.jpg,00803941205fa.jpg,sunagvxkjokqimstxpe.jpg,,,>,Place,,,,,1,,,,,,,x
101,21,Presentation,2,00959960627fa_sunavxokzybtomhbmvm.jpg,00564940928fa_sunacmpqqfbsvlzinzl.jpg,00959960627fa.jpg,sunavxokzybtomhbmvm.jpg,00564940928fa.jpg,sunacmpqqfbsvlzinzl.jpg,,,>,Place,,,,,1,,,,,,,x
102,21,Presentation,2,00529940519fa_sunacbeefkxpymwevpk.jpg,00937960627fa_sunaqsolmfydodnakub.jpg,00529940519fa.jpg,sunacbeefkxpymwevpk.jpg,00937960627fa.jpg,sunaqsolmfydodnakub.jpg,,,<,Place,,,,,1,,,,,,,x
103,21,Presentation,2,00967960627fa_sunbaejotfklekvpxcz.jpg,01010960627fa_suncnkvbhypnivcohyx.jpg,00967960627fa.jpg,sunbaejotfklekvpxcz.jpg,01010960627fa.jpg,suncnkvbhypnivcohyx.jpg,,,>,Place,,,,,1,,,,,,,x
104,21,Presentation,2,00929960627fa_sunaprnrbmgkomdbchr.jpg,00096931230fa_sunaaiqiqcggrskoqgy.jpg,00929960627fa.jpg,sunaprnrbmgkomdbchr.jpg,00096931230fa.jpg,sunaaiqiqcggrskoqgy.jpg,,,<,Place,,,,,1,,,,,,,x
105,21,Presentation,2,00905960530fa_sunanmoqeyprjjjfxjt.jpg,00138931230fa_sunaapfaivxqoynnwwp.jpg,00905960530fa.jpg,sunanmoqeyprjjjfxjt.jpg,00138931230fa.jpg,sunaapfaivxqoynnwwp.jpg,,,<,Face,,,,,1,,,,,,,o
106,21,Presentation,2,00142931230fb_sunaapxkpvrhpjplsok.jpg,00895960530fa_sunamczizlzavhzhpay.jpg,00142931230fb.jpg,sunaapxkpvrhpjplsok.jpg,00895960530fa.jpg,sunamczizlzavhzhpay.jpg,,,>,Face,,,,,1,,,,,,,x
107,21,Presentation,2,00197940128fa_sunaaylzyqlqrsmfwif.jpg,00108960530fa_sunaajtnvzzpsjdzres.jpg,00197940128fa.jpg,sunaaylzyqlqrsmfwif.jpg,00108960530fa.jpg,sunaajtnvzzpsjdzres.jpg,,,>,Face,,,,,1,,,,,,,o
108,21,Presentation,2,00968960627fa_sunbagfpovqwbuexqdn.jpg,00559940519fa_sunacjkmnpawfzbyvae.jpg,00968960627fa.jpg,sunbagfpovqwbuexqdn.jpg,00559940519fa.jpg,sunacjkmnpawfzbyvae.jpg,,,<,Face,,,,,1,,,,,,,x
109,21,Presentation,2,00505960627fa_sunabzuqsrgcsonqlkz.jpg,00123931230fb_sunaalcrrdbjgdztbiz.jpg,00505960627fa.jpg,sunabzuqsrgcsonqlkz.jpg,00123931230fb.jpg,sunaalcrrdbjgdztbiz.jpg,,,<,Face,,,,,1,,,,,,,x
110,21,Memory,2,,,,,,,00097931230fa.jpg,,,,,,,,,,,,,,,
111,21,Memory,2,,,,,,,00271940422fa.jpg,,,,,,,,,,,,,,,
112,21,Memory,2,,,,,,,sunaathajvxrgptwhoj.jpg,,,,,,,,,,,,,,,
113,21,Memory,2,,,,,,,01010960627fa.jpg,,,,,,,,,,,,,,,
114,21,Memory,2,,,,,,,00559940519fa.jpg,,,,,,,,,,,,,,,
115,21,Memory,2,,,,,,,sunaqsolmfydodnakub.jpg,,,,,,,,,,,,,,,
116,21,Memory,2,,,,,,,00564941031fa.jpg,,,,,,,,,,,,,,,
117,21,Memory,2,,,,,,,00766960620fa.jpg,,,,,,,,,,,,,,,
118,21,Memory,2,,,,,,,00905960530fa.jpg,,,,,,,,,,,,,,,
119,21,Memory,2,,,,,,,sunacsaovnjezqwbykf.jpg,,,,,,,,,,,,,,,
120,21,Memory,2,,,,,,,00090931230fa.jpg,,,,,,,,,,,,,,,
121,21,Memory,2,,,,,,,sunapqwnqzxlsfvgsjm.jpg,,,,,,,,,,,,,,,
122,21,Memory,2,,,,,,,00144931230fb.jpg,,,,,,,,,,,,,,,
123,21,Memory,2,,,,,,,sunbondbduabvijnmch.jpg,,,,,,,,,,,,,,,
124,21,Memory,2,,,,,,,00197940128fa.jpg,,,,,,,,,,,,,,,
125,21,Memory,2,,,,,,,sunaakqepfoeqomfgxf.jpg,,,,,,,,,,,,,,,
126,21,Memory,2,,,,,,,sunaalcrrdbjgdztbiz.jpg,,,,,,,,,,,,,,,
127,21,Memory,2,,,,,,,sunaajayojuslbbnneg.jpg,,,,,,,,,,,,,,,
128,21,Memory,2,,,,,,,sunaaeowapdkwzqpgqr.jpg,,,,,,,,,,,,,,,
129,21,Memory,2,,,,,,,00929960627fa.jpg,,,,,,,,,,,,,,,
130,21,Memory,2,,,,,,,suncnkvbhypnivcohyx.jpg,,,,,,,,,,,,,,,
131,21,Memory,2,,,,,,,00989960627fa.jpg,,,,,,,,,,,,,,,
132,21,Memory,2,,,,,,,00116931230fa.jpg,,,,,,,,,,,,,,,
133,21,Memory,2,,,,,,,sunacjkmnpawfzbyvae.jpg,,,,,,,,,,,,,,,
134,21,Memory,2,,,,,,,sunafijbgncijwykrnl.jpg,,,,,,,,,,,,,,,
135,21,Memory,2,,,,,,,sunaawsdjisukbbginm.jpg,,,,,,,,,,,,,,,
136,21,Memory,2,,,,,,,sunamczizlzavhzhpay.jpg,,,,,,,,,,,,,,,
137,21,Memory,2,,,,,,,00069931230fb.jpg,,,,,,,,,,,,,,,
138,21,Memory,2,,,,,,,00925960627fa.jpg,,,,,,,,,,,,,,,
139,21,Memory,2,,,,,,,sunanmoqeyprjjjfxjt.jpg,,,,,,,,,,,,,,,
140,21,Memory,2,,,,,,,sunaaylzyqlqrsmfwif.jpg,,,,,,,,,,,,,,,
141,21,Memory,2,,,,,,,00937960627fa.jpg,,,,,,,,,,,,,,,
142,21,Memory,2,,,,,,,00191940128fb.jpg,,,,,,,,,,,,,,,
143,21,Memory,2,,,,,,,00123931230fb.jpg,,,,,,,,,,,,,,,
144,21,Memory,2,,,,,,,sunabmbnddafmywtjjj.jpg,,,,,,,,,,,,,,,
145,21,Memory,2,,,,,,,00505960627fa.jpg,,,,,,,,,,,,,,,
146,21,Memory,2,,,,,,,00895960530fa.jpg,,,,,,,,,,,,,,,
147,21,Memory,2,,,,,,,sunaprnrbmgkomdbchr.jpg,,,,,,,,,,,,,,,
148,21,Memory,2,,,,,,,sunaahedjlmtqekgyvj.jpg,,,,,,,,,,,,,,,
149,21,Memory,2,,,,,,,sunabzuqsrgcsonqlkz.jpg,,,,,,,,,,,,,,,
150,21,Presentation,3,00966960627fa_sunaygrtwrwfezqjizr.jpg,00789960620fa_sunagpancjmxqfazssf.jpg,00966960627fa.jpg,sunaygrtwrwfezqjizr.jpg,00789960620fa.jpg,sunagpancjmxqfazssf.jpg,,,<,Place,,,,,1,,,,,,,o
151,21,Presentation,3,00634940928fa_sunadcphrizvfpljiqt.jpg,00076931230fa_sunaafewhewbxmjiurz.jpg,00634940928fa.jpg,sunadcphrizvfpljiqt.jpg,00076931230fa.jpg,sunaafewhewbxmjiurz.jpg,,,<,Face,,,,,1,,,,,,,o
152,21,Presentation,3,00060931230fa_sunaaehaikpckyjsety.jpg,00065931230fb_sunaaemixhfquhnxxlm.jpg,00060931230fa.jpg,sunaaehaikpckyjsety.jpg,00065931230fb.jpg,sunaaemixhfquhnxxlm.jpg,,,<,Place,,,,,1,,,,,,,x
153,21,Presentation,3,00598940928fa_sunacxeheuiigkcgquf.jpg,00260940128fa_sunabgfhvifeijihhjw.jpg,00598940928fa.jpg,sunacxeheuiigkcgquf.jpg,00260940128fa.jpg,sunabgfhvifeijihhjw.jpg,,,>,Face,,,,,1,,,,,,,o
154,21,Presentation,3,00140931230fb_sunaapllqyqlykszopd.jpg,00926960627Fa_sunapqwoeotxshkukbh.jpg,00140931230fb.jpg,sunaapllqyqlykszopd.jpg,00926960627Fa.jpg,sunapqwoeotxshkukbh.jpg,,,>,Place,,,,,0,,,,,,,o
155,21,Presentation,3,00942960627fa_sunarfdklgdnjgeqfjg.jpg,00267940128fb_sunablfqiwfqomjarht.jpg,00942960627fa.jpg,sunarfdklgdnjgeqfjg.jpg,00267940128fb.jpg,sunablfqiwfqomjarht.jpg,,,<,Place,,,,,1,,,,,,,o
156,21,Presentation,3,00063931230fa_sunaaelyvurpntclgau.jpg,00720960620fa_sunaecpkgfewqqreqwe.jpg,00063931230fa.jpg,sunaaelyvurpntclgau.jpg,00720960620fa.jpg,sunaecpkgfewqqreqwe.jpg,,,>,Place,,,,,1,,,,,,,o
157,21,Presentation,3,00909960530_sunaobtizabegtwfwul.jpg,00847940307fa_sunaivdjruhkrfywfed.jpg,00909960530.jpg,sunaobtizabegtwfwul.jpg,00847940307fa.jpg,sunaivdjruhkrfywfed.jpg,,,<,Face,,,,,1,,,,,,,o
158,21,Presentation,3,00786941205fa_sunagmhildamktmqjss.jpg,00082931230fa_sunaafvitpexrpvumsa.jpg,00786941205fa.jpg,sunagmhildamktmqjss.jpg,00082931230fa.jpg,sunaafvitpexrpvumsa.jpg,,,>,Face,,,,,0,,,,,,,x
159,21,Presentation,3,00314940422fa_sunabwmcbaxwioksdgw.jpg,00919960620fa_sunapmfmzadmosuogaz.jpg,00314940422fa.jpg,sunabwmcbaxwioksdgw.jpg,00919960620fa.jpg,sunapmfmzadmosuogaz.jpg,,,>,Face,,,,,1,,,,,,,x
160,21,Memory,3,,,,,,,00811960530fa.jpg,,,,,,,,,,,,,,,
161,21,Memory,3,,,,,,,00063931230fa.jpg,,,,,,,,,,,,,,,
162,21,Memory,3,,,,,,,sunaobtizabegtwfwul.jpg,,,,,,,,,,,,,,,
163,21,Memory,3,,,,,,,sunaooffzffbhcpirmm.jpg,,,,,,,,,,,,,,,
164,21,Memory,3,,,,,,,sunablfqiwfqomjarht.jpg,,,,,,,,,,,,,,,
165,21,Memory,3,,,,,,,00913960530fa.jpg,,,,,,,,,,,,,,,
166,21,Memory,3,,,,,,,00124931230fa.jpg,,,,,,,,,,,,,,,
167,21,Memory,3,,,,,,,sunabeyhmxodahoieyk.jpg,,,,,,,,,,,,,,,
168,21,Memory,3,,,,,,,sunacfdkbsrughwqwtt.jpg,,,,,,,,,,,,,,,
169,21,Memory,3,,,,,,,00574940928fa.jpg,,,,,,,,,,,,,,,
170,21,Memory,3,,,,,,,00786941205fa.jpg,,,,,,,,,,,,,,,
171,21,Memory,3,,,,,,,sunakmnfgklupjijsgf.jpg,,,,,,,,,,,,,,,
172,21,Memory,3,,,,,,,00267940128fb.jpg,,,,,,,,,,,,,,,
173,21,Memory,3,,,,,,,sunahedfrhtcwpneund.jpg,,,,,,,,,,,,,,,
174,21,Memory,3,,,,,,,00076931230fa.jpg,,,,,,,,,,,,,,,
175,21,Memory,3,,,,,,,sunaaelyvurpntclgau.jpg,,,,,,,,,,,,,,,
176,21,Memory,3,,,,,,,00635941031fa.jpg,,,,,,,,,,,,,,,
177,21,Memory,3,,,,,,,sunacvbrcejzwmcgnoq.jpg,,,,,,,,,,,,,,,
178,21,Memory,3,,,,,,,sunagpancjmxqfazssf.jpg,,,,,,,,,,,,,,,
179,21,Memory,3,,,,,,,sunarfdklgdnjgeqfjg.jpg,,,,,,,,,,,,,,,
180,21,Memory,3,,,,,,,sunagmhildamktmqjss.jpg,,,,,,,,,,,,,,,
181,21,Memory,3,,,,,,,sunaecpkgfewqqreqwe.jpg,,,,,,,,,,,,,,,
182,21,Memory,3,,,,,,,00245940128fa.jpg,,,,,,,,,,,,,,,
183,21,Memory,3,,,,,,,00598940928fa.jpg,,,,,,,,,,,,,,,
184,21,Memory,3,,,,,,,00880960530fa.jpg,,,,,,,,,,,,,,,
185,21,Memory,3,,,,,,,00942960627fa.jpg,,,,,,,,,,,,,,,
186,21,Memory,3,,,,,,,sunaakjaacuzulqckgl.jpg,,,,,,,,,,,,,,,
187,21,Memory,3,,,,,,,00112931230fa.jpg,,,,,,,,,,,,,,,
188,21,Memory,3,,,,,,,sunaddsaeicthrfbkhe.jpg,,,,,,,,,,,,,,,
189,21,Memory,3,,,,,,,sunaalhlvzmjmitybdn.jpg,,,,,,,,,,,,,,,
190,21,Memory,3,,,,,,,00793941205fa.jpg,,,,,,,,,,,,,,,
191,21,Memory,3,,,,,,,00260940128fa.jpg,,,,,,,,,,,,,,,
192,21,Memory,3,,,,,,,sunabgfhvifeijihhjw.jpg,,,,,,,,,,,,,,,
193,21,Memory,3,,,,,,,sunacxeheuiigkcgquf.jpg,,,,,,,,,,,,,,,
194,21,Memory,3,,,,,,,00720960620fa.jpg,,,,,,,,,,,,,,,
195,21,Memory,3,,,,,,,00909960530.jpg,,,,,,,,,,,,,,,
196,21,Memory,3,,,,,,,00789960620fa.jpg,,,,,,,,,,,,,,,
197,21,Memory,3,,,,,,,00554940519fa.jpg,,,,,,,,,,,,,,,
198,21,Memory,3,,,,,,,sunagtjwilqjvxohypn.jpg,,,,,,,,,,,,,,,
199,21,Memory,3,,,,,,,sunaafewhewbxmjiurz.jpg,,,,,,,,,,,,,,,
200,21,Presentation,4,00944960627fa_sunasbbntuiheekqyaq.jpg,00828940307fa_sunahuynahneraqftyz.jpg,00944960627fa.jpg,sunasbbntuiheekqyaq.jpg,00828940307fa.jpg,sunahuynahneraqftyz.jpg,,,>,Place,,,,,1,,,,,,,x
201,21,Presentation,4,00662941121fa_sunadkazmlajmohnwfl.jpg,00750941201fa_sunaeuzwggvibufclwf.jpg,00662941121fa.jpg,sunadkazmlajmohnwfl.jpg,00750941201fa.jpg,sunaeuzwggvibufclwf.jpg,,,<,Face,,,,,1,,,,,,,x
202,21,Presentation,4,00162931230fb_sunaavjinpnkappuonm.jpg,00308940422fb_sunabwfvcqqidycwypa.jpg,00162931230fb.jpg,sunaavjinpnkappuonm.jpg,00308940422fb.jpg,sunabwfvcqqidycwypa.jpg,,,<,Face,,,,,1,,,,,,,o
203,21,Presentation,4,00963960627fa_sunayaepykrqvenaqqy.jpg,00194940128fb_sunaayehfdqcyxggsej.jpg,00963960627fa.jpg,sunayaepykrqvenaqqy.jpg,00194940128fb.jpg,sunaayehfdqcyxggsej.jpg,,,>,Place,,,,,1,,,,,,,o
204,21,Presentation,4,00073931230fa_sunaafbmtoniaasysgu.jpg,00761960627fa_sunafgdqbclkwfocdhg.jpg,00073931230fa.jpg,sunaafbmtoniaasysgu.jpg,00761960627fa.jpg,sunafgdqbclkwfocdhg.jpg,,,<,Place,,,,,1,,,,,,,x
205,21,Presentation,4,00636941031fa_sunaddtdkycxbqlpfqa.jpg,00841940307fa_sunaisiwfgppimtnmxl.jpg,00636941031fa.jpg,sunaddtdkycxbqlpfqa.jpg,00841940307fa.jpg,sunaisiwfgppimtnmxl.jpg,,,<,Place,,,,,1,,,,,,,x
206,21,Presentation,4,00780960530fa_sunagetqixeypsysbpn.jpg,00081941031fa_sunaaftlyfudyzuhqzf.jpg,00780960530fa.jpg,sunagetqixeypsysbpn.jpg,00081941031fa.jpg,sunaaftlyfudyzuhqzf.jpg,,,>,Face,,,,,1,,,,,,,x
207,21,Presentation,4,00080931230fb_sunaafjszryxyavjzln.jpg,00648941031fa_sunadfndyrtqqiasoig.jpg,00080931230fb.jpg,sunaafjszryxyavjzln.jpg,00648941031fa.jpg,sunadfndyrtqqiasoig.jpg,,,>,Face,,,,,0,,,,,,,o
208,21,Presentation,4,00965960627fa_sunaydywdmvlfddbxbk.jpg,00799941205fa_sunagutjvdvnhxejerz.jpg,00965960627fa.jpg,sunaydywdmvlfddbxbk.jpg,00799941205fa.jpg,sunagutjvdvnhxejerz.jpg,,,<,Face,,,,,1,,,,,,,x
209,21,Presentation,4,00870940307fa_sunajrgtewnualfcerj.jpg,00071941031fa_sunaaexqbtdswxrqjvz.jpg,00870940307fa.jpg,sunajrgtewnualfcerj.jpg,00071941031fa.jpg,sunaaexqbtdswxrqjvz.jpg,,,>,Place,,,,,1,,,,,,,o
210,21,Memory,4,,,,,,,00719960620fa.jpg,,,,,,,,,,,,,,,
211,21,Memory,4,,,,,,,00750941201fa.jpg,,,,,,,,,,,,,,,
212,21,Memory,4,,,,,,,sunaajpqmulidejvjsr.jpg,,,,,,,,,,,,,,,
213,21,Memory,4,,,,,,,00788941205fa.jpg,,,,,,,,,,,,,,,
214,21,Memory,4,,,,,,,00288940422fa.jpg,,,,,,,,,,,,,,,
215,21,Memory,4,,,,,,,00648941031fa.jpg,,,,,,,,,,,,,,,
216,21,Memory,4,,,,,,,sunaafbmtoniaasysgu.jpg,,,,,,,,,,,,,,,
217,21,Memory,4,,,,,,,sunahpblecxtmuzkmxb.jpg,,,,,,,,,,,,,,,
218,21,Memory,4,,,,,,,00870940307fa.jpg,,,,,,,,,,,,,,,
219,21,Memory,4,,,,,,,00098931230fa.jpg,,,,,,,,,,,,,,,
220,21,Memory,4,,,,,,,sunadfndyrtqqiasoig.jpg,,,,,,,,,,,,,,,
221,21,Memory,4,,,,,,,sunajrgtewnualfcerj.jpg,,,,,,,,,,,,,,,
222,21,Memory,4,,,,,,,sunbwyuesflwdpqtgoy.jpg,,,,,,,,,,,,,,,
223,21,Memory,4,,,,,,,sunadzuvtmtmgupotmf.jpg,,,,,,,,,,,,,,,
224,21,Memory,4,,,,,,,00768941205fa.jpg,,,,,,,,,,,,,,,
225,21,Memory,4,,,,,,,01005960627fa.jpg,,,,,,,,,,,,,,,
226,21,Memory,4,,,,,,,00799941205fa.jpg,,,,,,,,,,,,,,,
227,21,Memory,4,,,,,,,sunaeuzwggvibufclwf.jpg,,,,,,,,,,,,,,,
228,21,Memory,4,,,,,,,00965960627fa.jpg,,,,,,,,,,,,,,,
229,21,Memory,4,,,,,,,sunafkmnlytenlsywia.jpg,,,,,,,,,,,,,,,
230,21,Memory,4,,,,,,,00761960627fa.jpg,,,,,,,,,,,,,,,
231,21,Memory,4,,,,,,,00818940307fa.jpg,,,,,,,,,,,,,,,
232,21,Memory,4,,,,,,,sunahawfngukizslzsd.jpg,,,,,,,,,,,,,,,
233,21,Memory,4,,,,,,,sunaaexqbtdswxrqjvz.jpg,,,,,,,,,,,,,,,
234,21,Memory,4,,,,,,,00073931230fa.jpg,,,,,,,,,,,,,,,
235,21,Memory,4,,,,,,,sunaauueuhhvklldjik.jpg,,,,,,,,,,,,,,,
236,21,Memory,4,,,,,,,00807941205fa.jpg,,,,,,,,,,,,,,,
237,21,Memory,4,,,,,,,sunabppokiyglaxpcha.jpg,,,,,,,,,,,,,,,
238,21,Memory,4,,,,,,,sunaydywdmvlfddbxbk.jpg,,,,,,,,,,,,,,,
239,21,Memory,4,,,,,,,sunaavjinpnkappuonm.jpg,,,,,,,,,,,,,,,
240,21,Memory,4,,,,,,,sunagountlxpzkytsmp.jpg,,,,,,,,,,,,,,,
241,21,Memory,4,,,,,,,sunafgdqbclkwfocdhg.jpg,,,,,,,,,,,,,,,
242,21,Memory,4,,,,,,,00071941031fa.jpg,,,,,,,,,,,,,,,
243,21,Memory,4,,,,,,,sunasnqkkyhilqkxiqm.jpg,,,,,,,,,,,,,,,
244,21,Memory,4,,,,,,,00162931230fb.jpg,,,,,,,,,,,,,,,
245,21,Memory,4,,,,,,,sunagutjvdvnhxejerz.jpg,,,,,,,,,,,,,,,
246,21,Memory,4,,,,,,,00780960530fa.jpg,,,,,,,,,,,,,,,
247,21,Memory,4,,,,,,,sunagetqixeypsysbpn.jpg,,,,,,,,,,,,,,,
248,21,Memory,4,,,,,,,00154931230fa.jpg,,,,,,,,,,,,,,,
249,21,Memory,4,,,,,,,00949960627fb.jpg,,,,,,,,,,,,,,,
250,21,Presentation,5,00663941121fa_sunadnjjzohjhbohlwq.jpg,00214940128fa_sunabbafjowbzcvbucc.jpg,00663941121fa.jpg,sunadnjjzohjhbohlwq.jpg,00214940128fa.jpg,sunabbafjowbzcvbucc.jpg,,,<,Face,,,,,1,,,,,,,o
251,21,Presentation,5,00939960627fa_sunarceibpcyacbmfga.jpg,00507940519fa_sunacacflqoyxhsqzhe.jpg,00939960627fa.jpg,sunarceibpcyacbmfga.jpg,00507940519fa.jpg,sunacacflqoyxhsqzhe.jpg,,,<,Place,,,,,0,,,,,,,o
252,21,Presentation,5,00971960627fa_sunbbegcweqnetpdlrh.jpg,00576941031fa_sunacvjlsylseoghjup.jpg,00971960627fa.jpg,sunbbegcweqnetpdlrh.jpg,00576941031fa.jpg,sunacvjlsylseoghjup.jpg,,,>,Place,,,,,0,,,,,,,x
253,21,Presentation,5,00801941205fa_sunagvprlbprarvgdvj.jpg,00955960627fb_sunauburywlkjszngcq.jpg,00801941205fa.jpg,sunagvprlbprarvgdvj.jpg,00955960627fb.jpg,sunauburywlkjszngcq.jpg,,,<,Place,,,,,1,,,,,,,o
254,21,Presentation,5,00479940519fa_sunabxsbfwjccqxxzxq.jpg,01002960627fb_sunbwaafjdebjzttuvq.jpg,00479940519fa.jpg,sunabxsbfwjccqxxzxq.jpg,01002960627fb.jpg,sunbwaafjdebjzttuvq.jpg,,,>,Face,,,,,1,,,,,,,o
255,21,Presentation,5,00787941205fa_sunagmwxxwymwojbvgi.jpg,00902960530fa_sunanaacmmosxrfwmvl.jpg,00787941205fa.jpg,sunagmwxxwymwojbvgi.jpg,00902960530fa.jpg,sunanaacmmosxrfwmvl.jpg,,,<,Face,,,,,1,,,,,,,o
256,21,Presentation,5,00901960530fa_sunammbnoambmhdxdwd.jpg,00800941205fb_sunagvjurcwdbixvnyi.jpg,00901960530fa.jpg,sunammbnoambmhdxdwd.jpg,00800941205fb.jpg,sunagvjurcwdbixvnyi.jpg,,,>,Place,,,,,1,,,,,,,x
257,21,Presentation,5,00848940307fa_sunaivdylrawbmhryfp.jpg,00950960627fa_sunasrjlmglmjzbmqxb.jpg,00848940307fa.jpg,sunaivdylrawbmhryfp.jpg,00950960627fa.jpg,sunasrjlmglmjzbmqxb.jpg,,,>,Place,,,,,1,,,,,,,o
258,21,Presentation,5,00185940422fb_sunaawqdbpihmlbwyyn.jpg,00772941201fa_sunafpfpiiujzoesnqg.jpg,00185940422fb.jpg,sunaawqdbpihmlbwyyn.jpg,00772941201fa.jpg,sunafpfpiiujzoesnqg.jpg,,,>,Face,,,,,1,,,,,,,o
259,21,Presentation,5,00957960627fa_sunavhxgmgrqsaptynb.jpg,00745941205fa_sunaeouogqolxvggaoq.jpg,00957960627fa.jpg,sunavhxgmgrqsaptynb.jpg,00745941205fa.jpg,sunaeouogqolxvggaoq.jpg,,,<,Face,,,,,1,,,,,,,o
260,21,Memory,5,,,,,,,sunammbnoambmhdxdwd.jpg,,,,,,,,,,,,,,,
261,21,Memory,5,,,,,,,00797960620fa.jpg,,,,,,,,,,,,,,,
262,21,Memory,5,,,,,,,00858940307fa.jpg,,,,,,,,,,,,,,,
263,21,Memory,5,,,,,,,00939960627fa.jpg,,,,,,,,,,,,,,,
264,21,Memory,5,,,,,,,00609940928fa.jpg,,,,,,,,,,,,,,,
265,21,Memory,5,,,,,,,00290940422fa.jpg,,,,,,,,,,,,,,,
266,21,Memory,5,,,,,,,sunacacflqoyxhsqzhe.jpg,,,,,,,,,,,,,,,
267,21,Memory,5,,,,,,,sunagufzbeteqdjxais.jpg,,,,,,,,,,,,,,,
268,21,Memory,5,,,,,,,00985960627fa.jpg,,,,,,,,,,,,,,,
269,21,Memory,5,,,,,,,sunahtfxgsrmkiulnwk.jpg,,,,,,,,,,,,,,,
270,21,Memory,5,,,,,,,00507940519fa.jpg,,,,,,,,,,,,,,,
271,21,Memory,5,,,,,,,00848940307fa.jpg,,,,,,,,,,,,,,,
272,21,Memory,5,,,,,,,sunabqowuarvqqcnipn.jpg,,,,,,,,,,,,,,,
273,21,Memory,5,,,,,,,00827940307fa.jpg,,,,,,,,,,,,,,,
274,21,Memory,5,,,,,,,sunbwaafjdebjzttuvq.jpg,,,,,,,,,,,,,,,
275,21,Memory,5,,,,,,,sunacycdoztxoluxjyk.jpg,,,,,,,,,,,,,,,
276,21,Memory,5,,,,,,,00800941205fb.jpg,,,,,,,,,,,,,,,
277,21,Memory,5,,,,,,,01002960627fb.jpg,,,,,,,,,,,,,,,
278,21,Memory,5,,,,,,,sunagvjurcwdbixvnyi.jpg,,,,,,,,,,,,,,,
279,21,Memory,5,,,,,,,00694941121fa.jpg,,,,,,,,,,,,,,,
280,21,Memory,5,,,,,,,00787941205fa.jpg,,,,,,,,,,,,,,,
281,21,Memory,5,,,,,,,sunadnjjzohjhbohlwq.jpg,,,,,,,,,,,,,,,
282,21,Memory,5,,,,,,,00772941201fa.jpg,,,,,,,,,,,,,,,
283,21,Memory,5,,,,,,,sunaaexpnawiehinlpy.jpg,,,,,,,,,,,,,,,
284,21,Memory,5,,,,,,,00576941031fa.jpg,,,,,,,,,,,,,,,
285,21,Memory,5,,,,,,,00071940128fa.jpg,,,,,,,,,,,,,,,
286,21,Memory,5,,,,,,,sunaivdylrawbmhryfp.jpg,,,,,,,,,,,,,,,
287,21,Memory,5,,,,,,,sunadrmfzmstgdjdcod.jpg,,,,,,,,,,,,,,,
288,21,Memory,5,,,,,,,sunafpfpiiujzoesnqg.jpg,,,,,,,,,,,,,,,
289,21,Memory,5,,,,,,,sunaajspcoepticvplv.jpg,,,,,,,,,,,,,,,
290,21,Memory,5,,,,,,,sunbgklxeqjhdbyfhhy.jpg,,,,,,,,,,,,,,,
291,21,Memory,5,,,,,,,00102931230fa.jpg,,,,,,,,,,,,,,,
292,21,Memory,5,,,,,,,00785941205fa.jpg,,,,,,,,,,,,,,,
293,21,Memory,5,,,,,,,00901960530fa.jpg,,,,,,,,,,,,,,,
294,21,Memory,5,,,,,,,sunarceibpcyacbmfga.jpg,,,,,,,,,,,,,,,
295,21,Memory,5,,,,,,,sunacvjlsylseoghjup.jpg,,,,,,,,,,,,,,,
296,21,Memory,5,,,,,,,sunaixpqndlwhwjtjek.jpg,,,,,,,,,,,,,,,
297,21,Memory,5,,,,,,,00663941121fa.jpg,,,,,,,,,,,,,,,
298,21,Memory,5,,,,,,,sunaglqunwuycxydmyu.jpg,,,,,,,,,,,,,,,
299,21,Memory,5,,,,,,,sunagmwxxwymwojbvgi.jpg,,,,,,,,,,,,,,,
300,21,Presentation,6,00961960627fa_sunawotxrevnqvamsfp.jpg,00805941205fa_sunagwzdbtlixdhgolm.jpg,00961960627fa.jpg,sunawotxrevnqvamsfp.jpg,00805941205fa.jpg,sunagwzdbtlixdhgolm.jpg,,,>,Place,,,,,1,,,,,,,o
301,21,Presentation,6,00882960530fa_sunaknlirqjqiwbbeeg.jpg,00770941201fa_sunaflojskatpeqyzqp.jpg,00882960530fa.jpg,sunaknlirqjqiwbbeeg.jpg,00770941201fa.jpg,sunaflojskatpeqyzqp.jpg,,,<,Place,,,,,1,,,,,,,x
302,21,Presentation,6,00790941205fa_sunagpjzsbltchlwvou.jpg,00990960627fa_sunbpflsdaxnddnwcqi.jpg,00790941205fa.jpg,sunagpjzsbltchlwvou.jpg,00990960627fa.jpg,sunbpflsdaxnddnwcqi.jpg,,,>,Face,,,,,1,,,,,,,x
303,21,Presentation,6,00077931230fb_sunaafgqutfaishsxyu.jpg,00540940519fa_sunacdnquypmsshhsbk.jpg,00077931230fb.jpg,sunaafgqutfaishsxyu.jpg,00540940519fa.jpg,sunacdnquypmsshhsbk.jpg,,,<,Face,,,,,1,,,,,,,o
304,21,Presentation,6,00093931230fa_sunaahwnmtqsrhocysw.jpg,00822940307fa_sunahqrxievfeusiqlt.jpg,00093931230fa.jpg,sunaahwnmtqsrhocysw.jpg,00822940307fa.jpg,sunahqrxievfeusiqlt.jpg,,,<,Face,,,,,1,,,,,,,x
305,21,Presentation,6,00922960627fa_sunapqkyghktgtosuuk.jpg,00871940307_sunajrujcsdxmfbssmc.jpg,00922960627fa.jpg,sunapqkyghktgtosuuk.jpg,00871940307.jpg,sunajrujcsdxmfbssmc.jpg,,,>,Place,,,,,1,,,,,,,o
306,21,Presentation,6,00153931230fa_sunaauhozyxzeeqstxi.jpg,00809960620fa_sunahbvlpavurqoxdeq.jpg,00153931230fa.jpg,sunaauhozyxzeeqstxi.jpg,00809960620fa.jpg,sunahbvlpavurqoxdeq.jpg,,,>,Face,,,,,1,,,,,,,o
307,21,Presentation,6,00747941201fa_sunaeutbrtswvsozxyk.jpg,00483940519fa_sunabyvpwkgsjtijdwj.jpg,00747941201fa.jpg,sunaeutbrtswvsozxyk.jpg,00483940519fa.jpg,sunabyvpwkgsjtijdwj.jpg,,,<,Place,,,,,1,,,,,,,x
308,21,Presentation,6,00986960627fa_sunbgzjryivyczuvkvm.jpg,00834940307fa_sunaibnpvhkdpdnzcnz.jpg,00986960627fa.jpg,sunbgzjryivyczuvkvm.jpg,00834940307fa.jpg,sunaibnpvhkdpdnzcnz.jpg,,,>,Face,,,,,1,,,,,,,x
309,21,Presentation,6,00129931230fb_sunaamsdyakblkfoydx.jpg,00705960530fa_sunaduslxfzlbxlllnz.jpg,00129931230fb.jpg,sunaamsdyakblkfoydx.jpg,00705960530fa.jpg,sunaduslxfzlbxlllnz.jpg,,,<,Place,,,,,1,,,,,,,x
310,21,Memory,6,,,,,,,00871940307.jpg,,,,,,,,,,,,,,,
311,21,Memory,6,,,,,,,00598941031fa.jpg,,,,,,,,,,,,,,,
312,21,Memory,6,,,,,,,00922960627fa.jpg,,,,,,,,,,,,,,,
313,21,Memory,6,,,,,,,00784941205fb.jpg,,,,,,,,,,,,,,,
314,21,Memory,6,,,,,,,00805941205fa.jpg,,,,,,,,,,,,,,,
315,21,Memory,6,,,,,,,sunawotxrevnqvamsfp.jpg,,,,,,,,,,,,,,,
316,21,Memory,6,,,,,,,sunacxtcahkymosigud.jpg,,,,,,,,,,,,,,,
317,21,Memory,6,,,,,,,sunafowswglhxcsufpo.jpg,,,,,,,,,,,,,,,
318,21,Memory,6,,,,,,,00834940307fa.jpg,,,,,,,,,,,,,,,
319,21,Memory,6,,,,,,,00760960620fa.jpg,,,,,,,,,,,,,,,
320,21,Memory,6,,,,,,,00077931230fb.jpg,,,,,,,,,,,,,,,
321,21,Memory,6,,,,,,,sunagjzcrjvmxzqzljx.jpg,,,,,,,,,,,,,,,
322,21,Memory,6,,,,,,,sunbxarcshsnqsefemx.jpg,,,,,,,,,,,,,,,
323,21,Memory,6,,,,,,,00990960627fa.jpg,,,,,,,,,,,,,,,
324,21,Memory,6,,,,,,,sunaaekxzjzrfgtkwjf.jpg,,,,,,,,,,,,,,,
325,21,Memory,6,,,,,,,sunbgzjryivyczuvkvm.jpg,,,,,,,,,,,,,,,
326,21,Memory,6,,,,,,,00771941205fa.jpg,,,,,,,,,,,,,,,
327,21,Memory,6,,,,,,,sunaafgqutfaishsxyu.jpg,,,,,,,,,,,,,,,
328,21,Memory,6,,,,,,,00061931230fb.jpg,,,,,,,,,,,,,,,
329,21,Memory,6,,,,,,,01007960627fa.jpg,,,,,,,,,,,,,,,
330,21,Memory,6,,,,,,,sunaibnpvhkdpdnzcnz.jpg,,,,,,,,,,,,,,,
331,21,Memory,6,,,,,,,00705941205fa.jpg,,,,,,,,,,,,,,,
332,21,Memory,6,,,,,,,sunantryfbloeaomfta.jpg,,,,,,,,,,,,,,,
333,21,Memory,6,,,,,,,sunajrujcsdxmfbssmc.jpg,,,,,,,,,,,,,,,
334,21,Memory,6,,,,,,,00986960627fa.jpg,,,,,,,,,,,,,,,
335,21,Memory,6,,,,,,,00809960620fa.jpg,,,,,,,,,,,,,,,
336,21,Memory,6,,,,,,,00960960627fa.jpg,,,,,,,,,,,,,,,
337,21,Memory,6,,,,,,,sunbpflsdaxnddnwcqi.jpg,,,,,,,,,,,,,,,
338,21,Memory,6,,,,,,,sunahbvlpavurqoxdeq.jpg,,,,,,,,,,,,,,,
339,21,Memory,6,,,,,,,00961960627fa.jpg,,,,,,,,,,,,,,,
340,21,Memory,6,,,,,,,sunagwzdbtlixdhgolm.jpg,,,,,,,,,,,,,,,
341,21,Memory,6,,,,,,,sunaknlirqjqiwbbeeg.jpg,,,,,,,,,,,,,,,
342,21,Memory,6,,,,,,,sunaffstbkappprzxnv.jpg,,,,,,,,,,,,,,,
343,21,Memory,6,,,,,,,sunapqkyghktgtosuuk.jpg,,,,,,,,,,,,,,,
344,21,Memory,6,,,,,,,00136931230fb.jpg,,,,,,,,,,,,,,,
345,21,Memory,6,,,,,,,sunaanptmsknhirrzed.jpg,,,,,,,,,,,,,,,
346,21,Memory,6,,,,,,,sunadtlxenqqxsyjvix.jpg,,,,,,,,,,,,,,,
347,21,Memory,6,,,,,,,00906960530fa.jpg,,,,,,,,,,,,,,,
348,21,Memory,6,,,,,,,00882960530fa.jpg,,,,,,,,,,,,,,,
349,21,Memory,6,,,,,,,sunawksfbacycuhbrsc.jpg,,,,,,,,,,,,,,,
350,21,Presentation,7,00218940128fa_sunabbwggenhfbftyvi.jpg,00854940307fa_sunaiwduelojtwaqeyh.jpg,00218940128fa.jpg,sunabbwggenhfbftyvi.jpg,00854940307fa.jpg,sunaiwduelojtwaqeyh.jpg,,,>,Face,,,,,1,,,,,,,x
351,21,Presentation,7,00741941201fa_sunaemcowdozyphwknd.jpg,00972960627fa_sunbbfqwjpdxniyhies.jpg,00741941201fa.jpg,sunaemcowdozyphwknd.jpg,00972960627fa.jpg,sunbbfqwjpdxniyhies.jpg,,,>,Face,,,,,1,,,,,,,o
352,21,Presentation,7,00130931230fa_sunaamvxnvouicstkjb.jpg,00727941205fa_sunaeisnjeetzmkbuad.jpg,00130931230fa.jpg,sunaamvxnvouicstkjb.jpg,00727941205fa.jpg,sunaeisnjeetzmkbuad.jpg,,,>,Place,,,,,1,,,,,,,o
353,21,Presentation,7,00996960627fa_sunbpvgllfdejxcpjqp.jpg,00532960627fa_sunaccdtpgenvcbcbcf.jpg,00996960627fa.jpg,sunbpvgllfdejxcpjqp.jpg,00532960627fa.jpg,sunaccdtpgenvcbcbcf.jpg,,,<,Place,,,,,1,,,,,,,x
354,21,Presentation,7,00313940422fa_sunabwjvmoaddlyxfjr.jpg,00581940928fa_sunacvzhvcksnwqcqbw.jpg,00313940422fa.jpg,sunabwjvmoaddlyxfjr.jpg,00581940928fa.jpg,sunacvzhvcksnwqcqbw.jpg,,,<,Face,,,,,0,,,,,,,o
355,21,Presentation,7,00979960627fa_sunbdycacjfaujxitbw.jpg,00630940928fa_sunaczwgyukesaajxnx.jpg,00979960627fa.jpg,sunbdycacjfaujxitbw.jpg,00630940928fa.jpg,sunaczwgyukesaajxnx.jpg,,,>,Place,,,,,1,,,,,,,x
356,21,Presentation,7,00276940422fa_sunabmytpyhsgigllxu.jpg,00227940128fa_sunabckqabszusgcykj.jpg,00276940422fa.jpg,sunabmytpyhsgigllxu.jpg,00227940128fa.jpg,sunabckqabszusgcykj.jpg,,,<,Face,,,,,1,,,,,,,o
357,21,Presentation,7,00877960530fa_sunajxpkuhbizeveguy.jpg,00305940422fa_sunabtrnbvpppgczjim.jpg,00877960530fa.jpg,sunajxpkuhbizeveguy.jpg,00305940422fa.jpg,sunabtrnbvpppgczjim.jpg,,,<,Face,,,,,1,,,,,,,x
358,21,Presentation,7,00977960627fa_sunbbxkanhzjgbwyxqs.jpg,00306940422fa_sunabueyoajufbkraki.jpg,00977960627fa.jpg,sunbbxkanhzjgbwyxqs.jpg,00306940422fa.jpg,sunabueyoajufbkraki.jpg,,,>,Place,,,,,0,,,,,,,x
359,21,Presentation,7,00983960627fa_sunbfyvfqiimvdaxlqn.jpg,00908960530fa_sunanwjjyqqwzqrqagd.jpg,00983960627fa.jpg,sunbfyvfqiimvdaxlqn.jpg,00908960530fa.jpg,sunanwjjyqqwzqrqagd.jpg,,,<,Place,,,,,1,,,,,,,o
360,21,Memory,7,,,,,,,sunbddbivbptlrlauhy.jpg,,,,,,,,,,,,,,,
361,21,Memory,7,,,,,,,sunahwgbqkqcrwprgvh.jpg,,,,,,,,,,,,,,,
362,21,Memory,7,,,,,,,00306940422fa.jpg,,,,,,,,,,,,,,,
363,21,Memory,7,,,,,,,00887960530.jpg,,,,,,,,,,,,,,,
364,21,Memory,7,,,,,,,00978960627fa.jpg,,,,,,,,,,,,,,,
365,21,Memory,7,,,,,,,sunbbfqwjpdxniyhies.jpg,,,,,,,,,,,,,,,
366,21,Memory,7,,,,,,,sunalntxqqadigcletd.jpg,,,,,,,,,,,,,,,
367,21,Memory,7,,,,,,,sunbbxkanhzjgbwyxqs.jpg,,,,,,,,,,,,,,,
368,21,Memory,7,,,,,,,sunabckqabszusgcykj.jpg,,,,,,,,,,,,,,,
369,21,Memory,7,,,,,,,00908960530fa.jpg,,,,,,,,,,,,,,,
370,21,Memory,7,,,,,,,sunanwjjyqqwzqrqagd.jpg,,,,,,,,,,,,,,,
371,21,Memory,7,,,,,,,00227940128fa.jpg,,,,,,,,,,,,,,,
372,21,Memory,7,,,,,,,sunakwlvxjpddialozd.jpg,,,,,,,,,,,,,,,
373,21,Memory,7,,,,,,,00851940307fa.jpg,,,,,,,,,,,,,,,
374,21,Memory,7,,,,,,,sunaamvxnvouicstkjb.jpg,,,,,,,,,,,,,,,
375,21,Memory,7,,,,,,,00977960627fa.jpg,,,,,,,,,,,,,,,
376,21,Memory,7,,,,,,,00829940307fa.jpg,,,,,,,,,,,,,,,
377,21,Memory,7,,,,,,,00218940128fa.jpg,,,,,,,,,,,,,,,
378,21,Memory,7,,,,,,,sunaemcowdozyphwknd.jpg,,,,,,,,,,,,,,,
379,21,Memory,7,,,,,,,sunabbwggenhfbftyvi.jpg,,,,,,,,,,,,,,,
380,21,Memory,7,,,,,,,00900960530fa.jpg,,,,,,,,,,,,,,,
381,21,Memory,7,,,,,,,00130931230fa.jpg,,,,,,,,,,,,,,,
382,21,Memory,7,,,,,,,sunabzjxlmkwnwzimua.jpg,,,,,,,,,,,,,,,
383,21,Memory,7,,,,,,,00972960627fa.jpg,,,,,,,,,,,,,,,
384,21,Memory,7,,,,,,,sunabueyoajufbkraki.jpg,,,,,,,,,,,,,,,
385,21,Memory,7,,,,,,,00120931230fa.jpg,,,,,,,,,,,,,,,
386,21,Memory,7,,,,,,,00741941201fa.jpg,,,,,,,,,,,,,,,
387,21,Memory,7,,,,,,,sunbpvgllfdejxcpjqp.jpg,,,,,,,,,,,,,,,
388,21,Memory,7,,,,,,,00498960627fa.jpg,,,,,,,,,,,,,,,
389,21,Memory,7,,,,,,,sunalcrtwiycqobgelp.jpg,,,,,,,,,,,,,,,
390,21,Memory,7,,,,,,,sunajtrfunvzdfticna.jpg,,,,,,,,,,,,,,,
391,21,Memory,7,,,,,,,00892960530fa.jpg,,,,,,,,,,,,,,,
392,21,Memory,7,,,,,,,sunaakxgygjfqrzpyoz.jpg,,,,,,,,,,,,,,,
393,21,Memory,7,,,,,,,00996960627fa.jpg,,,,,,,,,,,,,,,
394,21,Memory,7,,,,,,,sunamlotskmmsjeogby.jpg,,,,,,,,,,,,,,,
395,21,Memory,7,,,,,,,sunaiwduelojtwaqeyh.jpg,,,,,,,,,,,,,,,
396,21,Memory,7,,,,,,,00874940307fa.jpg,,,,,,,,,,,,,,,
397,21,Memory,7,,,,,,,00854940307fa.jpg,,,,,,,,,,,,,,,
398,21,Memory,7,,,,,,,sunaivflshbyfrfzhqb.jpg,,,,,,,,,,,,,,,
399,21,Memory,7,,,,,,,00885960530fa.jpg,,,,,,,,,,,,,,,
