,Subject,Trial Type,Run,Cued Composite,Uncued Composite,Cued Face,Cued Place,Uncued Face,Uncued Place,Memory Image,Category,Cued Side,Cued Category,Attention Reaction Time (s),Familiarity Reaction Time (s),Familiarity Rating,Attention Level,Cue Validity,Post Invalid Cue,Pre Invalid Cue,Attention Button,Rating History,Stimulus Onset,Stimulus End,Attention Probe
360,36,Memory,7,,,,,,,00263940128fb.jpg,,,,,1.153,1.0,,,,,,,1540408384.243129,1540408386.58973,
361,36,Memory,7,,,,,,,01207940128fa.jpg,,,,,1.957,2.0,,,,,,,1540408387.8764,1540408390.177296,
362,36,Memory,7,,,,,,,sunaeuvjbmdpknaqqaj.jpg,,,,,1.199,1.0,,,,,,,1540408391.477326,1540408393.678641,
363,36,Memory,7,,,,,,,00971960627fa.jpg,,,,,1.035,2.0,,,,,,,1540408394.96245,1540408397.074775,
364,36,Memory,7,,,,,,,sunaampvucecsfbdafn.jpg,,,,,1.374,3.0,,,,,,,1540408398.363987,1540408400.443514,
365,36,Memory,7,,,,,,,sunaauueuhhvklldjik.jpg,,,,,1.125,2.0,,,,,,,1540408401.714197,1540408404.077909,
366,36,Memory,7,,,,,,,00123931230fb.jpg,,,,,1.442,1.0,,,,,,,1540408405.365406,1540408407.445269,
367,36,Memory,7,,,,,,,00633940928fa.jpg,,,,,1.109,2.0,,,,,,,1540408408.718197,1540408411.197073,
368,36,Memory,7,,,,,,,sundbixjudsgeuuehrn.jpg,,,,,1.734,3.0,,,,,,,1540408412.486049,1540408414.581138,
369,36,Memory,7,,,,,,,sunaakgekhjklxmvulj.jpg,,,,,1.414,3.0,,,,,,,1540408415.852139,1540408418.283015,
370,36,Memory,7,,,,,,,00773941201fa.jpg,,,,,0.873,2.0,,,,,,,1540408419.532772,1540408421.583195,
371,36,Memory,7,,,,,,,sunablfqiwfqomjarht.jpg,,,,,0.975,4.0,,,,,,,1540408422.855473,1540408425.250408,
372,36,Memory,7,,,,,,,00097931230fa.jpg,,,,,1.431,3.0,,,,,,,1540408426.534895,1540408428.521385,
373,36,Memory,7,,,,,,,sunabjuovqvyfuzvqwt.jpg,,,,,0.0,,,,,,,,1540408429.790989,1540408431.770488,
374,36,Memory,7,,,,,,,00127931230fa.jpg,,,,,1.232,2.0,,,,,,,1540408433.020711,1540408435.005972,
375,36,Memory,7,,,,,,,00999960627fa.jpg,,,,,1.22,1.0,,,,,,,1540408436.254326,1540408438.238999,
376,36,Memory,7,,,,,,,sunbvbrvgbpanfrawft.jpg,,,,,1.637,4.0,,,,,,,1540408439.510867,1540408441.490266,
377,36,Memory,7,,,,,,,00267940128fb.jpg,,,,,0.899,2.0,,,,,,,1540408442.746326,1540408444.724747,
378,36,Memory,7,,,,,,,sunaalcrrdbjgdztbiz.jpg,,,,,0.883,3.0,,,,,,,1540408445.979298,1540408447.991839,
379,36,Memory,7,,,,,,,00154931230fa.jpg,,,,,1.135,3.0,,,,,,,1540408449.246624,1540408451.392154,
380,36,Memory,7,,,,,,,00749941201fa.jpg,,,,,0.865,1.0,,,,,,,1540408452.665449,1540408454.710876,
381,36,Memory,7,,,,,,,sunadbhmrgrrpyzglxs.jpg,,,,,1.106,3.0,,,,,,,1540408455.999223,1540408458.178832,
382,36,Memory,7,,,,,,,sunafvcflzhlqloapyo.jpg,,,,,1.14,1.0,,,,,,,1540408459.450307,1540408461.879314,
383,36,Memory,7,,,,,,,sunanaacmmosxrfwmvl.jpg,,,,,1.241,4.0,,,,,,,1540408463.151176,1540408465.406466,
384,36,Memory,7,,,,,,,sunaeomlfaabhpswasy.jpg,,,,,1.342,1.0,,,,,,,1540408466.685175,1540408469.198306,
385,36,Memory,7,,,,,,,sunadcphrizvfpljiqt.jpg,,,,,1.025,1.0,,,,,,,1540408470.470298,1540408472.725765,
386,36,Memory,7,,,,,,,sunbtpilbhhbmhmeuzq.jpg,,,,,1.267,3.0,,,,,,,1540408474.02175,1540408476.25631,
387,36,Memory,7,,,,,,,sunacvzhvcksnwqcqbw.jpg,,,,,1.491,1.0,,,,,,,1540408477.535057,1540408479.805843,
388,36,Memory,7,,,,,,,00902960530fa.jpg,,,,,1.3,2.0,,,,,,,1540408481.107152,1540408483.403913,
389,36,Memory,7,,,,,,,00111931230fb.jpg,,,,,0.767,1.0,,,,,,,1540408484.65398,1540408486.641295,
390,36,Memory,7,,,,,,,sunaefgzwiramypjvtd.jpg,,,,,1.541,2.0,,,,,,,1540408487.910982,1540408490.231278,
391,36,Memory,7,,,,,,,sunaazzyhbvqjpmazjq.jpg,,,,,1.124,2.0,,,,,,,1540408491.543754,1540408493.957566,
392,36,Memory,7,,,,,,,sunbbegcweqnetpdlrh.jpg,,,,,1.026,1.0,,,,,,,1540408495.245573,1540408497.499307,
393,36,Memory,7,,,,,,,00634940928fa.jpg,,,,,1.015,2.0,,,,,,,1540408498.779407,1540408500.863015,
394,36,Memory,7,,,,,,,00208940128fa.jpg,,,,,1.043,1.0,,,,,,,1540408502.146532,1540408504.319271,
395,36,Memory,7,,,,,,,00581940928fa.jpg,,,,,1.268,1.0,,,,,,,1540408505.598446,1540408507.661417,
396,36,Memory,7,,,,,,,00744941201fa.jpg,,,,,1.598,1.0,,,,,,,1540408508.916522,1540408510.895765,
397,36,Memory,7,,,,,,,00725941201fa.jpg,,,,,1.367,1.0,,,,,,,1540408512.146314,1540408514.133031,
398,36,Memory,7,,,,,,,00997960627fa.jpg,,,,,1.364,2.0,,,,,,,1540408515.380972,1540408517.367263,
399,36,Memory,7,,,,,,,sunaajayojuslbbnneg.jpg,,,,,1.415,3.0,,,,,,,1540408518.620099,1540408520.600917,
