,Subject,Trial Type,Run,Cued Composite,Uncued Composite,Cued Face,Cued Place,Uncued Face,Uncued Place,Memory Image,Category,Cued Side,Cued Category,Attention Response Time (s),Familiarity Reaction Time (s),Familiarity Rating,Attention Level,Cue Validity,Post Invalid Cue,Pre Invalid Cue,Attention Button,Rating History,Stimulus Onset,Stimulus End,Attention Probe
0,16,Presentation,0,00914960620fa_sunaozisvwfbmlkfhzv.jpg,00132931230fb_sunaanjcbzdvtvblsdy.jpg,,,,,,,>,Place,,,,,1,,,,,,,x
1,16,Presentation,0,00158931230fb_sunaavchcbptaerhcfy.jpg,00554940519fa_sunacfdkbsrughwqwtt.jpg,,,,,,,<,Place,,,,,1,,,,,,,o
2,16,Presentation,0,00754941201fa_sunaffgsyyvoqdlkmnk.jpg,00763941205fa_sunafhmnhsdurlvddpw.jpg,,,,,,,>,Face,,,,,1,,,,,,,o
3,16,Presentation,0,00990960627fa_sunbpflsdaxnddnwcqi.jpg,00836940307fa_sunainqelldeebvxtcz.jpg,,,,,,,<,Place,,,,,1,,,,,,,o
4,16,Presentation,0,00937960627fa_sunaqsolmfydodnakub.jpg,00795941205fa_sunagtumacdlmciqamz.jpg,,,,,,,>,Face,,,,,1,,,,,,,o
5,16,Presentation,0,00505960627fa_sunabzuqsrgcsonqlkz.jpg,00130931230fa_sunaamvxnvouicstkjb.jpg,,,,,,,<,Face,,,,,1,,,,,,,o
6,16,Presentation,0,00898960530fa_sunamkmeblgteyggink.jpg,00766960620fa_sunafijbgncijwykrnl.jpg,,,,,,,>,Place,,,,,1,,,,,,,x
7,16,Presentation,0,01003960627fb_sunbwdrdvsweerwsdrj.jpg,00788941205fa_sunagountlxpzkytsmp.jpg,,,,,,,<,Face,,,,,1,,,,,,,o
8,16,Presentation,0,00548940519fa_sunacerqowiaeoqkmsq.jpg,00891960530fa_sunalkiibhqpxfamlll.jpg,,,,,,,<,Place,,,,,1,,,,,,,x
9,16,Presentation,0,00971960627fa_sunbbegcweqnetpdlrh.jpg,00858940307fa_sunaixpqndlwhwjtjek.jpg,,,,,,,>,Face,,,,,1,,,,,,,x
10,16,Memory,0,,,,,,,00132931230fb.jpg,,,,,,,,,,,,,,,
11,16,Memory,0,,,,,,,00943960627fa.jpg,,,,,,,,,,,,,,,
12,16,Memory,0,,,,,,,00884960530fa.jpg,,,,,,,,,,,,,,,
13,16,Memory,0,,,,,,,sunakodkcslgqhqlgwl.jpg,,,,,,,,,,,,,,,
14,16,Memory,0,,,,,,,sunacerqowiaeoqkmsq.jpg,,,,,,,,,,,,,,,
15,16,Memory,0,,,,,,,00914960620fa.jpg,,,,,,,,,,,,,,,
16,16,Memory,0,,,,,,,00809960620fa.jpg,,,,,,,,,,,,,,,
17,16,Memory,0,,,,,,,sunavxokzybtomhbmvm.jpg,,,,,,,,,,,,,,,
18,16,Memory,0,,,,,,,00836940307fa.jpg,,,,,,,,,,,,,,,
19,16,Memory,0,,,,,,,00860940307fa.jpg,,,,,,,,,,,,,,,
20,16,Memory,0,,,,,,,sunbwdrdvsweerwsdrj.jpg,,,,,,,,,,,,,,,
21,16,Memory,0,,,,,,,00915960620fa.jpg,,,,,,,,,,,,,,,
22,16,Memory,0,,,,,,,sunaqsolmfydodnakub.jpg,,,,,,,,,,,,,,,
23,16,Memory,0,,,,,,,sunapileznnbbmrwoei.jpg,,,,,,,,,,,,,,,
24,16,Memory,0,,,,,,,00071941031fa.jpg,,,,,,,,,,,,,,,
25,16,Memory,0,,,,,,,00548940519fa.jpg,,,,,,,,,,,,,,,
26,16,Memory,0,,,,,,,00898960530fa.jpg,,,,,,,,,,,,,,,
27,16,Memory,0,,,,,,,00598940928fa.jpg,,,,,,,,,,,,,,,
28,16,Memory,0,,,,,,,sunaizeyhvjzknwjudw.jpg,,,,,,,,,,,,,,,
29,16,Memory,0,,,,,,,00959960627fa.jpg,,,,,,,,,,,,,,,
30,16,Memory,0,,,,,,,sunaaexqbtdswxrqjvz.jpg,,,,,,,,,,,,,,,
31,16,Memory,0,,,,,,,sunagountlxpzkytsmp.jpg,,,,,,,,,,,,,,,
32,16,Memory,0,,,,,,,sunaamvxnvouicstkjb.jpg,,,,,,,,,,,,,,,
33,16,Memory,0,,,,,,,sunafbwnojpqeyzssoe.jpg,,,,,,,,,,,,,,,
34,16,Memory,0,,,,,,,01003960627fb.jpg,,,,,,,,,,,,,,,
35,16,Memory,0,,,,,,,sunahbvlpavurqoxdeq.jpg,,,,,,,,,,,,,,,
36,16,Memory,0,,,,,,,sunainqelldeebvxtcz.jpg,,,,,,,,,,,,,,,
37,16,Memory,0,,,,,,,00130931230fa.jpg,,,,,,,,,,,,,,,
38,16,Memory,0,,,,,,,sunacxeheuiigkcgquf.jpg,,,,,,,,,,,,,,,
39,16,Memory,0,,,,,,,00788941205fa.jpg,,,,,,,,,,,,,,,
40,16,Memory,0,,,,,,,sunarpsxqkduedrrzyi.jpg,,,,,,,,,,,,,,,
41,16,Memory,0,,,,,,,sunaozisvwfbmlkfhzv.jpg,,,,,,,,,,,,,,,
42,16,Memory,0,,,,,,,sunaeuzwggvibufclwf.jpg,,,,,,,,,,,,,,,
43,16,Memory,0,,,,,,,00752960620fa.jpg,,,,,,,,,,,,,,,
44,16,Memory,0,,,,,,,00937960627fa.jpg,,,,,,,,,,,,,,,
45,16,Memory,0,,,,,,,00750941201fa.jpg,,,,,,,,,,,,,,,
46,16,Memory,0,,,,,,,sunamkmeblgteyggink.jpg,,,,,,,,,,,,,,,
47,16,Memory,0,,,,,,,sunagtumacdlmciqamz.jpg,,,,,,,,,,,,,,,
48,16,Memory,0,,,,,,,00795941205fa.jpg,,,,,,,,,,,,,,,
49,16,Memory,0,,,,,,,sunaanjcbzdvtvblsdy.jpg,,,,,,,,,,,,,,,
50,16,Presentation,1,00835940307fa_sunaijsqpvodplbwxkf.jpg,00063931230fa_sunaaelyvurpntclgau.jpg,,,,,,,>,Place,,,,,1,,,,,,,x
51,16,Presentation,1,00778941205fa_sunagcthdfirrcawoic.jpg,00955960627fb_sunauburywlkjszngcq.jpg,,,,,,,<,Place,,,,,1,,,,,,,x
52,16,Presentation,1,00749941201fa_sunaeuvjbmdpknaqqaj.jpg,00803941205fa_sunagvxkjokqimstxpe.jpg,,,,,,,>,Face,,,,,0,,,,,,,x
53,16,Presentation,1,00952960627fa_sunathzzbcwjykldrem.jpg,00859940307fa_sunaiycurtqsfkvcaso.jpg,,,,,,,<,Face,,,,,1,,,,,,,o
54,16,Presentation,1,00061931230fb_sunaaekxzjzrfgtkwjf.jpg,00663941121fa_sunadnjjzohjhbohlwq.jpg,,,,,,,>,Place,,,,,1,,,,,,,o
55,16,Presentation,1,00838940307fa_sunaiozxhxgtfrmoagh.jpg,00131931230fb_sunaangbuylfvckqqoo.jpg,,,,,,,<,Face,,,,,1,,,,,,,x
56,16,Presentation,1,00913960530fa_sunaooffzffbhcpirmm.jpg,00529940519fa_sunacbeefkxpymwevpk.jpg,,,,,,,>,Face,,,,,1,,,,,,,o
57,16,Presentation,1,00770941201fa_sunaflojskatpeqyzqp.jpg,00743941201fa_sunaeoghzrjarigmwua.jpg,,,,,,,<,Place,,,,,1,,,,,,,o
58,16,Presentation,1,01005960627fa_sunbwyuesflwdpqtgoy.jpg,00082931230fa_sunaafvitpexrpvumsa.jpg,,,,,,,<,Face,,,,,1,,,,,,,o
59,16,Presentation,1,00262940128fa_sunabizydfotqddlnjp.jpg,00786941205fa_sunagmhildamktmqjss.jpg,,,,,,,>,Place,,,,,1,,,,,,,o
60,16,Memory,1,,,,,,,00841940307fa.jpg,,,,,,,,,,,,,,,
61,16,Memory,1,,,,,,,00859940307fa.jpg,,,,,,,,,,,,,,,
62,16,Memory,1,,,,,,,sunaeoghzrjarigmwua.jpg,,,,,,,,,,,,,,,
63,16,Memory,1,,,,,,,sunamlotskmmsjeogby.jpg,,,,,,,,,,,,,,,
64,16,Memory,1,,,,,,,sunauburywlkjszngcq.jpg,,,,,,,,,,,,,,,
65,16,Memory,1,,,,,,,sunabizydfotqddlnjp.jpg,,,,,,,,,,,,,,,
66,16,Memory,1,,,,,,,00185940422fb.jpg,,,,,,,,,,,,,,,
67,16,Memory,1,,,,,,,sunaisiwfgppimtnmxl.jpg,,,,,,,,,,,,,,,
68,16,Memory,1,,,,,,,sunbwyuesflwdpqtgoy.jpg,,,,,,,,,,,,,,,
69,16,Memory,1,,,,,,,00955960627fb.jpg,,,,,,,,,,,,,,,
70,16,Memory,1,,,,,,,sunaiycurtqsfkvcaso.jpg,,,,,,,,,,,,,,,
71,16,Memory,1,,,,,,,sunagcthdfirrcawoic.jpg,,,,,,,,,,,,,,,
72,16,Memory,1,,,,,,,00663941121fa.jpg,,,,,,,,,,,,,,,
73,16,Memory,1,,,,,,,sunaqbmgkgqucajzrkp.jpg,,,,,,,,,,,,,,,
74,16,Memory,1,,,,,,,sunaafvitpexrpvumsa.jpg,,,,,,,,,,,,,,,
75,16,Memory,1,,,,,,,00952960627fa.jpg,,,,,,,,,,,,,,,
76,16,Memory,1,,,,,,,00900960530fa.jpg,,,,,,,,,,,,,,,
77,16,Memory,1,,,,,,,00770941201fa.jpg,,,,,,,,,,,,,,,
78,16,Memory,1,,,,,,,00919960620fa.jpg,,,,,,,,,,,,,,,
79,16,Memory,1,,,,,,,00082931230fa.jpg,,,,,,,,,,,,,,,
80,16,Memory,1,,,,,,,sunacwggadqsfpovdjv.jpg,,,,,,,,,,,,,,,
81,16,Memory,1,,,,,,,00935960627fa.jpg,,,,,,,,,,,,,,,
82,16,Memory,1,,,,,,,sunaflojskatpeqyzqp.jpg,,,,,,,,,,,,,,,
83,16,Memory,1,,,,,,,sunaawqdbpihmlbwyyn.jpg,,,,,,,,,,,,,,,
84,16,Memory,1,,,,,,,00743941201fa.jpg,,,,,,,,,,,,,,,
85,16,Memory,1,,,,,,,01005960627fa.jpg,,,,,,,,,,,,,,,
86,16,Memory,1,,,,,,,00133931230fa.jpg,,,,,,,,,,,,,,,
87,16,Memory,1,,,,,,,sunadvithllcgmfxsrn.jpg,,,,,,,,,,,,,,,
88,16,Memory,1,,,,,,,sunaanlwnpqndclffxt.jpg,,,,,,,,,,,,,,,
89,16,Memory,1,,,,,,,00778941205fa.jpg,,,,,,,,,,,,,,,
90,16,Memory,1,,,,,,,sunadnjjzohjhbohlwq.jpg,,,,,,,,,,,,,,,
91,16,Memory,1,,,,,,,00719941201fa.jpg,,,,,,,,,,,,,,,
92,16,Memory,1,,,,,,,sunathzzbcwjykldrem.jpg,,,,,,,,,,,,,,,
93,16,Memory,1,,,,,,,sunapmfmzadmosuogaz.jpg,,,,,,,,,,,,,,,
94,16,Memory,1,,,,,,,00111931230fb.jpg,,,,,,,,,,,,,,,
95,16,Memory,1,,,,,,,sunabrlndkruqokhury.jpg,,,,,,,,,,,,,,,
96,16,Memory,1,,,,,,,sunaakgekhjklxmvulj.jpg,,,,,,,,,,,,,,,
97,16,Memory,1,,,,,,,00294940422fb.jpg,,,,,,,,,,,,,,,
98,16,Memory,1,,,,,,,00262940128fa.jpg,,,,,,,,,,,,,,,
99,16,Memory,1,,,,,,,00589940928fa.jpg,,,,,,,,,,,,,,,
100,16,Presentation,2,00694941121fa_sunadrmfzmstgdjdcod.jpg,00880960530fa_sunakmnfgklupjijsgf.jpg,,,,,,,<,Place,,,,,0,,,,,,,x
101,16,Presentation,2,00961960627fa_sunawotxrevnqvamsfp.jpg,00263940128fb_sunabjuovqvyfuzvqwt.jpg,,,,,,,>,Face,,,,,1,,,,,,,o
102,16,Presentation,2,00077931230fb_sunaafgqutfaishsxyu.jpg,00828940307fa_sunahuynahneraqftyz.jpg,,,,,,,>,Place,,,,,1,,,,,,,o
103,16,Presentation,2,01010960627fa_suncnkvbhypnivcohyx.jpg,00818940307fa_sunahpblecxtmuzkmxb.jpg,,,,,,,<,Face,,,,,1,,,,,,,x
104,16,Presentation,2,00211940128fa_sunabasphceswhwwqvv.jpg,00198940128fb_sunaazezcsunmhttzxz.jpg,,,,,,,<,Place,,,,,0,,,,,,,x
105,16,Presentation,2,00871940307_sunajrujcsdxmfbssmc.jpg,00723941201fa_sunaedtgwjvvziytspa.jpg,,,,,,,>,Place,,,,,1,,,,,,,o
106,16,Presentation,2,00815941205fa_sunahiphsekjihkafsl.jpg,00895960530fa_sunamczizlzavhzhpay.jpg,,,,,,,>,Face,,,,,1,,,,,,,x
107,16,Presentation,2,00866940307fa_sunajbwkywmsqkldfml.jpg,00929960627fa_sunaprnrbmgkomdbchr.jpg,,,,,,,<,Place,,,,,1,,,,,,,x
108,16,Presentation,2,00772941201fa_sunafpfpiiujzoesnqg.jpg,01011960627fa_sundahdxwmcdluscvot.jpg,,,,,,,>,Face,,,,,1,,,,,,,o
109,16,Presentation,2,00885960530fa_sunakwlvxjpddialozd.jpg,00126931230fb_sunaamdjwemxpmmtypi.jpg,,,,,,,<,Face,,,,,1,,,,,,,x
110,16,Memory,2,,,,,,,sunabbwggenhfbftyvi.jpg,,,,,,,,,,,,,,,
111,16,Memory,2,,,,,,,00081941031fa.jpg,,,,,,,,,,,,,,,
112,16,Memory,2,,,,,,,sunbbhqyyzmsxhsbjmp.jpg,,,,,,,,,,,,,,,
113,16,Memory,2,,,,,,,00997960627fa.jpg,,,,,,,,,,,,,,,
114,16,Memory,2,,,,,,,sunaahedjlmtqekgyvj.jpg,,,,,,,,,,,,,,,
115,16,Memory,2,,,,,,,sunabjzyxcjnmztdonj.jpg,,,,,,,,,,,,,,,
116,16,Memory,2,,,,,,,00090931230fa.jpg,,,,,,,,,,,,,,,
117,16,Memory,2,,,,,,,00866940307fa.jpg,,,,,,,,,,,,,,,
118,16,Memory,2,,,,,,,00264940128fb.jpg,,,,,,,,,,,,,,,
119,16,Memory,2,,,,,,,sunayaepykrqvenaqqy.jpg,,,,,,,,,,,,,,,
120,16,Memory,2,,,,,,,00963960627fa.jpg,,,,,,,,,,,,,,,
121,16,Memory,2,,,,,,,sunakmnfgklupjijsgf.jpg,,,,,,,,,,,,,,,
122,16,Memory,2,,,,,,,00108960530fa.jpg,,,,,,,,,,,,,,,
123,16,Memory,2,,,,,,,sunaaftlyfudyzuhqzf.jpg,,,,,,,,,,,,,,,
124,16,Memory,2,,,,,,,00191940128fb.jpg,,,,,,,,,,,,,,,
125,16,Memory,2,,,,,,,sundahdxwmcdluscvot.jpg,,,,,,,,,,,,,,,
126,16,Memory,2,,,,,,,sunaawsdjisukbbginm.jpg,,,,,,,,,,,,,,,
127,16,Memory,2,,,,,,,sunamczizlzavhzhpay.jpg,,,,,,,,,,,,,,,
128,16,Memory,2,,,,,,,sunahuynahneraqftyz.jpg,,,,,,,,,,,,,,,
129,16,Memory,2,,,,,,,00723941201fa.jpg,,,,,,,,,,,,,,,
130,16,Memory,2,,,,,,,sunaajtnvzzpsjdzres.jpg,,,,,,,,,,,,,,,
131,16,Memory,2,,,,,,,00976960627fa.jpg,,,,,,,,,,,,,,,
132,16,Memory,2,,,,,,,sunakwlvxjpddialozd.jpg,,,,,,,,,,,,,,,
133,16,Memory,2,,,,,,,00828940307fa.jpg,,,,,,,,,,,,,,,
134,16,Memory,2,,,,,,,sunajbwkywmsqkldfml.jpg,,,,,,,,,,,,,,,
135,16,Memory,2,,,,,,,00885960530fa.jpg,,,,,,,,,,,,,,,
136,16,Memory,2,,,,,,,00136931230fb.jpg,,,,,,,,,,,,,,,
137,16,Memory,2,,,,,,,sunaafgqutfaishsxyu.jpg,,,,,,,,,,,,,,,
138,16,Memory,2,,,,,,,00077931230fb.jpg,,,,,,,,,,,,,,,
139,16,Memory,2,,,,,,,sunaedtgwjvvziytspa.jpg,,,,,,,,,,,,,,,
140,16,Memory,2,,,,,,,00880960530fa.jpg,,,,,,,,,,,,,,,
141,16,Memory,2,,,,,,,00211940128fa.jpg,,,,,,,,,,,,,,,
142,16,Memory,2,,,,,,,00772941201fa.jpg,,,,,,,,,,,,,,,
143,16,Memory,2,,,,,,,sunafpfpiiujzoesnqg.jpg,,,,,,,,,,,,,,,
144,16,Memory,2,,,,,,,sunbtpilbhhbmhmeuzq.jpg,,,,,,,,,,,,,,,
145,16,Memory,2,,,,,,,sunabasphceswhwwqvv.jpg,,,,,,,,,,,,,,,
146,16,Memory,2,,,,,,,01011960627fa.jpg,,,,,,,,,,,,,,,
147,16,Memory,2,,,,,,,00895960530fa.jpg,,,,,,,,,,,,,,,
148,16,Memory,2,,,,,,,00218940128fa.jpg,,,,,,,,,,,,,,,
149,16,Memory,2,,,,,,,sunaanptmsknhirrzed.jpg,,,,,,,,,,,,,,,
150,16,Presentation,3,00787960620fa_sunagoufulkpsxrmklt.jpg,00911960530fa_sunaooaqzputrowwbsw.jpg,,,,,,,>,Face,,,,,1,,,,,,,o
151,16,Presentation,3,00816941205fa_sunahmhrncocyhsjpxk.jpg,00874940307fa_sunajtrfunvzdfticna.jpg,,,,,,,<,Face,,,,,1,,,,,,,x
152,16,Presentation,3,00598941031fa_sunacxtcahkymosigud.jpg,00922960627fa_sunapqkyghktgtosuuk.jpg,,,,,,,>,Place,,,,,1,,,,,,,o
153,16,Presentation,3,00720960620fa_sunaecpkgfewqqreqwe.jpg,00316940422fa_sunabxmguapjekttvwm.jpg,,,,,,,<,Face,,,,,1,,,,,,,o
154,16,Presentation,3,00851940307fa_sunaivflshbyfrfzhqb.jpg,00636941031fa_sunaddtdkycxbqlpfqa.jpg,,,,,,,>,Place,,,,,1,,,,,,,x
155,16,Presentation,3,00727941205fa_sunaeisnjeetzmkbuad.jpg,00876960620fa_sunajwqkfsykceonyig.jpg,,,,,,,<,Place,,,,,1,,,,,,,o
156,16,Presentation,3,00944960627fa_sunasbbntuiheekqyaq.jpg,00761960627fa_sunafgdqbclkwfocdhg.jpg,,,,,,,>,Face,,,,,1,,,,,,,o
157,16,Presentation,3,00893960530Fa_sunaloffvbvysigxent.jpg,00868960307fa_sunajjxttslobudoqbv.jpg,,,,,,,>,Place,,,,,1,,,,,,,x
158,16,Presentation,3,00109931230fa_sunaajuzribjrizdshh.jpg,00972960627fa_sunbbfqwjpdxniyhies.jpg,,,,,,,<,Place,,,,,1,,,,,,,o
159,16,Presentation,3,00314940422fa_sunabwmcbaxwioksdgw.jpg,00060931230fa_sunaaehaikpckyjsety.jpg,,,,,,,<,Face,,,,,1,,,,,,,o
160,16,Memory,3,,,,,,,00316940422fa.jpg,,,,,,,,,,,,,,,
161,16,Memory,3,,,,,,,sunajtrfunvzdfticna.jpg,,,,,,,,,,,,,,,
162,16,Memory,3,,,,,,,sunaivflshbyfrfzhqb.jpg,,,,,,,,,,,,,,,
163,16,Memory,3,,,,,,,00720960620fa.jpg,,,,,,,,,,,,,,,
164,16,Memory,3,,,,,,,sunajjxttslobudoqbv.jpg,,,,,,,,,,,,,,,
165,16,Memory,3,,,,,,,00903960620fa.jpg,,,,,,,,,,,,,,,
166,16,Memory,3,,,,,,,sunaeisnjeetzmkbuad.jpg,,,,,,,,,,,,,,,
167,16,Memory,3,,,,,,,00747941201fa.jpg,,,,,,,,,,,,,,,
168,16,Memory,3,,,,,,,00939960627fa.jpg,,,,,,,,,,,,,,,
169,16,Memory,3,,,,,,,sunabmytpyhsgigllxu.jpg,,,,,,,,,,,,,,,
170,16,Memory,3,,,,,,,sunacacflqoyxhsqzhe.jpg,,,,,,,,,,,,,,,
171,16,Memory,3,,,,,,,00869940307fa.jpg,,,,,,,,,,,,,,,
172,16,Memory,3,,,,,,,sunaqgjuuwvdcyiccjt.jpg,,,,,,,,,,,,,,,
173,16,Memory,3,,,,,,,00874940307fa.jpg,,,,,,,,,,,,,,,
174,16,Memory,3,,,,,,,sunagoufulkpsxrmklt.jpg,,,,,,,,,,,,,,,
175,16,Memory,3,,,,,,,00507940519fa.jpg,,,,,,,,,,,,,,,
176,16,Memory,3,,,,,,,sunafvtpfczkzopbgue.jpg,,,,,,,,,,,,,,,
177,16,Memory,3,,,,,,,sunarceibpcyacbmfga.jpg,,,,,,,,,,,,,,,
178,16,Memory,3,,,,,,,sunanainkqdvktzoxyl.jpg,,,,,,,,,,,,,,,
179,16,Memory,3,,,,,,,00154931230fa.jpg,,,,,,,,,,,,,,,
180,16,Memory,3,,,,,,,sunajoveqhiprwqgoco.jpg,,,,,,,,,,,,,,,
181,16,Memory,3,,,,,,,sunabxmguapjekttvwm.jpg,,,,,,,,,,,,,,,
182,16,Memory,3,,,,,,,00868960307fa.jpg,,,,,,,,,,,,,,,
183,16,Memory,3,,,,,,,00787960620fa.jpg,,,,,,,,,,,,,,,
184,16,Memory,3,,,,,,,00922960627fa.jpg,,,,,,,,,,,,,,,
185,16,Memory,3,,,,,,,sunapqkyghktgtosuuk.jpg,,,,,,,,,,,,,,,
186,16,Memory,3,,,,,,,00774941201fa.jpg,,,,,,,,,,,,,,,
187,16,Memory,3,,,,,,,sunajwqkfsykceonyig.jpg,,,,,,,,,,,,,,,
188,16,Memory,3,,,,,,,00936960627fa.jpg,,,,,,,,,,,,,,,
189,16,Memory,3,,,,,,,00276940422fa.jpg,,,,,,,,,,,,,,,
190,16,Memory,3,,,,,,,00921960627fa.jpg,,,,,,,,,,,,,,,
191,16,Memory,3,,,,,,,00851940307fa.jpg,,,,,,,,,,,,,,,
192,16,Memory,3,,,,,,,sunaeutbrtswvsozxyk.jpg,,,,,,,,,,,,,,,
193,16,Memory,3,,,,,,,00876960620fa.jpg,,,,,,,,,,,,,,,
194,16,Memory,3,,,,,,,sunaajuzribjrizdshh.jpg,,,,,,,,,,,,,,,
195,16,Memory,3,,,,,,,00109931230fa.jpg,,,,,,,,,,,,,,,
196,16,Memory,3,,,,,,,sunaauueuhhvklldjik.jpg,,,,,,,,,,,,,,,
197,16,Memory,3,,,,,,,sunapqkpqdfvxlbqwyo.jpg,,,,,,,,,,,,,,,
198,16,Memory,3,,,,,,,00727941205fa.jpg,,,,,,,,,,,,,,,
199,16,Memory,3,,,,,,,sunaecpkgfewqqreqwe.jpg,,,,,,,,,,,,,,,
200,16,Presentation,4,00780960530fa_sunagetqixeypsysbpn.jpg,00848940307fa_sunaivdylrawbmhryfp.jpg,,,,,,,<,Place,,,,,1,,,,,,,o
201,16,Presentation,4,00799941205fa_sunagutjvdvnhxejerz.jpg,00482940519fa_sunabyfxcxhdebvdyfd.jpg,,,,,,,<,Face,,,,,1,,,,,,,x
202,16,Presentation,4,00313940422fa_sunabwjvmoaddlyxfjr.jpg,00989960627fa_sunbondbduabvijnmch.jpg,,,,,,,>,Place,,,,,1,,,,,,,o
203,16,Presentation,4,00270940422fb_sunabllobxadqcyttej.jpg,00073931230fa_sunaafbmtoniaasysgu.jpg,,,,,,,>,Face,,,,,1,,,,,,,x
204,16,Presentation,4,00184940128fa_sunaavtbadenwnzeutj.jpg,00938960627fa_sunaqyylsngywqzwfmx.jpg,,,,,,,<,Face,,,,,1,,,,,,,x
205,16,Presentation,4,00540940519fa_sunacdnquypmsshhsbk.jpg,00784941205fb_sunagjzcrjvmxzqzljx.jpg,,,,,,,>,Place,,,,,1,,,,,,,o
206,16,Presentation,4,00209940128fb_sunabaergayifsgacxt.jpg,00562941031fa_sunacjnahdmqfnjfwqx.jpg,,,,,,,<,Place,,,,,1,,,,,,,x
207,16,Presentation,4,00648941031fa_sunadfndyrtqqiasoig.jpg,00953960627fa_sunatstrpjxhvtbaczf.jpg,,,,,,,<,Face,,,,,1,,,,,,,x
208,16,Presentation,4,00096931230fa_sunaaiqiqcggrskoqgy.jpg,00647941031fa_sunadflbrkckmepztql.jpg,,,,,,,>,Face,,,,,1,,,,,,,x
209,16,Presentation,4,00102931230fa_sunaajspcoepticvplv.jpg,00970960627fa_sunbasypfgzjtomktmu.jpg,,,,,,,>,Place,,,,,1,,,,,,,x
210,16,Memory,4,,,,,,,sunaptrqvaooxfvktvw.jpg,,,,,,,,,,,,,,,
211,16,Memory,4,,,,,,,00116931230fa.jpg,,,,,,,,,,,,,,,
212,16,Memory,4,,,,,,,sunabllobxadqcyttej.jpg,,,,,,,,,,,,,,,
213,16,Memory,4,,,,,,,00540940519fa.jpg,,,,,,,,,,,,,,,
214,16,Memory,4,,,,,,,00784941205fb.jpg,,,,,,,,,,,,,,,
215,16,Memory,4,,,,,,,sunagvprlbprarvgdvj.jpg,,,,,,,,,,,,,,,
216,16,Memory,4,,,,,,,00780960530fa.jpg,,,,,,,,,,,,,,,
217,16,Memory,4,,,,,,,00989960627fa.jpg,,,,,,,,,,,,,,,
218,16,Memory,4,,,,,,,sunaakqepfoeqomfgxf.jpg,,,,,,,,,,,,,,,
219,16,Memory,4,,,,,,,00559940519fa.jpg,,,,,,,,,,,,,,,
220,16,Memory,4,,,,,,,sunagetqixeypsysbpn.jpg,,,,,,,,,,,,,,,
221,16,Memory,4,,,,,,,00102931230fa.jpg,,,,,,,,,,,,,,,
222,16,Memory,4,,,,,,,sunbondbduabvijnmch.jpg,,,,,,,,,,,,,,,
223,16,Memory,4,,,,,,,sunaajspcoepticvplv.jpg,,,,,,,,,,,,,,,
224,16,Memory,4,,,,,,,00847940307fa.jpg,,,,,,,,,,,,,,,
225,16,Memory,4,,,,,,,00794960620fa.jpg,,,,,,,,,,,,,,,
226,16,Memory,4,,,,,,,00125931230fa.jpg,,,,,,,,,,,,,,,
227,16,Memory,4,,,,,,,sunbpvgllfdejxcpjqp.jpg,,,,,,,,,,,,,,,
228,16,Memory,4,,,,,,,sunagutjvdvnhxejerz.jpg,,,,,,,,,,,,,,,
229,16,Memory,4,,,,,,,00270940422fb.jpg,,,,,,,,,,,,,,,
230,16,Memory,4,,,,,,,00829940307fa.jpg,,,,,,,,,,,,,,,
231,16,Memory,4,,,,,,,sunabyfxcxhdebvdyfd.jpg,,,,,,,,,,,,,,,
232,16,Memory,4,,,,,,,00931960627fa.jpg,,,,,,,,,,,,,,,
233,16,Memory,4,,,,,,,sunacjkmnpawfzbyvae.jpg,,,,,,,,,,,,,,,
234,16,Memory,4,,,,,,,sunaqyylsngywqzwfmx.jpg,,,,,,,,,,,,,,,
235,16,Memory,4,,,,,,,00996960627fa.jpg,,,,,,,,,,,,,,,
236,16,Memory,4,,,,,,,sunaivdjruhkrfywfed.jpg,,,,,,,,,,,,,,,
237,16,Memory,4,,,,,,,sunaajayojuslbbnneg.jpg,,,,,,,,,,,,,,,
238,16,Memory,4,,,,,,,sunbasypfgzjtomktmu.jpg,,,,,,,,,,,,,,,
239,16,Memory,4,,,,,,,sunagjzcrjvmxzqzljx.jpg,,,,,,,,,,,,,,,
240,16,Memory,4,,,,,,,sunahwgbqkqcrwprgvh.jpg,,,,,,,,,,,,,,,
241,16,Memory,4,,,,,,,00970960627fa.jpg,,,,,,,,,,,,,,,
242,16,Memory,4,,,,,,,00799941205fa.jpg,,,,,,,,,,,,,,,
243,16,Memory,4,,,,,,,00097931230fa.jpg,,,,,,,,,,,,,,,
244,16,Memory,4,,,,,,,sunaalltyvjhbzhkmvg.jpg,,,,,,,,,,,,,,,
245,16,Memory,4,,,,,,,00482940519fa.jpg,,,,,,,,,,,,,,,
246,16,Memory,4,,,,,,,sunagtqhhwxjeuxdebe.jpg,,,,,,,,,,,,,,,
247,16,Memory,4,,,,,,,00801941205fa.jpg,,,,,,,,,,,,,,,
248,16,Memory,4,,,,,,,00938960627fa.jpg,,,,,,,,,,,,,,,
249,16,Memory,4,,,,,,,sunacdnquypmsshhsbk.jpg,,,,,,,,,,,,,,,
250,16,Presentation,5,00762941201fa_sunafgzgbisbopcyslr.jpg,00908960530fa_sunanwjjyqqwzqrqagd.jpg,,,,,,,>,Face,,,,,1,,,,,,,o
251,16,Presentation,5,00966960627fa_sunaygrtwrwfezqjizr.jpg,00221940128fa_sunabcfpwlpolnutyju.jpg,,,,,,,<,Place,,,,,1,,,,,,,x
252,16,Presentation,5,00854940307fa_sunaiwduelojtwaqeyh.jpg,00260940128fa_sunabgfhvifeijihhjw.jpg,,,,,,,<,Face,,,,,1,,,,,,,x
253,16,Presentation,5,00242940128fa_sunabcuurugvxwparpk.jpg,00142931230fb_sunaapxkpvrhpjplsok.jpg,,,,,,,>,Place,,,,,1,,,,,,,o
254,16,Presentation,5,00785941205fa_sunaglqunwuycxydmyu.jpg,00968960627fa_sunbagfpovqwbuexqdn.jpg,,,,,,,>,Face,,,,,1,,,,,,,x
255,16,Presentation,5,00138931230fa_sunaapfaivxqoynnwwp.jpg,00933960627fa_sunapwjkcxdaeqehfql.jpg,,,,,,,>,Place,,,,,1,,,,,,,x
256,16,Presentation,5,00675941121fa_sunadoxcchtmsxewsau.jpg,00967960627fa_sunbaejotfklekvpxcz.jpg,,,,,,,<,Place,,,,,1,,,,,,,x
257,16,Presentation,5,00807941205fa_sunahawfngukizslzsd.jpg,00792941205fa_sunagsiwrmuixqgdimb.jpg,,,,,,,>,Face,,,,,1,,,,,,,o
258,16,Presentation,5,00271940422fa_sunabmbnddafmywtjjj.jpg,00993960627fa_sunbprywzqxjcezkbch.jpg,,,,,,,<,Place,,,,,1,,,,,,,o
259,16,Presentation,5,00076931230fa_sunaafewhewbxmjiurz.jpg,00902960530fa_sunanaacmmosxrfwmvl.jpg,,,,,,,<,Face,,,,,1,,,,,,,x
260,16,Memory,5,,,,,,,sunaayehfdqcyxggsej.jpg,,,,,,,,,,,,,,,
261,16,Memory,5,,,,,,,sunaddsaeicthrfbkhe.jpg,,,,,,,,,,,,,,,
262,16,Memory,5,,,,,,,00149931230fa.jpg,,,,,,,,,,,,,,,
263,16,Memory,5,,,,,,,sunaizgnnplsvajzhkc.jpg,,,,,,,,,,,,,,,
264,16,Memory,5,,,,,,,sunadbdqzigzwipuipr.jpg,,,,,,,,,,,,,,,
265,16,Memory,5,,,,,,,sunablfqiwfqomjarht.jpg,,,,,,,,,,,,,,,
266,16,Memory,5,,,,,,,00142931230fb.jpg,,,,,,,,,,,,,,,
267,16,Memory,5,,,,,,,00635941031fa.jpg,,,,,,,,,,,,,,,
268,16,Memory,5,,,,,,,sunagdzlvkqtpnfxfcg.jpg,,,,,,,,,,,,,,,
269,16,Memory,5,,,,,,,00267940128fb.jpg,,,,,,,,,,,,,,,
270,16,Memory,5,,,,,,,00260940128fa.jpg,,,,,,,,,,,,,,,
271,16,Memory,5,,,,,,,sunabcuurugvxwparpk.jpg,,,,,,,,,,,,,,,
272,16,Memory,5,,,,,,,sunabkmdplkdbvxriff.jpg,,,,,,,,,,,,,,,
273,16,Memory,5,,,,,,,00265940128fb.jpg,,,,,,,,,,,,,,,
274,16,Memory,5,,,,,,,sunaglqunwuycxydmyu.jpg,,,,,,,,,,,,,,,
275,16,Memory,5,,,,,,,00076931230fa.jpg,,,,,,,,,,,,,,,
276,16,Memory,5,,,,,,,sunaafewhewbxmjiurz.jpg,,,,,,,,,,,,,,,
277,16,Memory,5,,,,,,,00779941205fa.jpg,,,,,,,,,,,,,,,
278,16,Memory,5,,,,,,,sunbprywzqxjcezkbch.jpg,,,,,,,,,,,,,,,
279,16,Memory,5,,,,,,,sunabgfhvifeijihhjw.jpg,,,,,,,,,,,,,,,
280,16,Memory,5,,,,,,,sunabmbnddafmywtjjj.jpg,,,,,,,,,,,,,,,
281,16,Memory,5,,,,,,,sunagsiwrmuixqgdimb.jpg,,,,,,,,,,,,,,,
282,16,Memory,5,,,,,,,00792941205fa.jpg,,,,,,,,,,,,,,,
283,16,Memory,5,,,,,,,00862940307fa.jpg,,,,,,,,,,,,,,,
284,16,Memory,5,,,,,,,sunaauglwmctnkxyird.jpg,,,,,,,,,,,,,,,
285,16,Memory,5,,,,,,,sunanwjjyqqwzqrqagd.jpg,,,,,,,,,,,,,,,
286,16,Memory,5,,,,,,,00908960530fa.jpg,,,,,,,,,,,,,,,
287,16,Memory,5,,,,,,,00854940307fa.jpg,,,,,,,,,,,,,,,
288,16,Memory,5,,,,,,,00271940422fa.jpg,,,,,,,,,,,,,,,
289,16,Memory,5,,,,,,,00242940128fa.jpg,,,,,,,,,,,,,,,
290,16,Memory,5,,,,,,,00773960620fa.jpg,,,,,,,,,,,,,,,
291,16,Memory,5,,,,,,,00785941205fa.jpg,,,,,,,,,,,,,,,
292,16,Memory,5,,,,,,,00993960627fa.jpg,,,,,,,,,,,,,,,
293,16,Memory,5,,,,,,,sunaakjaacuzulqckgl.jpg,,,,,,,,,,,,,,,
294,16,Memory,5,,,,,,,00631940928fa.jpg,,,,,,,,,,,,,,,
295,16,Memory,5,,,,,,,00112931230fa.jpg,,,,,,,,,,,,,,,
296,16,Memory,5,,,,,,,sunaapxkpvrhpjplsok.jpg,,,,,,,,,,,,,,,
297,16,Memory,5,,,,,,,00194940128fb.jpg,,,,,,,,,,,,,,,
298,16,Memory,5,,,,,,,sunaiwduelojtwaqeyh.jpg,,,,,,,,,,,,,,,
299,16,Memory,5,,,,,,,sunafvsxtzaizojicxx.jpg,,,,,,,,,,,,,,,
300,16,Presentation,6,00239940128fa_sunabctlikybqabezjv.jpg,00568940928fa_sunacsdhbbsybcyxnel.jpg,,,,,,,<,Face,,,,,1,,,,,,,o
301,16,Presentation,6,00120931230fa_sunaakxgygjfqrzpyoz.jpg,00574940928fa_sunacvbrcejzwmcgnoq.jpg,,,,,,,<,Place,,,,,1,,,,,,,o
302,16,Presentation,6,01009960627fa_sunbxzweleltykebgan.jpg,00124931230fa_sunaalhlvzmjmitybdn.jpg,,,,,,,>,Face,,,,,1,,,,,,,x
303,16,Presentation,6,00810941205fa_sunahctntqrunhdxhtb.jpg,00092931230fa_sunaaheqzstzxuadglu.jpg,,,,,,,<,Face,,,,,0,,,,,,,x
304,16,Presentation,6,00877960530fa_sunajxpkuhbizeveguy.jpg,00564940928fa_sunacmpqqfbsvlzinzl.jpg,,,,,,,>,Place,,,,,0,,,,,,,o
305,16,Presentation,6,00609940928fa_sunacycdoztxoluxjyk.jpg,00140931230fb_sunaapllqyqlykszopd.jpg,,,,,,,<,Place,,,,,1,,,,,,,x
306,16,Presentation,6,00882960530fa_sunaknlirqjqiwbbeeg.jpg,00481940519fa_sunabxsuqbleluwczoy.jpg,,,,,,,>,Face,,,,,1,,,,,,,o
307,16,Presentation,6,00983960627fa_sunbfyvfqiimvdaxlqn.jpg,00725941201fa_sunaefgzwiramypjvtd.jpg,,,,,,,>,Place,,,,,1,,,,,,,o
308,16,Presentation,6,00978960627fa_sunbddbivbptlrlauhy.jpg,00787941205fa_sunagmwxxwymwojbvgi.jpg,,,,,,,<,Face,,,,,0,,,,,,,x
309,16,Presentation,6,00498960627fa_sunabzjxlmkwnwzimua.jpg,00730960620fa_sunaekgzpfilgjxpeyq.jpg,,,,,,,>,Place,,,,,1,,,,,,,x
310,16,Memory,6,,,,,,,sunacycdoztxoluxjyk.jpg,,,,,,,,,,,,,,,
311,16,Memory,6,,,,,,,sunaccdtpgenvcbcbcf.jpg,,,,,,,,,,,,,,,
312,16,Memory,6,,,,,,,sunacvbrcejzwmcgnoq.jpg,,,,,,,,,,,,,,,
313,16,Memory,6,,,,,,,sunaeouogqolxvggaoq.jpg,,,,,,,,,,,,,,,
314,16,Memory,6,,,,,,,00124931230fa.jpg,,,,,,,,,,,,,,,
315,16,Memory,6,,,,,,,sunbbxkanhzjgbwyxqs.jpg,,,,,,,,,,,,,,,
316,16,Memory,6,,,,,,,sunbddbivbptlrlauhy.jpg,,,,,,,,,,,,,,,
317,16,Memory,6,,,,,,,sunabrwnslxalcohfre.jpg,,,,,,,,,,,,,,,
318,16,Memory,6,,,,,,,sunaobtizabegtwfwul.jpg,,,,,,,,,,,,,,,
319,16,Memory,6,,,,,,,sunaalcrrdbjgdztbiz.jpg,,,,,,,,,,,,,,,
320,16,Memory,6,,,,,,,00787941205fa.jpg,,,,,,,,,,,,,,,
321,16,Memory,6,,,,,,,sunacsdhbbsybcyxnel.jpg,,,,,,,,,,,,,,,
322,16,Memory,6,,,,,,,00481940519fa.jpg,,,,,,,,,,,,,,,
323,16,Memory,6,,,,,,,sunaalhlvzmjmitybdn.jpg,,,,,,,,,,,,,,,
324,16,Memory,6,,,,,,,sunbloeoiozwjjsiamp.jpg,,,,,,,,,,,,,,,
325,16,Memory,6,,,,,,,00568940928fa.jpg,,,,,,,,,,,,,,,
326,16,Memory,6,,,,,,,00123931230fb.jpg,,,,,,,,,,,,,,,
327,16,Memory,6,,,,,,,00574940928fa.jpg,,,,,,,,,,,,,,,
328,16,Memory,6,,,,,,,sunbxzweleltykebgan.jpg,,,,,,,,,,,,,,,
329,16,Memory,6,,,,,,,00768941205fa.jpg,,,,,,,,,,,,,,,
330,16,Memory,6,,,,,,,00887960530.jpg,,,,,,,,,,,,,,,
331,16,Memory,6,,,,,,,sunawksfbacycuhbrsc.jpg,,,,,,,,,,,,,,,
332,16,Memory,6,,,,,,,01009960627fa.jpg,,,,,,,,,,,,,,,
333,16,Memory,6,,,,,,,sunajxpkuhbizeveguy.jpg,,,,,,,,,,,,,,,
334,16,Memory,6,,,,,,,sunbfyvfqiimvdaxlqn.jpg,,,,,,,,,,,,,,,
335,16,Memory,6,,,,,,,00960960627fa.jpg,,,,,,,,,,,,,,,
336,16,Memory,6,,,,,,,00296940422fa.jpg,,,,,,,,,,,,,,,
337,16,Memory,6,,,,,,,sunalcrtwiycqobgelp.jpg,,,,,,,,,,,,,,,
338,16,Memory,6,,,,,,,00745941205fa.jpg,,,,,,,,,,,,,,,
339,16,Memory,6,,,,,,,sunagmwxxwymwojbvgi.jpg,,,,,,,,,,,,,,,
340,16,Memory,6,,,,,,,00977960627fa.jpg,,,,,,,,,,,,,,,
341,16,Memory,6,,,,,,,00532960627fa.jpg,,,,,,,,,,,,,,,
342,16,Memory,6,,,,,,,00877960530fa.jpg,,,,,,,,,,,,,,,
343,16,Memory,6,,,,,,,00983960627fa.jpg,,,,,,,,,,,,,,,
344,16,Memory,6,,,,,,,00987960627fa.jpg,,,,,,,,,,,,,,,
345,16,Memory,6,,,,,,,00978960627fa.jpg,,,,,,,,,,,,,,,
346,16,Memory,6,,,,,,,sunabxsuqbleluwczoy.jpg,,,,,,,,,,,,,,,
347,16,Memory,6,,,,,,,00909960530.jpg,,,,,,,,,,,,,,,
348,16,Memory,6,,,,,,,00609940928fa.jpg,,,,,,,,,,,,,,,
349,16,Memory,6,,,,,,,sunafkmnlytenlsywia.jpg,,,,,,,,,,,,,,,
350,16,Presentation,7,00834940307fa_sunaibnpvhkdpdnzcnz.jpg,00210940128fb_sunabanoxjtqxamkucc.jpg,,,,,,,>,Place,,,,,1,,,,,,,o
351,16,Presentation,7,00288940422fa_sunabppokiyglaxpcha.jpg,00129931230fb_sunaamsdyakblkfoydx.jpg,,,,,,,<,Face,,,,,1,,,,,,,x
352,16,Presentation,7,00144931230fb_sunaathajvxrgptwhoj.jpg,00581940928fa_sunacvzhvcksnwqcqbw.jpg,,,,,,,<,Place,,,,,1,,,,,,,x
353,16,Presentation,7,00292940422fb_sunabrjdpmoedcdjbpo.jpg,00093931230fa_sunaahwnmtqsrhocysw.jpg,,,,,,,<,Face,,,,,1,,,,,,,o
354,16,Presentation,7,00065931230fb_sunaaemixhfquhnxxlm.jpg,00266940128fb_sunabkngeblodihjvbk.jpg,,,,,,,>,Face,,,,,1,,,,,,,x
355,16,Presentation,7,00086931230fa_sunaafynehyrzpsoaml.jpg,00777941205fa_sunagcinxkccdtrjmlv.jpg,,,,,,,>,Place,,,,,1,,,,,,,o
356,16,Presentation,7,00719960620fa_sunadzuvtmtmgupotmf.jpg,00753941201fa_sunafcofuuzebuadceo.jpg,,,,,,,<,Place,,,,,1,,,,,,,o
357,16,Presentation,7,00147931230fb_sunaatpkocdkocwxpkb.jpg,00790941205fa_sunagpjzsbltchlwvou.jpg,,,,,,,>,Face,,,,,1,,,,,,,x
358,16,Presentation,7,00827940307fa_sunahtfxgsrmkiulnwk.jpg,00576941031fa_sunacvjlsylseoghjup.jpg,,,,,,,<,Place,,,,,0,,,,,,,x
359,16,Presentation,7,00676941121fa_sunadpnqovzckyikrjo.jpg,00062931230fb_sunaaelotvjgibjtjhs.jpg,,,,,,,>,Face,,,,,0,,,,,,,o
360,16,Memory,7,,,,,,,00634940928fa.jpg,,,,,,,,,,,,,,,
361,16,Memory,7,,,,,,,sunadcphrizvfpljiqt.jpg,,,,,,,,,,,,,,,
362,16,Memory,7,,,,,,,00086931230fa.jpg,,,,,,,,,,,,,,,
363,16,Memory,7,,,,,,,00290940422fa.jpg,,,,,,,,,,,,,,,
364,16,Memory,7,,,,,,,sunbbgtoeuzierkkajt.jpg,,,,,,,,,,,,,,,
365,16,Memory,7,,,,,,,sunahedfrhtcwpneund.jpg,,,,,,,,,,,,,,,
366,16,Memory,7,,,,,,,sunadzuvtmtmgupotmf.jpg,,,,,,,,,,,,,,,
367,16,Memory,7,,,,,,,sunaahwnmtqsrhocysw.jpg,,,,,,,,,,,,,,,
368,16,Memory,7,,,,,,,sunaamsdyakblkfoydx.jpg,,,,,,,,,,,,,,,
369,16,Memory,7,,,,,,,00719960620fa.jpg,,,,,,,,,,,,,,,
370,16,Memory,7,,,,,,,00973960627fa.jpg,,,,,,,,,,,,,,,
371,16,Memory,7,,,,,,,00811960530fa.jpg,,,,,,,,,,,,,,,
372,16,Memory,7,,,,,,,sunagpjzsbltchlwvou.jpg,,,,,,,,,,,,,,,
373,16,Memory,7,,,,,,,00093931230fa.jpg,,,,,,,,,,,,,,,
374,16,Memory,7,,,,,,,00742941201fa.jpg,,,,,,,,,,,,,,,
375,16,Memory,7,,,,,,,00129931230fb.jpg,,,,,,,,,,,,,,,
376,16,Memory,7,,,,,,,00630941031fa.jpg,,,,,,,,,,,,,,,
377,16,Memory,7,,,,,,,sunabkngeblodihjvbk.jpg,,,,,,,,,,,,,,,
378,16,Memory,7,,,,,,,sunabyvpwkgsjtijdwj.jpg,,,,,,,,,,,,,,,
379,16,Memory,7,,,,,,,sunaafynehyrzpsoaml.jpg,,,,,,,,,,,,,,,
380,16,Memory,7,,,,,,,00790941205fa.jpg,,,,,,,,,,,,,,,
381,16,Memory,7,,,,,,,00266940128fb.jpg,,,,,,,,,,,,,,,
382,16,Memory,7,,,,,,,00892960530fa.jpg,,,,,,,,,,,,,,,
383,16,Memory,7,,,,,,,sunbvzmgrdvaakxusbu.jpg,,,,,,,,,,,,,,,
384,16,Memory,7,,,,,,,sunabppokiyglaxpcha.jpg,,,,,,,,,,,,,,,
385,16,Memory,7,,,,,,,01000960627fa.jpg,,,,,,,,,,,,,,,
386,16,Memory,7,,,,,,,00144931230fb.jpg,,,,,,,,,,,,,,,
387,16,Memory,7,,,,,,,00728941205fa.jpg,,,,,,,,,,,,,,,
388,16,Memory,7,,,,,,,sunabrjdpmoedcdjbpo.jpg,,,,,,,,,,,,,,,
389,16,Memory,7,,,,,,,sunaathajvxrgptwhoj.jpg,,,,,,,,,,,,,,,
390,16,Memory,7,,,,,,,00210940128fb.jpg,,,,,,,,,,,,,,,
391,16,Memory,7,,,,,,,00288940422fa.jpg,,,,,,,,,,,,,,,
392,16,Memory,7,,,,,,,sunaejnvnpltdmhbcsi.jpg,,,,,,,,,,,,,,,
393,16,Memory,7,,,,,,,sunabanoxjtqxamkucc.jpg,,,,,,,,,,,,,,,
394,16,Memory,7,,,,,,,sunabqowuarvqqcnipn.jpg,,,,,,,,,,,,,,,
395,16,Memory,7,,,,,,,00292940422fb.jpg,,,,,,,,,,,,,,,
396,16,Memory,7,,,,,,,00483940519fa.jpg,,,,,,,,,,,,,,,
397,16,Memory,7,,,,,,,sunaenwuebvlpdmntju.jpg,,,,,,,,,,,,,,,
398,16,Memory,7,,,,,,,sunadakkdovnuzlycvp.jpg,,,,,,,,,,,,,,,
399,16,Memory,7,,,,,,,sunalntxqqadigcletd.jpg,,,,,,,,,,,,,,,
