,Subject,Trial Type,Run,Cued Composite,Uncued Composite,Cued Face,Cued Place,Uncued Face,Uncued Place,Memory Image,Category,Cued Side,Cued Category,Attention Reaction Time (s),Familiarity Reaction Time (s),Familiarity Rating,Attention Level,Cue Validity,Post Invalid Cue,Pre Invalid Cue,Attention Button,Rating History,Stimulus Onset,Stimulus End,Attention Probe
110,2,Memory,2,,,,,,,sunagtqhhwxjeuxdebe.jpg,,,,,1.503,1.0,,,,,,,1550779573.390368,1550779575.552925,
111,2,Memory,2,,,,,,,sunagoufulkpsxrmklt.jpg,,,,,1.265,4.0,,,,,,,1550779576.824541,1550779578.837977,
112,2,Memory,2,,,,,,,sunagdzlvkqtpnfxfcg.jpg,,,,,0.986,4.0,,,,,,,1550779580.126076,1550779582.122082,
113,2,Memory,2,,,,,,,sunafbwnojpqeyzssoe.jpg,,,,,1.733,1.0,,,,,,,1550779583.389012,1550779585.456394,
114,2,Memory,2,,,,,,,00746941201fa.jpg,,,,,1.654,1.0,,,,,,,1550779586.710982,1550779588.924304,
115,2,Memory,2,,,,,,,sunaafjszryxyavjzln.jpg,,,,,1.292,4.0,,,,,,,1550779590.195327,1550779592.363603,
116,2,Memory,2,,,,,,,sunafijbgncijwykrnl.jpg,,,,,1.505,4.0,,,,,,,1550779593.625388,1550779595.726535,
117,2,Memory,2,,,,,,,00620940928fa.jpg,,,,,1.725,1.0,,,,,,,1550779596.992361,1550779599.094038,
118,2,Memory,2,,,,,,,00136931230fb.jpg,,,,,1.173,4.0,,,,,,,1550779600.366475,1550779602.518112,
119,2,Memory,2,,,,,,,sunaetydippjxikifsb.jpg,,,,,1.324,4.0,,,,,,,1550779603.80011,1550779605.965284,
120,2,Memory,2,,,,,,,sunbfzchmomnvzhbxdg.jpg,,,,,1.186,1.0,,,,,,,1550779607.267338,1550779609.251432,
121,2,Memory,2,,,,,,,sunaemcowdozyphwknd.jpg,,,,,1.524,1.0,,,,,,,1550779610.58585,1550779612.63162,
122,2,Memory,2,,,,,,,00650941031fa.jpg,,,,,0.903,4.0,,,,,,,1550779613.882435,1550779615.932264,
123,2,Memory,2,,,,,,,sunacerqowiaeoqkmsq.jpg,,,,,2.266,1.0,,,,,,,1550779617.203881,1550779619.519364,
124,2,Memory,2,,,,,,,00313940422fa.jpg,,,,,0.886,4.0,,,,,,,1550779620.83927,1550779622.953316,
125,2,Memory,2,,,,,,,00752960620fa.jpg,,,,,1.39,1.0,,,,,,,1550779624.224398,1550779626.268891,
126,2,Memory,2,,,,,,,sunaanptmsknhirrzed.jpg,,,,,1.157,4.0,,,,,,,1550779627.520612,1550779629.554144,
127,2,Memory,2,,,,,,,00548940519fa.jpg,,,,,1.8,4.0,,,,,,,1550779630.825786,1550779633.022138,
128,2,Memory,2,,,,,,,sunacypmnujalygkunp.jpg,,,,,1.549,4.0,,,,,,,1550779634.294728,1550779636.339078,
129,2,Memory,2,,,,,,,sunachtuarilwyqnvjx.jpg,,,,,1.766,4.0,,,,,,,1550779637.594322,1550779639.628541,
130,2,Memory,2,,,,,,,00779941205fa.jpg,,,,,1.633,1.0,,,,,,,1550779640.895552,1550779643.04271,
131,2,Memory,2,,,,,,,00557940519fa.jpg,,,,,1.291,4.0,,,,,,,1550779644.292643,1550779646.343725,
132,2,Memory,2,,,,,,,sunahedfrhtcwpneund.jpg,,,,,1.308,1.0,,,,,,,1550779647.615721,1550779649.693792,
133,2,Memory,2,,,,,,,00811960530fa.jpg,,,,,1.687,1.0,,,,,,,1550779650.965121,1550779653.095937,
134,2,Memory,2,,,,,,,00080931230fb.jpg,,,,,1.014,4.0,,,,,,,1550779654.36211,1550779656.396197,
135,2,Memory,2,,,,,,,00862940307fa.jpg,,,,,0.791,1.0,,,,,,,1550779657.702418,1550779659.830489,
136,2,Memory,2,,,,,,,00741941201fa.jpg,,,,,1.234,4.0,,,,,,,1550779661.08524,1550779663.06653,
137,2,Memory,2,,,,,,,00766960620fa.jpg,,,,,1.517,4.0,,,,,,,1550779664.318963,1550779666.515246,
138,2,Memory,2,,,,,,,00984960627fa.jpg,,,,,1.498,4.0,,,,,,,1550779667.788056,1550779669.817647,
139,2,Memory,2,,,,,,,sunaizgnnplsvajzhkc.jpg,,,,,0.0,,,,,,,,1550779671.088204,1550779673.185574,
140,2,Memory,2,,,,,,,00794960620fa.jpg,,,,,1.381,1.0,,,,,,,1550779674.457243,1550779676.470364,
141,2,Memory,2,,,,,,,sunabwjvmoaddlyxfjr.jpg,,,,,1.533,4.0,,,,,,,1550779677.725289,1550779679.787345,
142,2,Memory,2,,,,,,,sunaiwduelojtwaqeyh.jpg,,,,,1.805,4.0,,,,,,,1550779681.041872,1550779683.237982,
143,2,Memory,2,,,,,,,00787960620fa.jpg,,,,,2.009,1.0,,,,,,,1550779684.526687,1550779686.805527,
144,2,Memory,2,,,,,,,sunadikxpvqeabxrvvc.jpg,,,,,0.869,4.0,,,,,,,1550779688.079065,1550779690.14065,
145,2,Memory,2,,,,,,,00921960627fa.jpg,,,,,1.733,1.0,,,,,,,1550779691.474047,1550779693.612426,
146,2,Memory,2,,,,,,,sunapqkpqdfvxlbqwyo.jpg,,,,,0.853,4.0,,,,,,,1550779694.896674,1550779697.009261,
147,2,Memory,2,,,,,,,00944960627fa.jpg,,,,,1.74,1.0,,,,,,,1550779698.28185,1550779700.278088,
148,2,Memory,2,,,,,,,sunasbbntuiheekqyaq.jpg,,,,,1.006,1.0,,,,,,,1550779701.531406,1550779703.645521,
149,2,Memory,2,,,,,,,00854940307fa.jpg,,,,,1.65,4.0,,,,,,,1550779704.916348,1550779706.946287,
