,Subject,Trial Type,Run,Cued Composite,Uncued Composite,Cued Face,Cued Place,Uncued Face,Uncued Place,Memory Image,Category,Cued Side,Cued Category,Attention Response Time (s),Familiarity Reaction Time (s),Familiarity Rating,Attention Level,Cue Validity,Post Invalid Cue,Pre Invalid Cue,Attention Button,Rating History,Stimulus Onset,Stimulus End,Attention Probe
0,1,Presentation,0,01009960627fa_sunbxzweleltykebgan.jpg,00730960620fa_sunaekgzpfilgjxpeyq.jpg,01009960627fa.jpg,sunbxzweleltykebgan.jpg,00730960620fa.jpg,sunaekgzpfilgjxpeyq.jpg,,,>,Place,,,,,1,,,,,,,o
1,1,Presentation,0,00557940519fa_sunachtuarilwyqnvjx.jpg,00634940928fa_sunadcphrizvfpljiqt.jpg,00557940519fa.jpg,sunachtuarilwyqnvjx.jpg,00634940928fa.jpg,sunadcphrizvfpljiqt.jpg,,,>,Place,,,,,1,,,,,,,o
2,1,Presentation,0,00093931230fa_sunaahwnmtqsrhocysw.jpg,00568940928fa_sunacsdhbbsybcyxnel.jpg,00093931230fa.jpg,sunaahwnmtqsrhocysw.jpg,00568940928fa.jpg,sunacsdhbbsybcyxnel.jpg,,,>,Place,,,,,1,,,,,,,x
3,1,Presentation,0,00848940307fa_sunaivdylrawbmhryfp.jpg,00747941201fa_sunaeutbrtswvsozxyk.jpg,00848940307fa.jpg,sunaivdylrawbmhryfp.jpg,00747941201fa.jpg,sunaeutbrtswvsozxyk.jpg,,,>,Place,,,,,1,,,,,,,x
4,1,Presentation,0,00235940128fb_sunabclssnoeuigtawp.jpg,00745941205fa_sunaeouogqolxvggaoq.jpg,00235940128fb.jpg,sunabclssnoeuigtawp.jpg,00745941205fa.jpg,sunaeouogqolxvggaoq.jpg,,,>,Place,,,,,1,,,,,,,o
5,1,Presentation,0,00973960627fa_sunbbgtoeuzierkkajt.jpg,00211940128fa_sunabasphceswhwwqvv.jpg,00973960627fa.jpg,sunbbgtoeuzierkkajt.jpg,00211940128fa.jpg,sunabasphceswhwwqvv.jpg,,,>,Place,,,,,1,,,,,,,x
6,1,Presentation,0,00797960620fa_sunagufzbeteqdjxais.jpg,00971960627fa_sunbbegcweqnetpdlrh.jpg,00797960620fa.jpg,sunagufzbeteqdjxais.jpg,00971960627fa.jpg,sunbbegcweqnetpdlrh.jpg,,,>,Place,,,,,1,,,,,,,x
7,1,Presentation,0,00776941205fa_sunafxokyavhgptyfye.jpg,00968960627fa_sunbagfpovqwbuexqdn.jpg,00776941205fa.jpg,sunafxokyavhgptyfye.jpg,00968960627fa.jpg,sunbagfpovqwbuexqdn.jpg,,,>,Place,,,,,1,,,,,,,o
8,1,Presentation,0,00874940307fa_sunajtrfunvzdfticna.jpg,00065931230fb_sunaaemixhfquhnxxlm.jpg,00874940307fa.jpg,sunajtrfunvzdfticna.jpg,00065931230fb.jpg,sunaaemixhfquhnxxlm.jpg,,,>,Place,,,,,1,,,,,,,x
9,1,Presentation,0,00265940128fb_sunabkmdplkdbvxriff.jpg,00910960530fa_sunaofikylqtxphvdem.jpg,00265940128fb.jpg,sunabkmdplkdbvxriff.jpg,00910960530fa.jpg,sunaofikylqtxphvdem.jpg,,,>,Place,,,,,0,,,,,,,x
10,1,Memory,0,,,,,,,00868960307fa.jpg,,,,,,,,,,,,,,,
11,1,Memory,0,,,,,,,sunabjzyxcjnmztdonj.jpg,,,,,,,,,,,,,,,
12,1,Memory,0,,,,,,,sunabasphceswhwwqvv.jpg,,,,,,,,,,,,,,,
13,1,Memory,0,,,,,,,sunaavjinpnkappuonm.jpg,,,,,,,,,,,,,,,
14,1,Memory,0,,,,,,,00264940128fb.jpg,,,,,,,,,,,,,,,
15,1,Memory,0,,,,,,,00776941205fa.jpg,,,,,,,,,,,,,,,
16,1,Memory,0,,,,,,,sunahmhrncocyhsjpxk.jpg,,,,,,,,,,,,,,,
17,1,Memory,0,,,,,,,00797960620fa.jpg,,,,,,,,,,,,,,,
18,1,Memory,0,,,,,,,00109931230fa.jpg,,,,,,,,,,,,,,,
19,1,Memory,0,,,,,,,00089931230fa.jpg,,,,,,,,,,,,,,,
20,1,Memory,0,,,,,,,sunaagcpoejbuzyvddd.jpg,,,,,,,,,,,,,,,
21,1,Memory,0,,,,,,,sunbagfpovqwbuexqdn.jpg,,,,,,,,,,,,,,,
22,1,Memory,0,,,,,,,sunagufzbeteqdjxais.jpg,,,,,,,,,,,,,,,
23,1,Memory,0,,,,,,,sunaamdjwemxpmmtypi.jpg,,,,,,,,,,,,,,,
24,1,Memory,0,,,,,,,00971960627fa.jpg,,,,,,,,,,,,,,,
25,1,Memory,0,,,,,,,00634940928fa.jpg,,,,,,,,,,,,,,,
26,1,Memory,0,,,,,,,00065931230fb.jpg,,,,,,,,,,,,,,,
27,1,Memory,0,,,,,,,sunajjxttslobudoqbv.jpg,,,,,,,,,,,,,,,
28,1,Memory,0,,,,,,,00783941205fa.jpg,,,,,,,,,,,,,,,
29,1,Memory,0,,,,,,,sunaajuzribjrizdshh.jpg,,,,,,,,,,,,,,,
30,1,Memory,0,,,,,,,00093931230fa.jpg,,,,,,,,,,,,,,,
31,1,Memory,0,,,,,,,00211940128fa.jpg,,,,,,,,,,,,,,,
32,1,Memory,0,,,,,,,sunahiphsekjihkafsl.jpg,,,,,,,,,,,,,,,
33,1,Memory,0,,,,,,,00968960627fa.jpg,,,,,,,,,,,,,,,
34,1,Memory,0,,,,,,,00973960627fa.jpg,,,,,,,,,,,,,,,
35,1,Memory,0,,,,,,,sunachtuarilwyqnvjx.jpg,,,,,,,,,,,,,,,
36,1,Memory,0,,,,,,,00126931230fb.jpg,,,,,,,,,,,,,,,
37,1,Memory,0,,,,,,,sunbbgtoeuzierkkajt.jpg,,,,,,,,,,,,,,,
38,1,Memory,0,,,,,,,sunagjeesomrwjsfqie.jpg,,,,,,,,,,,,,,,
39,1,Memory,0,,,,,,,sunaahwnmtqsrhocysw.jpg,,,,,,,,,,,,,,,
40,1,Memory,0,,,,,,,sunalqmfgeadpqsyzpd.jpg,,,,,,,,,,,,,,,
41,1,Memory,0,,,,,,,00815941205fa.jpg,,,,,,,,,,,,,,,
42,1,Memory,0,,,,,,,00162931230fb.jpg,,,,,,,,,,,,,,,
43,1,Memory,0,,,,,,,00557940519fa.jpg,,,,,,,,,,,,,,,
44,1,Memory,0,,,,,,,sunbbegcweqnetpdlrh.jpg,,,,,,,,,,,,,,,
45,1,Memory,0,,,,,,,sunaaemixhfquhnxxlm.jpg,,,,,,,,,,,,,,,
46,1,Memory,0,,,,,,,00894960620fa.jpg,,,,,,,,,,,,,,,
47,1,Memory,0,,,,,,,sunadcphrizvfpljiqt.jpg,,,,,,,,,,,,,,,
48,1,Memory,0,,,,,,,sunafxokyavhgptyfye.jpg,,,,,,,,,,,,,,,
49,1,Memory,0,,,,,,,00816941205fa.jpg,,,,,,,,,,,,,,,
50,1,Presentation,1,00719941201fa_sunadvithllcgmfxsrn.jpg,00681941121fa_sunadqmjrhfjyuzyvdd.jpg,00719941201fa.jpg,sunadvithllcgmfxsrn.jpg,00681941121fa.jpg,sunadqmjrhfjyuzyvdd.jpg,,,<,Face,,,,,1,,,,,,,o
51,1,Presentation,1,00847940307fa_sunaivdjruhkrfywfed.jpg,00675941121fa_sunadoxcchtmsxewsau.jpg,00847940307fa.jpg,sunaivdjruhkrfywfed.jpg,00675941121fa.jpg,sunadoxcchtmsxewsau.jpg,,,<,Face,,,,,1,,,,,,,x
52,1,Presentation,1,00705960530fa_sunaduslxfzlbxlllnz.jpg,00694941121fa_sunadrmfzmstgdjdcod.jpg,00705960530fa.jpg,sunaduslxfzlbxlllnz.jpg,00694941121fa.jpg,sunadrmfzmstgdjdcod.jpg,,,<,Face,,,,,1,,,,,,,o
53,1,Presentation,1,00096931230fa_sunaaiqiqcggrskoqgy.jpg,00133931230fa_sunaanlwnpqndclffxt.jpg,00096931230fa.jpg,sunaaiqiqcggrskoqgy.jpg,00133931230fa.jpg,sunaanlwnpqndclffxt.jpg,,,<,Face,,,,,0,,,,,,,x
54,1,Presentation,1,00086931230fa_sunaafynehyrzpsoaml.jpg,00306940422fa_sunabueyoajufbkraki.jpg,00086931230fa.jpg,sunaafynehyrzpsoaml.jpg,00306940422fa.jpg,sunabueyoajufbkraki.jpg,,,<,Face,,,,,1,,,,,,,o
55,1,Presentation,1,00926960627Fa_sunapqwoeotxshkukbh.jpg,00841940307fa_sunaisiwfgppimtnmxl.jpg,00926960627Fa.jpg,sunapqwoeotxshkukbh.jpg,00841940307fa.jpg,sunaisiwfgppimtnmxl.jpg,,,<,Face,,,,,1,,,,,,,o
56,1,Presentation,1,00138931230fa_sunaapfaivxqoynnwwp.jpg,00963960627fa_sunayaepykrqvenaqqy.jpg,00138931230fa.jpg,sunaapfaivxqoynnwwp.jpg,00963960627fa.jpg,sunayaepykrqvenaqqy.jpg,,,<,Face,,,,,1,,,,,,,o
57,1,Presentation,1,00564940928fa_sunacmpqqfbsvlzinzl.jpg,00997960627fa_sunbtpilbhhbmhmeuzq.jpg,00564940928fa.jpg,sunacmpqqfbsvlzinzl.jpg,00997960627fa.jpg,sunbtpilbhhbmhmeuzq.jpg,,,<,Face,,,,,1,,,,,,,o
58,1,Presentation,1,00154931230fa_sunaauueuhhvklldjik.jpg,00772941201fa_sunafpfpiiujzoesnqg.jpg,00154931230fa.jpg,sunaauueuhhvklldjik.jpg,00772941201fa.jpg,sunafpfpiiujzoesnqg.jpg,,,<,Face,,,,,1,,,,,,,x
59,1,Presentation,1,00581940928fa_sunacvzhvcksnwqcqbw.jpg,00866940307fa_sunajbwkywmsqkldfml.jpg,00581940928fa.jpg,sunacvzhvcksnwqcqbw.jpg,00866940307fa.jpg,sunajbwkywmsqkldfml.jpg,,,<,Face,,,,,1,,,,,,,x
60,1,Memory,1,,,,,,,sunaauueuhhvklldjik.jpg,,,,,,,,,,,,,,,
61,1,Memory,1,,,,,,,sunaivdjruhkrfywfed.jpg,,,,,,,,,,,,,,,
62,1,Memory,1,,,,,,,00154931230fa.jpg,,,,,,,,,,,,,,,
63,1,Memory,1,,,,,,,00681941121fa.jpg,,,,,,,,,,,,,,,
64,1,Memory,1,,,,,,,00086931230fa.jpg,,,,,,,,,,,,,,,
65,1,Memory,1,,,,,,,01007960627fa.jpg,,,,,,,,,,,,,,,
66,1,Memory,1,,,,,,,sunaanlwnpqndclffxt.jpg,,,,,,,,,,,,,,,
67,1,Memory,1,,,,,,,00993960627fa.jpg,,,,,,,,,,,,,,,
68,1,Memory,1,,,,,,,sunadqmjrhfjyuzyvdd.jpg,,,,,,,,,,,,,,,
69,1,Memory,1,,,,,,,sunaddtdkycxbqlpfqa.jpg,,,,,,,,,,,,,,,
70,1,Memory,1,,,,,,,00933960627fa.jpg,,,,,,,,,,,,,,,
71,1,Memory,1,,,,,,,sunaivflshbyfrfzhqb.jpg,,,,,,,,,,,,,,,
72,1,Memory,1,,,,,,,sunbondbduabvijnmch.jpg,,,,,,,,,,,,,,,
73,1,Memory,1,,,,,,,00581940928fa.jpg,,,,,,,,,,,,,,,
74,1,Memory,1,,,,,,,sunbxarcshsnqsefemx.jpg,,,,,,,,,,,,,,,
75,1,Memory,1,,,,,,,sunacypmnujalygkunp.jpg,,,,,,,,,,,,,,,
76,1,Memory,1,,,,,,,sunabueyoajufbkraki.jpg,,,,,,,,,,,,,,,
77,1,Memory,1,,,,,,,sunapwjkcxdaeqehfql.jpg,,,,,,,,,,,,,,,
78,1,Memory,1,,,,,,,00138931230fa.jpg,,,,,,,,,,,,,,,
79,1,Memory,1,,,,,,,sunakodkcslgqhqlgwl.jpg,,,,,,,,,,,,,,,
80,1,Memory,1,,,,,,,00133931230fa.jpg,,,,,,,,,,,,,,,
81,1,Memory,1,,,,,,,sunadrmfzmstgdjdcod.jpg,,,,,,,,,,,,,,,
82,1,Memory,1,,,,,,,sunbprywzqxjcezkbch.jpg,,,,,,,,,,,,,,,
83,1,Memory,1,,,,,,,00847940307fa.jpg,,,,,,,,,,,,,,,
84,1,Memory,1,,,,,,,00636941031fa.jpg,,,,,,,,,,,,,,,
85,1,Memory,1,,,,,,,00989960627fa.jpg,,,,,,,,,,,,,,,
86,1,Memory,1,,,,,,,00884960530fa.jpg,,,,,,,,,,,,,,,
87,1,Memory,1,,,,,,,00620940928fa.jpg,,,,,,,,,,,,,,,
88,1,Memory,1,,,,,,,sunaafynehyrzpsoaml.jpg,,,,,,,,,,,,,,,
89,1,Memory,1,,,,,,,00694941121fa.jpg,,,,,,,,,,,,,,,
90,1,Memory,1,,,,,,,00860940307fa.jpg,,,,,,,,,,,,,,,
91,1,Memory,1,,,,,,,sunaapfaivxqoynnwwp.jpg,,,,,,,,,,,,,,,
92,1,Memory,1,,,,,,,sunaatpkocdkocwxpkb.jpg,,,,,,,,,,,,,,,
93,1,Memory,1,,,,,,,sunacvzhvcksnwqcqbw.jpg,,,,,,,,,,,,,,,
94,1,Memory,1,,,,,,,00306940422fa.jpg,,,,,,,,,,,,,,,
95,1,Memory,1,,,,,,,00772941201fa.jpg,,,,,,,,,,,,,,,
96,1,Memory,1,,,,,,,00147931230fb.jpg,,,,,,,,,,,,,,,
97,1,Memory,1,,,,,,,sunaizeyhvjzknwjudw.jpg,,,,,,,,,,,,,,,
98,1,Memory,1,,,,,,,sunafpfpiiujzoesnqg.jpg,,,,,,,,,,,,,,,
99,1,Memory,1,,,,,,,00851940307fa.jpg,,,,,,,,,,,,,,,
100,1,Presentation,2,00741941201fa_sunaemcowdozyphwknd.jpg,00548940519fa_sunacerqowiaeoqkmsq.jpg,00741941201fa.jpg,sunaemcowdozyphwknd.jpg,00548940519fa.jpg,sunacerqowiaeoqkmsq.jpg,,,<,Place,,,,,1,,,,,,,o
101,1,Presentation,2,00900960530fa_sunamlotskmmsjeogby.jpg,00937960627fa_sunaqsolmfydodnakub.jpg,00900960530fa.jpg,sunamlotskmmsjeogby.jpg,00937960627fa.jpg,sunaqsolmfydodnakub.jpg,,,<,Place,,,,,1,,,,,,,x
102,1,Presentation,2,00891960530fa_sunalkiibhqpxfamlll.jpg,00115931230fa_sunaakmxzhuceuiryah.jpg,00891960530fa.jpg,sunalkiibhqpxfamlll.jpg,00115931230fa.jpg,sunaakmxzhuceuiryah.jpg,,,<,Place,,,,,1,,,,,,,o
103,1,Presentation,2,00789960620fa_sunagpancjmxqfazssf.jpg,00780960530fa_sunagetqixeypsysbpn.jpg,00789960620fa.jpg,sunagpancjmxqfazssf.jpg,00780960530fa.jpg,sunagetqixeypsysbpn.jpg,,,<,Place,,,,,1,,,,,,,x
104,1,Presentation,2,00209940128fb_sunabaergayifsgacxt.jpg,00908960530fa_sunanwjjyqqwzqrqagd.jpg,00209940128fb.jpg,sunabaergayifsgacxt.jpg,00908960530fa.jpg,sunanwjjyqqwzqrqagd.jpg,,,<,Place,,,,,1,,,,,,,o
105,1,Presentation,2,00305940422fa_sunabtrnbvpppgczjim.jpg,00895960530fa_sunamczizlzavhzhpay.jpg,00305940422fa.jpg,sunabtrnbvpppgczjim.jpg,00895960530fa.jpg,sunamczizlzavhzhpay.jpg,,,<,Place,,,,,1,,,,,,,x
106,1,Presentation,2,00532960627fa_sunaccdtpgenvcbcbcf.jpg,00889960530fa_sunaletopenvvozhpxc.jpg,00532960627fa.jpg,sunaccdtpgenvcbcbcf.jpg,00889960530fa.jpg,sunaletopenvvozhpxc.jpg,,,<,Place,,,,,0,,,,,,,o
107,1,Presentation,2,00967960627fa_sunbaejotfklekvpxcz.jpg,00885960530fa_sunakwlvxjpddialozd.jpg,00967960627fa.jpg,sunbaejotfklekvpxcz.jpg,00885960530fa.jpg,sunakwlvxjpddialozd.jpg,,,<,Place,,,,,1,,,,,,,o
108,1,Presentation,2,00871940307_sunajrujcsdxmfbssmc.jpg,00073931230fa_sunaafbmtoniaasysgu.jpg,00871940307.jpg,sunajrujcsdxmfbssmc.jpg,00073931230fa.jpg,sunaafbmtoniaasysgu.jpg,,,<,Place,,,,,1,,,,,,,x
109,1,Presentation,2,00308940422fb_sunabwfvcqqidycwypa.jpg,00070940307fa_sunaaeplwsfslcbtojr.jpg,00308940422fb.jpg,sunabwfvcqqidycwypa.jpg,00070940307fa.jpg,sunaaeplwsfslcbtojr.jpg,,,<,Place,,,,,1,,,,,,,o
110,1,Memory,2,,,,,,,00871940307.jpg,,,,,,,,,,,,,,,
111,1,Memory,2,,,,,,,00885960530fa.jpg,,,,,,,,,,,,,,,
112,1,Memory,2,,,,,,,sunanwjjyqqwzqrqagd.jpg,,,,,,,,,,,,,,,
113,1,Memory,2,,,,,,,00308940422fb.jpg,,,,,,,,,,,,,,,
114,1,Memory,2,,,,,,,00936960627fa.jpg,,,,,,,,,,,,,,,
115,1,Memory,2,,,,,,,sunacxtcahkymosigud.jpg,,,,,,,,,,,,,,,
116,1,Memory,2,,,,,,,sunafvcflzhlqloapyo.jpg,,,,,,,,,,,,,,,
117,1,Memory,2,,,,,,,sunakwlvxjpddialozd.jpg,,,,,,,,,,,,,,,
118,1,Memory,2,,,,,,,00746941201fa.jpg,,,,,,,,,,,,,,,
119,1,Memory,2,,,,,,,sunacerqowiaeoqkmsq.jpg,,,,,,,,,,,,,,,
120,1,Memory,2,,,,,,,00937960627fa.jpg,,,,,,,,,,,,,,,
121,1,Memory,2,,,,,,,sunabwfvcqqidycwypa.jpg,,,,,,,,,,,,,,,
122,1,Memory,2,,,,,,,00479940519fa.jpg,,,,,,,,,,,,,,,
123,1,Memory,2,,,,,,,sunalkiibhqpxfamlll.jpg,,,,,,,,,,,,,,,
124,1,Memory,2,,,,,,,00900960530fa.jpg,,,,,,,,,,,,,,,
125,1,Memory,2,,,,,,,sunakgbnzxmfohgehnu.jpg,,,,,,,,,,,,,,,
126,1,Memory,2,,,,,,,sunaetydippjxikifsb.jpg,,,,,,,,,,,,,,,
127,1,Memory,2,,,,,,,sunawksfbacycuhbrsc.jpg,,,,,,,,,,,,,,,
128,1,Memory,2,,,,,,,sunaqgjuuwvdcyiccjt.jpg,,,,,,,,,,,,,,,
129,1,Memory,2,,,,,,,00125931230fa.jpg,,,,,,,,,,,,,,,
130,1,Memory,2,,,,,,,sunarceibpcyacbmfga.jpg,,,,,,,,,,,,,,,
131,1,Memory,2,,,,,,,sunagfvluwixdsozaql.jpg,,,,,,,,,,,,,,,
132,1,Memory,2,,,,,,,sunagpancjmxqfazssf.jpg,,,,,,,,,,,,,,,
133,1,Memory,2,,,,,,,00789960620fa.jpg,,,,,,,,,,,,,,,
134,1,Memory,2,,,,,,,sunaaeplwsfslcbtojr.jpg,,,,,,,,,,,,,,,
135,1,Memory,2,,,,,,,00908960530fa.jpg,,,,,,,,,,,,,,,
136,1,Memory,2,,,,,,,00773941201fa.jpg,,,,,,,,,,,,,,,
137,1,Memory,2,,,,,,,00878960530fa.jpg,,,,,,,,,,,,,,,
138,1,Memory,2,,,,,,,00598941031fa.jpg,,,,,,,,,,,,,,,
139,1,Memory,2,,,,,,,00782941205fa.jpg,,,,,,,,,,,,,,,
140,1,Memory,2,,,,,,,sunaqsolmfydodnakub.jpg,,,,,,,,,,,,,,,
141,1,Memory,2,,,,,,,sunamlotskmmsjeogby.jpg,,,,,,,,,,,,,,,
142,1,Memory,2,,,,,,,00960960627fa.jpg,,,,,,,,,,,,,,,
143,1,Memory,2,,,,,,,sunajrujcsdxmfbssmc.jpg,,,,,,,,,,,,,,,
144,1,Memory,2,,,,,,,sunabxsbfwjccqxxzxq.jpg,,,,,,,,,,,,,,,
145,1,Memory,2,,,,,,,00548940519fa.jpg,,,,,,,,,,,,,,,
146,1,Memory,2,,,,,,,sunaalltyvjhbzhkmvg.jpg,,,,,,,,,,,,,,,
147,1,Memory,2,,,,,,,00891960530fa.jpg,,,,,,,,,,,,,,,
148,1,Memory,2,,,,,,,00070940307fa.jpg,,,,,,,,,,,,,,,
149,1,Memory,2,,,,,,,00939960627fa.jpg,,,,,,,,,,,,,,,
150,1,Presentation,3,00294940422fb_sunabrlndkruqokhury.jpg,01005960627fa_sunbwyuesflwdpqtgoy.jpg,00294940422fb.jpg,sunabrlndkruqokhury.jpg,01005960627fa.jpg,sunbwyuesflwdpqtgoy.jpg,,,>,Face,,,,,1,,,,,,,o
151,1,Presentation,3,00944960627fa_sunasbbntuiheekqyaq.jpg,00804960530fa_sunagwswhkvnsmuszlz.jpg,00944960627fa.jpg,sunasbbntuiheekqyaq.jpg,00804960530fa.jpg,sunagwswhkvnsmuszlz.jpg,,,>,Face,,,,,0,,,,,,,x
152,1,Presentation,3,00562941031fa_sunacjnahdmqfnjfwqx.jpg,00316940422fa_sunabxmguapjekttvwm.jpg,00562941031fa.jpg,sunacjnahdmqfnjfwqx.jpg,00316940422fa.jpg,sunabxmguapjekttvwm.jpg,,,>,Face,,,,,1,,,,,,,x
153,1,Presentation,3,00638941031fa_sunadfktsqjthoglcsm.jpg,00142931230fb_sunaapxkpvrhpjplsok.jpg,00638941031fa.jpg,sunadfktsqjthoglcsm.jpg,00142931230fb.jpg,sunaapxkpvrhpjplsok.jpg,,,>,Face,,,,,1,,,,,,,x
154,1,Presentation,3,00589940928fa_sunacwggadqsfpovdjv.jpg,00063931230fa_sunaaelyvurpntclgau.jpg,00589940928fa.jpg,sunacwggadqsfpovdjv.jpg,00063931230fa.jpg,sunaaelyvurpntclgau.jpg,,,>,Face,,,,,1,,,,,,,x
155,1,Presentation,3,00835940307fa_sunaijsqpvodplbwxkf.jpg,00761960627fa_sunafgdqbclkwfocdhg.jpg,00835940307fa.jpg,sunaijsqpvodplbwxkf.jpg,00761960627fa.jpg,sunafgdqbclkwfocdhg.jpg,,,>,Face,,,,,1,,,,,,,o
156,1,Presentation,3,00791941205fa_sunagrmyoovzukhxmlo.jpg,00882960530fa_sunaknlirqjqiwbbeeg.jpg,00791941205fa.jpg,sunagrmyoovzukhxmlo.jpg,00882960530fa.jpg,sunaknlirqjqiwbbeeg.jpg,,,>,Face,,,,,1,,,,,,,o
157,1,Presentation,3,00609940928fa_sunacycdoztxoluxjyk.jpg,00828940307fa_sunahuynahneraqftyz.jpg,00609940928fa.jpg,sunacycdoztxoluxjyk.jpg,00828940307fa.jpg,sunahuynahneraqftyz.jpg,,,>,Face,,,,,1,,,,,,,x
158,1,Presentation,3,00931960627fa_sunaptrqvaooxfvktvw.jpg,00892960530fa_sunalntxqqadigcletd.jpg,00931960627fa.jpg,sunaptrqvaooxfvktvw.jpg,00892960530fa.jpg,sunalntxqqadigcletd.jpg,,,>,Face,,,,,1,,,,,,,o
159,1,Presentation,3,00777941205fa_sunagcinxkccdtrjmlv.jpg,00129931230fb_sunaamsdyakblkfoydx.jpg,00777941205fa.jpg,sunagcinxkccdtrjmlv.jpg,00129931230fb.jpg,sunaamsdyakblkfoydx.jpg,,,>,Face,,,,,1,,,,,,,o
160,1,Memory,3,,,,,,,sunafgdqbclkwfocdhg.jpg,,,,,,,,,,,,,,,
161,1,Memory,3,,,,,,,sunacycdoztxoluxjyk.jpg,,,,,,,,,,,,,,,
162,1,Memory,3,,,,,,,00944960627fa.jpg,,,,,,,,,,,,,,,
163,1,Memory,3,,,,,,,00129931230fb.jpg,,,,,,,,,,,,,,,
164,1,Memory,3,,,,,,,sunalntxqqadigcletd.jpg,,,,,,,,,,,,,,,
165,1,Memory,3,,,,,,,sunaamsdyakblkfoydx.jpg,,,,,,,,,,,,,,,
166,1,Memory,3,,,,,,,00761960627fa.jpg,,,,,,,,,,,,,,,
167,1,Memory,3,,,,,,,00119931230fb.jpg,,,,,,,,,,,,,,,
168,1,Memory,3,,,,,,,sunagrmyoovzukhxmlo.jpg,,,,,,,,,,,,,,,
169,1,Memory,3,,,,,,,sunasbbntuiheekqyaq.jpg,,,,,,,,,,,,,,,
170,1,Memory,3,,,,,,,00828940307fa.jpg,,,,,,,,,,,,,,,
171,1,Memory,3,,,,,,,00123931230fb.jpg,,,,,,,,,,,,,,,
172,1,Memory,3,,,,,,,sunaqyylsngywqzwfmx.jpg,,,,,,,,,,,,,,,
173,1,Memory,3,,,,,,,00938960627fa.jpg,,,,,,,,,,,,,,,
174,1,Memory,3,,,,,,,sunahuynahneraqftyz.jpg,,,,,,,,,,,,,,,
175,1,Memory,3,,,,,,,00280940422fb.jpg,,,,,,,,,,,,,,,
176,1,Memory,3,,,,,,,sunagtumacdlmciqamz.jpg,,,,,,,,,,,,,,,
177,1,Memory,3,,,,,,,00931960627fa.jpg,,,,,,,,,,,,,,,
178,1,Memory,3,,,,,,,00818940307fa.jpg,,,,,,,,,,,,,,,
179,1,Memory,3,,,,,,,00294940422fb.jpg,,,,,,,,,,,,,,,
180,1,Memory,3,,,,,,,00795941205fa.jpg,,,,,,,,,,,,,,,
181,1,Memory,3,,,,,,,sunaakvmbftkrgqhjun.jpg,,,,,,,,,,,,,,,
182,1,Memory,3,,,,,,,sunacsaovnjezqwbykf.jpg,,,,,,,,,,,,,,,
183,1,Memory,3,,,,,,,sunahpblecxtmuzkmxb.jpg,,,,,,,,,,,,,,,
184,1,Memory,3,,,,,,,00892960530fa.jpg,,,,,,,,,,,,,,,
185,1,Memory,3,,,,,,,00648941031fa.jpg,,,,,,,,,,,,,,,
186,1,Memory,3,,,,,,,00791941205fa.jpg,,,,,,,,,,,,,,,
187,1,Memory,3,,,,,,,00276940422fa.jpg,,,,,,,,,,,,,,,
188,1,Memory,3,,,,,,,01005960627fa.jpg,,,,,,,,,,,,,,,
189,1,Memory,3,,,,,,,sunaptrqvaooxfvktvw.jpg,,,,,,,,,,,,,,,
190,1,Memory,3,,,,,,,00609940928fa.jpg,,,,,,,,,,,,,,,
191,1,Memory,3,,,,,,,sunabohxbskznglnrhv.jpg,,,,,,,,,,,,,,,
192,1,Memory,3,,,,,,,sunaalcrrdbjgdztbiz.jpg,,,,,,,,,,,,,,,
193,1,Memory,3,,,,,,,sunabmytpyhsgigllxu.jpg,,,,,,,,,,,,,,,
194,1,Memory,3,,,,,,,00564941031fa.jpg,,,,,,,,,,,,,,,
195,1,Memory,3,,,,,,,00635941031fa.jpg,,,,,,,,,,,,,,,
196,1,Memory,3,,,,,,,sunadfndyrtqqiasoig.jpg,,,,,,,,,,,,,,,
197,1,Memory,3,,,,,,,sunbwyuesflwdpqtgoy.jpg,,,,,,,,,,,,,,,
198,1,Memory,3,,,,,,,sunabrlndkruqokhury.jpg,,,,,,,,,,,,,,,
199,1,Memory,3,,,,,,,sunaddsaeicthrfbkhe.jpg,,,,,,,,,,,,,,,
200,1,Presentation,4,00775941205fa_sunafvwfsmqkjrutjta.jpg,00743941201fa_sunaeoghzrjarigmwua.jpg,00775941205fa.jpg,sunafvwfsmqkjrutjta.jpg,00743941201fa.jpg,sunaeoghzrjarigmwua.jpg,,,<,Place,,,,,1,,,,,,,o
201,1,Presentation,4,01004960627fa_sunbwtlihsuptkrckid.jpg,00966960627fa_sunaygrtwrwfezqjizr.jpg,01004960627fa.jpg,sunbwtlihsuptkrckid.jpg,00966960627fa.jpg,sunaygrtwrwfezqjizr.jpg,,,<,Place,,,,,1,,,,,,,x
202,1,Presentation,4,00149931230fa_sunaauglwmctnkxyird.jpg,00935960627fa_sunaqbmgkgqucajzrkp.jpg,00149931230fa.jpg,sunaauglwmctnkxyird.jpg,00935960627fa.jpg,sunaqbmgkgqucajzrkp.jpg,,,<,Place,,,,,1,,,,,,,o
203,1,Presentation,4,00529940519fa_sunacbeefkxpymwevpk.jpg,00262940128fa_sunabizydfotqddlnjp.jpg,00529940519fa.jpg,sunacbeefkxpymwevpk.jpg,00262940128fa.jpg,sunabizydfotqddlnjp.jpg,,,<,Place,,,,,1,,,,,,,x
204,1,Presentation,4,00153931230fa_sunaauhozyxzeeqstxi.jpg,00801941205fa_sunagvprlbprarvgdvj.jpg,00153931230fa.jpg,sunaauhozyxzeeqstxi.jpg,00801941205fa.jpg,sunagvprlbprarvgdvj.jpg,,,<,Place,,,,,1,,,,,,,o
205,1,Presentation,4,00723941201fa_sunaedtgwjvvziytspa.jpg,00131931230fb_sunaangbuylfvckqqoo.jpg,00723941201fa.jpg,sunaedtgwjvvziytspa.jpg,00131931230fb.jpg,sunaangbuylfvckqqoo.jpg,,,<,Place,,,,,1,,,,,,,o
206,1,Presentation,4,00827940307fa_sunahtfxgsrmkiulnwk.jpg,00676941121fa_sunadpnqovzckyikrjo.jpg,00827940307fa.jpg,sunahtfxgsrmkiulnwk.jpg,00676941121fa.jpg,sunadpnqovzckyikrjo.jpg,,,<,Place,,,,,1,,,,,,,x
207,1,Presentation,4,00979960627fa_sunbdycacjfaujxitbw.jpg,00752960620fa_sunafbwnojpqeyzssoe.jpg,00979960627fa.jpg,sunbdycacjfaujxitbw.jpg,00752960620fa.jpg,sunafbwnojpqeyzssoe.jpg,,,<,Place,,,,,1,,,,,,,x
208,1,Presentation,4,00834940307fa_sunaibnpvhkdpdnzcnz.jpg,00785941205fa_sunaglqunwuycxydmyu.jpg,00834940307fa.jpg,sunaibnpvhkdpdnzcnz.jpg,00785941205fa.jpg,sunaglqunwuycxydmyu.jpg,,,<,Place,,,,,1,,,,,,,x
209,1,Presentation,4,00809960620fa_sunahbvlpavurqoxdeq.jpg,00829940307fa_sunahwgbqkqcrwprgvh.jpg,00809960620fa.jpg,sunahbvlpavurqoxdeq.jpg,00829940307fa.jpg,sunahwgbqkqcrwprgvh.jpg,,,<,Place,,,,,1,,,,,,,x
210,1,Memory,4,,,,,,,sunbdycacjfaujxitbw.jpg,,,,,,,,,,,,,,,
211,1,Memory,4,,,,,,,00744941201fa.jpg,,,,,,,,,,,,,,,
212,1,Memory,4,,,,,,,sunaooaqzputrowwbsw.jpg,,,,,,,,,,,,,,,
213,1,Memory,4,,,,,,,sunaygrtwrwfezqjizr.jpg,,,,,,,,,,,,,,,
214,1,Memory,4,,,,,,,sunacjkmnpawfzbyvae.jpg,,,,,,,,,,,,,,,
215,1,Memory,4,,,,,,,sunahwgbqkqcrwprgvh.jpg,,,,,,,,,,,,,,,
216,1,Memory,4,,,,,,,00559940519fa.jpg,,,,,,,,,,,,,,,
217,1,Memory,4,,,,,,,sunahbvlpavurqoxdeq.jpg,,,,,,,,,,,,,,,
218,1,Memory,4,,,,,,,sunaeoghzrjarigmwua.jpg,,,,,,,,,,,,,,,
219,1,Memory,4,,,,,,,sunaeomlfaabhpswasy.jpg,,,,,,,,,,,,,,,
220,1,Memory,4,,,,,,,sunacbeefkxpymwevpk.jpg,,,,,,,,,,,,,,,
221,1,Memory,4,,,,,,,sunaejnvnpltdmhbcsi.jpg,,,,,,,,,,,,,,,
222,1,Memory,4,,,,,,,00728941205fa.jpg,,,,,,,,,,,,,,,
223,1,Memory,4,,,,,,,00112931230fa.jpg,,,,,,,,,,,,,,,
224,1,Memory,4,,,,,,,sunbwtlihsuptkrckid.jpg,,,,,,,,,,,,,,,
225,1,Memory,4,,,,,,,sunbmaiocftdtvnzgap.jpg,,,,,,,,,,,,,,,
226,1,Memory,4,,,,,,,sunafbwnojpqeyzssoe.jpg,,,,,,,,,,,,,,,
227,1,Memory,4,,,,,,,00829940307fa.jpg,,,,,,,,,,,,,,,
228,1,Memory,4,,,,,,,00529940519fa.jpg,,,,,,,,,,,,,,,
229,1,Memory,4,,,,,,,00111931230fb.jpg,,,,,,,,,,,,,,,
230,1,Memory,4,,,,,,,sunabwjvmoaddlyxfjr.jpg,,,,,,,,,,,,,,,
231,1,Memory,4,,,,,,,sunaatjesvdupctftmn.jpg,,,,,,,,,,,,,,,
232,1,Memory,4,,,,,,,00809960620fa.jpg,,,,,,,,,,,,,,,
233,1,Memory,4,,,,,,,00752960620fa.jpg,,,,,,,,,,,,,,,
234,1,Memory,4,,,,,,,00313940422fa.jpg,,,,,,,,,,,,,,,
235,1,Memory,4,,,,,,,sunaakgekhjklxmvulj.jpg,,,,,,,,,,,,,,,
236,1,Memory,4,,,,,,,00145931230fb.jpg,,,,,,,,,,,,,,,
237,1,Memory,4,,,,,,,00979960627fa.jpg,,,,,,,,,,,,,,,
238,1,Memory,4,,,,,,,00131931230fb.jpg,,,,,,,,,,,,,,,
239,1,Memory,4,,,,,,,00966960627fa.jpg,,,,,,,,,,,,,,,
240,1,Memory,4,,,,,,,sunasrjlmglmjzbmqxb.jpg,,,,,,,,,,,,,,,
241,1,Memory,4,,,,,,,01004960627fa.jpg,,,,,,,,,,,,,,,
242,1,Memory,4,,,,,,,sunaakjaacuzulqckgl.jpg,,,,,,,,,,,,,,,
243,1,Memory,4,,,,,,,00988960627fa.jpg,,,,,,,,,,,,,,,
244,1,Memory,4,,,,,,,sunaangbuylfvckqqoo.jpg,,,,,,,,,,,,,,,
245,1,Memory,4,,,,,,,00950960627fa.jpg,,,,,,,,,,,,,,,
246,1,Memory,4,,,,,,,sunaauhozyxzeeqstxi.jpg,,,,,,,,,,,,,,,
247,1,Memory,4,,,,,,,00153931230fa.jpg,,,,,,,,,,,,,,,
248,1,Memory,4,,,,,,,00911960530fa.jpg,,,,,,,,,,,,,,,
249,1,Memory,4,,,,,,,00743941201fa.jpg,,,,,,,,,,,,,,,
250,1,Presentation,5,00663941121fa_sunadnjjzohjhbohlwq.jpg,00893960530Fa_sunaloffvbvysigxent.jpg,00663941121fa.jpg,sunadnjjzohjhbohlwq.jpg,00893960530Fa.jpg,sunaloffvbvysigxent.jpg,,,<,Face,,,,,0,,,,,,,x
251,1,Presentation,5,00915960620fa_sunapileznnbbmrwoei.jpg,00762941201fa_sunafgzgbisbopcyslr.jpg,00915960620fa.jpg,sunapileznnbbmrwoei.jpg,00762941201fa.jpg,sunafgzgbisbopcyslr.jpg,,,<,Face,,,,,1,,,,,,,o
252,1,Presentation,5,00773960620fa_sunafvsxtzaizojicxx.jpg,00239940128fa_sunabctlikybqabezjv.jpg,00773960620fa.jpg,sunafvsxtzaizojicxx.jpg,00239940128fa.jpg,sunabctlikybqabezjv.jpg,,,<,Face,,,,,1,,,,,,,x
253,1,Presentation,5,00483940519fa_sunabyvpwkgsjtijdwj.jpg,00903960620fa_sunanainkqdvktzoxyl.jpg,00483940519fa.jpg,sunabyvpwkgsjtijdwj.jpg,00903960620fa.jpg,sunanainkqdvktzoxyl.jpg,,,<,Face,,,,,1,,,,,,,o
254,1,Presentation,5,00630940928fa_sunaczwgyukesaajxnx.jpg,00120931230fa_sunaakxgygjfqrzpyoz.jpg,00630940928fa.jpg,sunaczwgyukesaajxnx.jpg,00120931230fa.jpg,sunaakxgygjfqrzpyoz.jpg,,,<,Face,,,,,1,,,,,,,o
255,1,Presentation,5,00753941201fa_sunafcofuuzebuadceo.jpg,00990960627fa_sunbpflsdaxnddnwcqi.jpg,00753941201fa.jpg,sunafcofuuzebuadceo.jpg,00990960627fa.jpg,sunbpflsdaxnddnwcqi.jpg,,,<,Face,,,,,1,,,,,,,x
256,1,Presentation,5,00805941205fa_sunagwzdbtlixdhgolm.jpg,00969960627fa_sunbaoizrfijvhpnnjn.jpg,00805941205fa.jpg,sunagwzdbtlixdhgolm.jpg,00969960627fa.jpg,sunbaoizrfijvhpnnjn.jpg,,,<,Face,,,,,1,,,,,,,o
257,1,Presentation,5,00630941031fa_sunadakkdovnuzlycvp.jpg,00292940422fb_sunabrjdpmoedcdjbpo.jpg,00630941031fa.jpg,sunadakkdovnuzlycvp.jpg,00292940422fb.jpg,sunabrjdpmoedcdjbpo.jpg,,,<,Face,,,,,1,,,,,,,x
258,1,Presentation,5,00108960530fa_sunaajtnvzzpsjdzres.jpg,00576941031fa_sunacvjlsylseoghjup.jpg,00108960530fa.jpg,sunaajtnvzzpsjdzres.jpg,00576941031fa.jpg,sunacvjlsylseoghjup.jpg,,,<,Face,,,,,1,,,,,,,x
259,1,Presentation,5,00650941031fa_sunadikxpvqeabxrvvc.jpg,00670941121fa_sunadochqcucscehsgk.jpg,00650941031fa.jpg,sunadikxpvqeabxrvvc.jpg,00670941121fa.jpg,sunadochqcucscehsgk.jpg,,,<,Face,,,,,0,,,,,,,x
260,1,Memory,5,,,,,,,00990960627fa.jpg,,,,,,,,,,,,,,,
261,1,Memory,5,,,,,,,sunapileznnbbmrwoei.jpg,,,,,,,,,,,,,,,
262,1,Memory,5,,,,,,,01003960627fb.jpg,,,,,,,,,,,,,,,
263,1,Memory,5,,,,,,,sunbpflsdaxnddnwcqi.jpg,,,,,,,,,,,,,,,
264,1,Memory,5,,,,,,,00630941031fa.jpg,,,,,,,,,,,,,,,
265,1,Memory,5,,,,,,,00864940307fa.jpg,,,,,,,,,,,,,,,
266,1,Memory,5,,,,,,,00794960620fa.jpg,,,,,,,,,,,,,,,
267,1,Memory,5,,,,,,,00108960530fa.jpg,,,,,,,,,,,,,,,
268,1,Memory,5,,,,,,,sunagtqhhwxjeuxdebe.jpg,,,,,,,,,,,,,,,
269,1,Memory,5,,,,,,,00753941201fa.jpg,,,,,,,,,,,,,,,
270,1,Memory,5,,,,,,,sunaafgqutfaishsxyu.jpg,,,,,,,,,,,,,,,
271,1,Memory,5,,,,,,,sunabyvpwkgsjtijdwj.jpg,,,,,,,,,,,,,,,
272,1,Memory,5,,,,,,,sunaajayojuslbbnneg.jpg,,,,,,,,,,,,,,,
273,1,Memory,5,,,,,,,sunadochqcucscehsgk.jpg,,,,,,,,,,,,,,,
274,1,Memory,5,,,,,,,sunadkazmlajmohnwfl.jpg,,,,,,,,,,,,,,,
275,1,Memory,5,,,,,,,sunaampvucecsfbdafn.jpg,,,,,,,,,,,,,,,
276,1,Memory,5,,,,,,,00498960627fa.jpg,,,,,,,,,,,,,,,
277,1,Memory,5,,,,,,,00670941121fa.jpg,,,,,,,,,,,,,,,
278,1,Memory,5,,,,,,,sunagmwxxwymwojbvgi.jpg,,,,,,,,,,,,,,,
279,1,Memory,5,,,,,,,sunabzjxlmkwnwzimua.jpg,,,,,,,,,,,,,,,
280,1,Memory,5,,,,,,,00097931230fa.jpg,,,,,,,,,,,,,,,
281,1,Memory,5,,,,,,,00077931230fb.jpg,,,,,,,,,,,,,,,
282,1,Memory,5,,,,,,,00127931230fa.jpg,,,,,,,,,,,,,,,
283,1,Memory,5,,,,,,,00082931230fa.jpg,,,,,,,,,,,,,,,
284,1,Memory,5,,,,,,,sunajawzbrlrwafowen.jpg,,,,,,,,,,,,,,,
285,1,Memory,5,,,,,,,sunbwdrdvsweerwsdrj.jpg,,,,,,,,,,,,,,,
286,1,Memory,5,,,,,,,00483940519fa.jpg,,,,,,,,,,,,,,,
287,1,Memory,5,,,,,,,00662941121fa.jpg,,,,,,,,,,,,,,,
288,1,Memory,5,,,,,,,00576941031fa.jpg,,,,,,,,,,,,,,,
289,1,Memory,5,,,,,,,sunaakxgygjfqrzpyoz.jpg,,,,,,,,,,,,,,,
290,1,Memory,5,,,,,,,00762941201fa.jpg,,,,,,,,,,,,,,,
291,1,Memory,5,,,,,,,00787941205fa.jpg,,,,,,,,,,,,,,,
292,1,Memory,5,,,,,,,00120931230fa.jpg,,,,,,,,,,,,,,,
293,1,Memory,5,,,,,,,sunaafvitpexrpvumsa.jpg,,,,,,,,,,,,,,,
294,1,Memory,5,,,,,,,sunadakkdovnuzlycvp.jpg,,,,,,,,,,,,,,,
295,1,Memory,5,,,,,,,00915960620fa.jpg,,,,,,,,,,,,,,,
296,1,Memory,5,,,,,,,sunafcofuuzebuadceo.jpg,,,,,,,,,,,,,,,
297,1,Memory,5,,,,,,,sunaajtnvzzpsjdzres.jpg,,,,,,,,,,,,,,,
298,1,Memory,5,,,,,,,sunafgzgbisbopcyslr.jpg,,,,,,,,,,,,,,,
299,1,Memory,5,,,,,,,sunacvjlsylseoghjup.jpg,,,,,,,,,,,,,,,
300,1,Presentation,6,00633940928fa_sunadbhmrgrrpyzglxs.jpg,00922960627fa_sunapqkyghktgtosuuk.jpg,00633940928fa.jpg,sunadbhmrgrrpyzglxs.jpg,00922960627fa.jpg,sunapqkyghktgtosuuk.jpg,,,>,Place,,,,,1,,,,,,,o
301,1,Presentation,6,00130931230fa_sunaamvxnvouicstkjb.jpg,00267940128fb_sunablfqiwfqomjarht.jpg,00130931230fa.jpg,sunaamvxnvouicstkjb.jpg,00267940128fb.jpg,sunablfqiwfqomjarht.jpg,,,>,Place,,,,,1,,,,,,,o
302,1,Presentation,6,00095931230fa_sunaahzooisqkwlxwoz.jpg,00774941201fa_sunafvtpfczkzopbgue.jpg,00095931230fa.jpg,sunaahzooisqkwlxwoz.jpg,00774941201fa.jpg,sunafvtpfczkzopbgue.jpg,,,>,Place,,,,,1,,,,,,,o
303,1,Presentation,6,00749941201fa_sunaeuvjbmdpknaqqaj.jpg,00194940128fb_sunaayehfdqcyxggsej.jpg,00749941201fa.jpg,sunaeuvjbmdpknaqqaj.jpg,00194940128fb.jpg,sunaayehfdqcyxggsej.jpg,,,>,Place,,,,,1,,,,,,,x
304,1,Presentation,6,00822940307fa_sunahqrxievfeusiqlt.jpg,00838940307fa_sunaiozxhxgtfrmoagh.jpg,00822940307fa.jpg,sunahqrxievfeusiqlt.jpg,00838940307fa.jpg,sunaiozxhxgtfrmoagh.jpg,,,>,Place,,,,,1,,,,,,,x
305,1,Presentation,6,00825940307fa_sunahrltmuwbiehihpe.jpg,00184940128fa_sunaavtbadenwnzeutj.jpg,00825940307fa.jpg,sunahrltmuwbiehihpe.jpg,00184940128fa.jpg,sunaavtbadenwnzeutj.jpg,,,>,Place,,,,,1,,,,,,,o
306,1,Presentation,6,00069931230fb_sunaaeowapdkwzqpgqr.jpg,01011960627fa_sundahdxwmcdluscvot.jpg,00069931230fb.jpg,sunaaeowapdkwzqpgqr.jpg,01011960627fa.jpg,sundahdxwmcdluscvot.jpg,,,>,Place,,,,,0,,,,,,,x
307,1,Presentation,6,00947960627fa_sunasmmcxdddtmtazwx.jpg,00554940519fa_sunacfdkbsrughwqwtt.jpg,00947960627fa.jpg,sunasmmcxdddtmtazwx.jpg,00554940519fa.jpg,sunacfdkbsrughwqwtt.jpg,,,>,Place,,,,,1,,,,,,,x
308,1,Presentation,6,00985960627fa_sunbgklxeqjhdbyfhhy.jpg,00909960530_sunaobtizabegtwfwul.jpg,00985960627fa.jpg,sunbgklxeqjhdbyfhhy.jpg,00909960530.jpg,sunaobtizabegtwfwul.jpg,,,>,Place,,,,,1,,,,,,,o
309,1,Presentation,6,00812941205fa_sunahgtbwgsmtqeodwh.jpg,00788941205fa_sunagountlxpzkytsmp.jpg,00812941205fa.jpg,sunahgtbwgsmtqeodwh.jpg,00788941205fa.jpg,sunagountlxpzkytsmp.jpg,,,>,Place,,,,,1,,,,,,,x
310,1,Memory,6,,,,,,,sunabyfxcxhdebvdyfd.jpg,,,,,,,,,,,,,,,
311,1,Memory,6,,,,,,,00184940128fa.jpg,,,,,,,,,,,,,,,
312,1,Memory,6,,,,,,,00986960627fa.jpg,,,,,,,,,,,,,,,
313,1,Memory,6,,,,,,,sunafvtpfczkzopbgue.jpg,,,,,,,,,,,,,,,
314,1,Memory,6,,,,,,,sunaipyohrqlwngaqif.jpg,,,,,,,,,,,,,,,
315,1,Memory,6,,,,,,,00810941205fa.jpg,,,,,,,,,,,,,,,
316,1,Memory,6,,,,,,,00914960620fa.jpg,,,,,,,,,,,,,,,
317,1,Memory,6,,,,,,,sundahdxwmcdluscvot.jpg,,,,,,,,,,,,,,,
318,1,Memory,6,,,,,,,sunbbxkanhzjgbwyxqs.jpg,,,,,,,,,,,,,,,
319,1,Memory,6,,,,,,,sunahctntqrunhdxhtb.jpg,,,,,,,,,,,,,,,
320,1,Memory,6,,,,,,,00947960627fa.jpg,,,,,,,,,,,,,,,
321,1,Memory,6,,,,,,,sunaeuzwggvibufclwf.jpg,,,,,,,,,,,,,,,
322,1,Memory,6,,,,,,,00750941201fa.jpg,,,,,,,,,,,,,,,
323,1,Memory,6,,,,,,,sunaaeowapdkwzqpgqr.jpg,,,,,,,,,,,,,,,
324,1,Memory,6,,,,,,,sunammbnoambmhdxdwd.jpg,,,,,,,,,,,,,,,
325,1,Memory,6,,,,,,,00095931230fa.jpg,,,,,,,,,,,,,,,
326,1,Memory,6,,,,,,,sunanaacmmosxrfwmvl.jpg,,,,,,,,,,,,,,,
327,1,Memory,6,,,,,,,00194940128fb.jpg,,,,,,,,,,,,,,,
328,1,Memory,6,,,,,,,00774941201fa.jpg,,,,,,,,,,,,,,,
329,1,Memory,6,,,,,,,sunasmmcxdddtmtazwx.jpg,,,,,,,,,,,,,,,
330,1,Memory,6,,,,,,,00977960627fa.jpg,,,,,,,,,,,,,,,
331,1,Memory,6,,,,,,,sunaflojskatpeqyzqp.jpg,,,,,,,,,,,,,,,
332,1,Memory,6,,,,,,,sunaozisvwfbmlkfhzv.jpg,,,,,,,,,,,,,,,
333,1,Memory,6,,,,,,,sunahqrxievfeusiqlt.jpg,,,,,,,,,,,,,,,
334,1,Memory,6,,,,,,,00902960530fa.jpg,,,,,,,,,,,,,,,
335,1,Memory,6,,,,,,,sunaavtbadenwnzeutj.jpg,,,,,,,,,,,,,,,
336,1,Memory,6,,,,,,,sunahrltmuwbiehihpe.jpg,,,,,,,,,,,,,,,
337,1,Memory,6,,,,,,,sunaiozxhxgtfrmoagh.jpg,,,,,,,,,,,,,,,
338,1,Memory,6,,,,,,,00482940519fa.jpg,,,,,,,,,,,,,,,
339,1,Memory,6,,,,,,,00838940307fa.jpg,,,,,,,,,,,,,,,
340,1,Memory,6,,,,,,,00770941201fa.jpg,,,,,,,,,,,,,,,
341,1,Memory,6,,,,,,,00825940307fa.jpg,,,,,,,,,,,,,,,
342,1,Memory,6,,,,,,,00069931230fb.jpg,,,,,,,,,,,,,,,
343,1,Memory,6,,,,,,,00822940307fa.jpg,,,,,,,,,,,,,,,
344,1,Memory,6,,,,,,,sunaayehfdqcyxggsej.jpg,,,,,,,,,,,,,,,
345,1,Memory,6,,,,,,,sunaahzooisqkwlxwoz.jpg,,,,,,,,,,,,,,,
346,1,Memory,6,,,,,,,00839940307fa.jpg,,,,,,,,,,,,,,,
347,1,Memory,6,,,,,,,01011960627fa.jpg,,,,,,,,,,,,,,,
348,1,Memory,6,,,,,,,sunbgzjryivyczuvkvm.jpg,,,,,,,,,,,,,,,
349,1,Memory,6,,,,,,,00901960530fa.jpg,,,,,,,,,,,,,,,
350,1,Presentation,7,00984960627fa_sunbfzchmomnvzhbxdg.jpg,00982960627fa_sunbesrwkdsffeogeqq.jpg,00984960627fa.jpg,sunbfzchmomnvzhbxdg.jpg,00982960627fa.jpg,sunbesrwkdsffeogeqq.jpg,,,>,Face,,,,,1,,,,,,,x
351,1,Presentation,7,00245940128fa_sunabeyhmxodahoieyk.jpg,00136931230fb_sunaanptmsknhirrzed.jpg,00245940128fa.jpg,sunabeyhmxodahoieyk.jpg,00136931230fb.jpg,sunaanptmsknhirrzed.jpg,,,>,Face,,,,,1,,,,,,,o
352,1,Presentation,7,00727941205fa_sunaeisnjeetzmkbuad.jpg,00122931230fa_sunaakxjfbrrequcjmx.jpg,00727941205fa.jpg,sunaeisnjeetzmkbuad.jpg,00122931230fa.jpg,sunaakxjfbrrequcjmx.jpg,,,>,Face,,,,,1,,,,,,,o
353,1,Presentation,7,00803941205fa_sunagvxkjokqimstxpe.jpg,00858940307fa_sunaixpqndlwhwjtjek.jpg,00803941205fa.jpg,sunagvxkjokqimstxpe.jpg,00858940307fa.jpg,sunaixpqndlwhwjtjek.jpg,,,>,Face,,,,,1,,,,,,,o
354,1,Presentation,7,00631940928fa_sunadbdqzigzwipuipr.jpg,00959960627fa_sunavxokzybtomhbmvm.jpg,00631940928fa.jpg,sunadbdqzigzwipuipr.jpg,00959960627fa.jpg,sunavxokzybtomhbmvm.jpg,,,>,Face,,,,,1,,,,,,,x
355,1,Presentation,7,00766960620fa_sunafijbgncijwykrnl.jpg,00193940928fa_sunaaxjpzcnxligjtjq.jpg,00766960620fa.jpg,sunafijbgncijwykrnl.jpg,00193940928fa.jpg,sunaaxjpzcnxligjtjq.jpg,,,>,Face,,,,,0,,,,,,,o
356,1,Presentation,7,00751960620fa_sunaezuszgtxnmsxdbk.jpg,00163931230fb_sunaavodbcpygkggnfp.jpg,00751960620fa.jpg,sunaezuszgtxnmsxdbk.jpg,00163931230fb.jpg,sunaavodbcpygkggnfp.jpg,,,>,Face,,,,,1,,,,,,,x
357,1,Presentation,7,00742941201fa_sunaenwuebvlpdmntju.jpg,00214940128fa_sunabbafjowbzcvbucc.jpg,00742941201fa.jpg,sunaenwuebvlpdmntju.jpg,00214940128fa.jpg,sunabbafjowbzcvbucc.jpg,,,>,Face,,,,,1,,,,,,,x
358,1,Presentation,7,00953960627fa_sunatstrpjxhvtbaczf.jpg,00144931230fb_sunaathajvxrgptwhoj.jpg,00953960627fa.jpg,sunatstrpjxhvtbaczf.jpg,00144931230fb.jpg,sunaathajvxrgptwhoj.jpg,,,>,Face,,,,,1,,,,,,,o
359,1,Presentation,7,00929960627fa_sunaprnrbmgkomdbchr.jpg,00942960627fa_sunarfdklgdnjgeqfjg.jpg,00929960627fa.jpg,sunaprnrbmgkomdbchr.jpg,00942960627fa.jpg,sunarfdklgdnjgeqfjg.jpg,,,>,Face,,,,,1,,,,,,,o
360,1,Memory,7,,,,,,,00790941205fa.jpg,,,,,,,,,,,,,,,
361,1,Memory,7,,,,,,,00929960627fa.jpg,,,,,,,,,,,,,,,
362,1,Memory,7,,,,,,,sunaatpeezlljqaxlhj.jpg,,,,,,,,,,,,,,,
363,1,Memory,7,,,,,,,sunabgfhvifeijihhjw.jpg,,,,,,,,,,,,,,,
364,1,Memory,7,,,,,,,00778941205fa.jpg,,,,,,,,,,,,,,,
365,1,Memory,7,,,,,,,sunaanptmsknhirrzed.jpg,,,,,,,,,,,,,,,
366,1,Memory,7,,,,,,,sunaafewhewbxmjiurz.jpg,,,,,,,,,,,,,,,
367,1,Memory,7,,,,,,,00742941201fa.jpg,,,,,,,,,,,,,,,
368,1,Memory,7,,,,,,,00193940928fa.jpg,,,,,,,,,,,,,,,
369,1,Memory,7,,,,,,,sunbesrwkdsffeogeqq.jpg,,,,,,,,,,,,,,,
370,1,Memory,7,,,,,,,sunagcthdfirrcawoic.jpg,,,,,,,,,,,,,,,
371,1,Memory,7,,,,,,,00076931230fa.jpg,,,,,,,,,,,,,,,
372,1,Memory,7,,,,,,,sunajwqkfsykceonyig.jpg,,,,,,,,,,,,,,,
373,1,Memory,7,,,,,,,00803941205fa.jpg,,,,,,,,,,,,,,,
374,1,Memory,7,,,,,,,00136931230fb.jpg,,,,,,,,,,,,,,,
375,1,Memory,7,,,,,,,00787960620fa.jpg,,,,,,,,,,,,,,,
376,1,Memory,7,,,,,,,sunaprnrbmgkomdbchr.jpg,,,,,,,,,,,,,,,
377,1,Memory,7,,,,,,,00858940307fa.jpg,,,,,,,,,,,,,,,
378,1,Memory,7,,,,,,,sunagvxkjokqimstxpe.jpg,,,,,,,,,,,,,,,
379,1,Memory,7,,,,,,,00146960620fb.jpg,,,,,,,,,,,,,,,
380,1,Memory,7,,,,,,,00727941205fa.jpg,,,,,,,,,,,,,,,
381,1,Memory,7,,,,,,,sunbddbivbptlrlauhy.jpg,,,,,,,,,,,,,,,
382,1,Memory,7,,,,,,,sunabtlfmiwtljmoues.jpg,,,,,,,,,,,,,,,
383,1,Memory,7,,,,,,,00080931230fb.jpg,,,,,,,,,,,,,,,
384,1,Memory,7,,,,,,,sunaaxjpzcnxligjtjq.jpg,,,,,,,,,,,,,,,
385,1,Memory,7,,,,,,,00214940128fa.jpg,,,,,,,,,,,,,,,
386,1,Memory,7,,,,,,,00751960620fa.jpg,,,,,,,,,,,,,,,
387,1,Memory,7,,,,,,,sunaezuszgtxnmsxdbk.jpg,,,,,,,,,,,,,,,
388,1,Memory,7,,,,,,,sunaixpqndlwhwjtjek.jpg,,,,,,,,,,,,,,,
389,1,Memory,7,,,,,,,sunabbafjowbzcvbucc.jpg,,,,,,,,,,,,,,,
390,1,Memory,7,,,,,,,sunaeisnjeetzmkbuad.jpg,,,,,,,,,,,,,,,
391,1,Memory,7,,,,,,,00978960627fa.jpg,,,,,,,,,,,,,,,
392,1,Memory,7,,,,,,,00260940128fa.jpg,,,,,,,,,,,,,,,
393,1,Memory,7,,,,,,,sunaafjszryxyavjzln.jpg,,,,,,,,,,,,,,,
394,1,Memory,7,,,,,,,00982960627fa.jpg,,,,,,,,,,,,,,,
395,1,Memory,7,,,,,,,00876960620fa.jpg,,,,,,,,,,,,,,,
396,1,Memory,7,,,,,,,sunaenwuebvlpdmntju.jpg,,,,,,,,,,,,,,,
397,1,Memory,7,,,,,,,00302940422fa.jpg,,,,,,,,,,,,,,,
398,1,Memory,7,,,,,,,sunagoufulkpsxrmklt.jpg,,,,,,,,,,,,,,,
399,1,Memory,7,,,,,,,sunagpjzsbltchlwvou.jpg,,,,,,,,,,,,,,,
