,Subject,Trial Type,Run,Cued Composite,Uncued Composite,Cued Face,Cued Place,Uncued Face,Uncued Place,Memory Image,Category,Cued Side,Cued Category,Attention Response Time (s),Familiarity Reaction Time (s),Familiarity Rating,Attention Level,Cue Validity,Post Invalid Cue,Pre Invalid Cue,Attention Button,Rating History,Stimulus Onset,Stimulus End,Attention Probe
0,5,Presentation,0,00885960530fa_sunakwlvxjpddialozd.jpg,01007960627fa_sunbxarcshsnqsefemx.jpg,,,,,,,<,Place,,,,,1,,,,,,,o
1,5,Presentation,0,00794960620fa_sunagtqhhwxjeuxdebe.jpg,00296940422fa_sunabrwnslxalcohfre.jpg,,,,,,,<,Face,,,,,0,,,,,,,o
2,5,Presentation,0,00971960627fa_sunbbegcweqnetpdlrh.jpg,00589940928fa_sunacwggadqsfpovdjv.jpg,,,,,,,>,Place,,,,,1,,,,,,,o
3,5,Presentation,0,00889960530fa_sunaletopenvvozhpxc.jpg,00146960620fb_sunaatpeezlljqaxlhj.jpg,,,,,,,>,Face,,,,,1,,,,,,,x
4,5,Presentation,0,00752960620fa_sunafbwnojpqeyzssoe.jpg,00936960627fa_sunaqgjuuwvdcyiccjt.jpg,,,,,,,<,Place,,,,,1,,,,,,,x
5,5,Presentation,0,00209940128fb_sunabaergayifsgacxt.jpg,00162931230fb_sunaavjinpnkappuonm.jpg,,,,,,,>,Place,,,,,1,,,,,,,x
6,5,Presentation,0,00785941205fa_sunaglqunwuycxydmyu.jpg,00483940519fa_sunabyvpwkgsjtijdwj.jpg,,,,,,,<,Face,,,,,1,,,,,,,o
7,5,Presentation,0,00184940128fa_sunaavtbadenwnzeutj.jpg,00829940307fa_sunahwgbqkqcrwprgvh.jpg,,,,,,,>,Face,,,,,1,,,,,,,x
8,5,Presentation,0,00158931230fb_sunaavchcbptaerhcfy.jpg,00634940928fa_sunadcphrizvfpljiqt.jpg,,,,,,,<,Face,,,,,1,,,,,,,x
9,5,Presentation,0,00776941205fa_sunafxokyavhgptyfye.jpg,00788941205fa_sunagountlxpzkytsmp.jpg,,,,,,,>,Place,,,,,1,,,,,,,o
10,5,Memory,0,,,,,,,00158931230fb.jpg,,,,,,,,,,,,,,,
11,5,Memory,0,,,,,,,sunbxarcshsnqsefemx.jpg,,,,,,,,,,,,,,,
12,5,Memory,0,,,,,,,01009960627fa.jpg,,,,,,,,,,,,,,,
13,5,Memory,0,,,,,,,00779941205fa.jpg,,,,,,,,,,,,,,,
14,5,Memory,0,,,,,,,00633940928fa.jpg,,,,,,,,,,,,,,,
15,5,Memory,0,,,,,,,sunaqyylsngywqzwfmx.jpg,,,,,,,,,,,,,,,
16,5,Memory,0,,,,,,,00752960620fa.jpg,,,,,,,,,,,,,,,
17,5,Memory,0,,,,,,,sunbbegcweqnetpdlrh.jpg,,,,,,,,,,,,,,,
18,5,Memory,0,,,,,,,00971960627fa.jpg,,,,,,,,,,,,,,,
19,5,Memory,0,,,,,,,00162931230fb.jpg,,,,,,,,,,,,,,,
20,5,Memory,0,,,,,,,00185940422fb.jpg,,,,,,,,,,,,,,,
21,5,Memory,0,,,,,,,00810941205fa.jpg,,,,,,,,,,,,,,,
22,5,Memory,0,,,,,,,00889960530fa.jpg,,,,,,,,,,,,,,,
23,5,Memory,0,,,,,,,sunakwlvxjpddialozd.jpg,,,,,,,,,,,,,,,
24,5,Memory,0,,,,,,,sunaawqdbpihmlbwyyn.jpg,,,,,,,,,,,,,,,
25,5,Memory,0,,,,,,,sunafvtpfczkzopbgue.jpg,,,,,,,,,,,,,,,
26,5,Memory,0,,,,,,,sunafbwnojpqeyzssoe.jpg,,,,,,,,,,,,,,,
27,5,Memory,0,,,,,,,00885960530fa.jpg,,,,,,,,,,,,,,,
28,5,Memory,0,,,,,,,sunaakgekhjklxmvulj.jpg,,,,,,,,,,,,,,,
29,5,Memory,0,,,,,,,sunakmnfgklupjijsgf.jpg,,,,,,,,,,,,,,,
30,5,Memory,0,,,,,,,sunagountlxpzkytsmp.jpg,,,,,,,,,,,,,,,
31,5,Memory,0,,,,,,,sunaavchcbptaerhcfy.jpg,,,,,,,,,,,,,,,
32,5,Memory,0,,,,,,,sunabrwnslxalcohfre.jpg,,,,,,,,,,,,,,,
33,5,Memory,0,,,,,,,00938960627fa.jpg,,,,,,,,,,,,,,,
34,5,Memory,0,,,,,,,sunadcphrizvfpljiqt.jpg,,,,,,,,,,,,,,,
35,5,Memory,0,,,,,,,00774941201fa.jpg,,,,,,,,,,,,,,,
36,5,Memory,0,,,,,,,00111931230fb.jpg,,,,,,,,,,,,,,,
37,5,Memory,0,,,,,,,00880960530fa.jpg,,,,,,,,,,,,,,,
38,5,Memory,0,,,,,,,00296940422fa.jpg,,,,,,,,,,,,,,,
39,5,Memory,0,,,,,,,sunagdzlvkqtpnfxfcg.jpg,,,,,,,,,,,,,,,
40,5,Memory,0,,,,,,,sunaletopenvvozhpxc.jpg,,,,,,,,,,,,,,,
41,5,Memory,0,,,,,,,sunaavjinpnkappuonm.jpg,,,,,,,,,,,,,,,
42,5,Memory,0,,,,,,,00788941205fa.jpg,,,,,,,,,,,,,,,
43,5,Memory,0,,,,,,,sunahctntqrunhdxhtb.jpg,,,,,,,,,,,,,,,
44,5,Memory,0,,,,,,,01007960627fa.jpg,,,,,,,,,,,,,,,
45,5,Memory,0,,,,,,,00634940928fa.jpg,,,,,,,,,,,,,,,
46,5,Memory,0,,,,,,,sunavhxgmgrqsaptynb.jpg,,,,,,,,,,,,,,,
47,5,Memory,0,,,,,,,sunadbhmrgrrpyzglxs.jpg,,,,,,,,,,,,,,,
48,5,Memory,0,,,,,,,sunbxzweleltykebgan.jpg,,,,,,,,,,,,,,,
49,5,Memory,0,,,,,,,00957960627fa.jpg,,,,,,,,,,,,,,,
50,5,Presentation,1,00834940307fa_sunaibnpvhkdpdnzcnz.jpg,00947960627fa_sunasmmcxdddtmtazwx.jpg,,,,,,,>,Face,,,,,1,,,,,,,x
51,5,Presentation,1,00999960627fa_sunbvbrvgbpanfrawft.jpg,00719960620fa_sunadzuvtmtmgupotmf.jpg,,,,,,,<,Face,,,,,1,,,,,,,x
52,5,Presentation,1,00803941205fa_sunagvxkjokqimstxpe.jpg,00882960530fa_sunaknlirqjqiwbbeeg.jpg,,,,,,,>,Place,,,,,1,,,,,,,x
53,5,Presentation,1,00705941205fa_sunadtlxenqqxsyjvix.jpg,00892960530fa_sunalntxqqadigcletd.jpg,,,,,,,<,Place,,,,,1,,,,,,,o
54,5,Presentation,1,00939960627fa_sunarceibpcyacbmfga.jpg,00771941205fa_sunafowswglhxcsufpo.jpg,,,,,,,>,Face,,,,,1,,,,,,,o
55,5,Presentation,1,00977960627fa_sunbbxkanhzjgbwyxqs.jpg,00109931230fa_sunaajuzribjrizdshh.jpg,,,,,,,>,Place,,,,,1,,,,,,,o
56,5,Presentation,1,00245940128fa_sunabeyhmxodahoieyk.jpg,00894960620fa_sunalqmfgeadpqsyzpd.jpg,,,,,,,<,Face,,,,,0,,,,,,,x
57,5,Presentation,1,00063931230fa_sunaaelyvurpntclgau.jpg,00773941201fa_sunafvcflzhlqloapyo.jpg,,,,,,,<,Place,,,,,1,,,,,,,o
58,5,Presentation,1,00857940307fa_sunaiwfobocrruqznsv.jpg,00532960627fa_sunaccdtpgenvcbcbcf.jpg,,,,,,,>,Face,,,,,1,,,,,,,x
59,5,Presentation,1,00149931230fa_sunaauglwmctnkxyird.jpg,00895960530fa_sunamczizlzavhzhpay.jpg,,,,,,,<,Place,,,,,1,,,,,,,x
60,5,Memory,1,,,,,,,00218940128fa.jpg,,,,,,,,,,,,,,,
61,5,Memory,1,,,,,,,00792941205fa.jpg,,,,,,,,,,,,,,,
62,5,Memory,1,,,,,,,00894960620fa.jpg,,,,,,,,,,,,,,,
63,5,Memory,1,,,,,,,00773941201fa.jpg,,,,,,,,,,,,,,,
64,5,Memory,1,,,,,,,00780960530fa.jpg,,,,,,,,,,,,,,,
65,5,Memory,1,,,,,,,00925960627fa.jpg,,,,,,,,,,,,,,,
66,5,Memory,1,,,,,,,00705941205fa.jpg,,,,,,,,,,,,,,,
67,5,Memory,1,,,,,,,sunaangbuylfvckqqoo.jpg,,,,,,,,,,,,,,,
68,5,Memory,1,,,,,,,00770941201fa.jpg,,,,,,,,,,,,,,,
69,5,Memory,1,,,,,,,sunaflojskatpeqyzqp.jpg,,,,,,,,,,,,,,,
70,5,Memory,1,,,,,,,00131931230fb.jpg,,,,,,,,,,,,,,,
71,5,Memory,1,,,,,,,sunapqkyghktgtosuuk.jpg,,,,,,,,,,,,,,,
72,5,Memory,1,,,,,,,00834940307fa.jpg,,,,,,,,,,,,,,,
73,5,Memory,1,,,,,,,sunapqwnqzxlsfvgsjm.jpg,,,,,,,,,,,,,,,
74,5,Memory,1,,,,,,,00999960627fa.jpg,,,,,,,,,,,,,,,
75,5,Memory,1,,,,,,,00771941205fa.jpg,,,,,,,,,,,,,,,
76,5,Memory,1,,,,,,,00857940307fa.jpg,,,,,,,,,,,,,,,
77,5,Memory,1,,,,,,,00109931230fa.jpg,,,,,,,,,,,,,,,
78,5,Memory,1,,,,,,,00983960627fa.jpg,,,,,,,,,,,,,,,
79,5,Memory,1,,,,,,,sunbfyvfqiimvdaxlqn.jpg,,,,,,,,,,,,,,,
80,5,Memory,1,,,,,,,sunafowswglhxcsufpo.jpg,,,,,,,,,,,,,,,
81,5,Memory,1,,,,,,,sunalntxqqadigcletd.jpg,,,,,,,,,,,,,,,
82,5,Memory,1,,,,,,,sunacuatpqpqhyjhjqk.jpg,,,,,,,,,,,,,,,
83,5,Memory,1,,,,,,,sunaiwfobocrruqznsv.jpg,,,,,,,,,,,,,,,
84,5,Memory,1,,,,,,,sunaajuzribjrizdshh.jpg,,,,,,,,,,,,,,,
85,5,Memory,1,,,,,,,sunagetqixeypsysbpn.jpg,,,,,,,,,,,,,,,
86,5,Memory,1,,,,,,,sunagsiwrmuixqgdimb.jpg,,,,,,,,,,,,,,,
87,5,Memory,1,,,,,,,00892960530fa.jpg,,,,,,,,,,,,,,,
88,5,Memory,1,,,,,,,sunafvcflzhlqloapyo.jpg,,,,,,,,,,,,,,,
89,5,Memory,1,,,,,,,sunadtlxenqqxsyjvix.jpg,,,,,,,,,,,,,,,
90,5,Memory,1,,,,,,,00922960627fa.jpg,,,,,,,,,,,,,,,
91,5,Memory,1,,,,,,,00245940128fa.jpg,,,,,,,,,,,,,,,
92,5,Memory,1,,,,,,,00636941031fa.jpg,,,,,,,,,,,,,,,
93,5,Memory,1,,,,,,,sunabeyhmxodahoieyk.jpg,,,,,,,,,,,,,,,
94,5,Memory,1,,,,,,,sunabbwggenhfbftyvi.jpg,,,,,,,,,,,,,,,
95,5,Memory,1,,,,,,,sunbvbrvgbpanfrawft.jpg,,,,,,,,,,,,,,,
96,5,Memory,1,,,,,,,sunaibnpvhkdpdnzcnz.jpg,,,,,,,,,,,,,,,
97,5,Memory,1,,,,,,,00571940928fa.jpg,,,,,,,,,,,,,,,
98,5,Memory,1,,,,,,,sunaddtdkycxbqlpfqa.jpg,,,,,,,,,,,,,,,
99,5,Memory,1,,,,,,,sunalqmfgeadpqsyzpd.jpg,,,,,,,,,,,,,,,
100,5,Presentation,2,00993960627fa_sunbprywzqxjcezkbch.jpg,00125931230fa_sunaalltyvjhbzhkmvg.jpg,,,,,,,<,Face,,,,,1,,,,,,,o
101,5,Presentation,2,00909960530_sunaobtizabegtwfwul.jpg,00562941031fa_sunacjnahdmqfnjfwqx.jpg,,,,,,,>,Face,,,,,1,,,,,,,x
102,5,Presentation,2,00071940128fa_sunaaexpnawiehinlpy.jpg,00482940519fa_sunabyfxcxhdebvdyfd.jpg,,,,,,,>,Place,,,,,1,,,,,,,x
103,5,Presentation,2,00102931230fa_sunaajspcoepticvplv.jpg,00979960627fa_sunbdycacjfaujxitbw.jpg,,,,,,,>,Face,,,,,1,,,,,,,o
104,5,Presentation,2,00761960627fa_sunafgdqbclkwfocdhg.jpg,00136931230fb_sunaanptmsknhirrzed.jpg,,,,,,,>,Place,,,,,0,,,,,,,o
105,5,Presentation,2,00239940128fa_sunabctlikybqabezjv.jpg,00976960627fa_sunbbhqyyzmsxhsbjmp.jpg,,,,,,,<,Place,,,,,1,,,,,,,x
106,5,Presentation,2,00754941201fa_sunaffgsyyvoqdlkmnk.jpg,00746941201fa_sunaetydippjxikifsb.jpg,,,,,,,<,Face,,,,,1,,,,,,,x
107,5,Presentation,2,00790941205fa_sunagpjzsbltchlwvou.jpg,00835940307fa_sunaijsqpvodplbwxkf.jpg,,,,,,,<,Place,,,,,1,,,,,,,o
108,5,Presentation,2,00967960627fa_sunbaejotfklekvpxcz.jpg,00197940128fa_sunaaylzyqlqrsmfwif.jpg,,,,,,,<,Face,,,,,1,,,,,,,x
109,5,Presentation,2,00096931230fa_sunaaiqiqcggrskoqgy.jpg,00965960627fa_sunaydywdmvlfddbxbk.jpg,,,,,,,>,Place,,,,,1,,,,,,,o
110,5,Memory,2,,,,,,,sunaahedjlmtqekgyvj.jpg,,,,,,,,,,,,,,,
111,5,Memory,2,,,,,,,00871940307.jpg,,,,,,,,,,,,,,,
112,5,Memory,2,,,,,,,00071940128fa.jpg,,,,,,,,,,,,,,,
113,5,Memory,2,,,,,,,sunadbdqzigzwipuipr.jpg,,,,,,,,,,,,,,,
114,5,Memory,2,,,,,,,sunaffgsyyvoqdlkmnk.jpg,,,,,,,,,,,,,,,
115,5,Memory,2,,,,,,,sunacjnahdmqfnjfwqx.jpg,,,,,,,,,,,,,,,
116,5,Memory,2,,,,,,,00197940128fa.jpg,,,,,,,,,,,,,,,
117,5,Memory,2,,,,,,,00967960627fa.jpg,,,,,,,,,,,,,,,
118,5,Memory,2,,,,,,,sunaydywdmvlfddbxbk.jpg,,,,,,,,,,,,,,,
119,5,Memory,2,,,,,,,00986960627fa.jpg,,,,,,,,,,,,,,,
120,5,Memory,2,,,,,,,sunaaexpnawiehinlpy.jpg,,,,,,,,,,,,,,,
121,5,Memory,2,,,,,,,00090931230fa.jpg,,,,,,,,,,,,,,,
122,5,Memory,2,,,,,,,sunajrujcsdxmfbssmc.jpg,,,,,,,,,,,,,,,
123,5,Memory,2,,,,,,,00562941031fa.jpg,,,,,,,,,,,,,,,
124,5,Memory,2,,,,,,,sunarpsxqkduedrrzyi.jpg,,,,,,,,,,,,,,,
125,5,Memory,2,,,,,,,00943960627fa.jpg,,,,,,,,,,,,,,,
126,5,Memory,2,,,,,,,sunbdycacjfaujxitbw.jpg,,,,,,,,,,,,,,,
127,5,Memory,2,,,,,,,00631940928fa.jpg,,,,,,,,,,,,,,,
128,5,Memory,2,,,,,,,sunagpjzsbltchlwvou.jpg,,,,,,,,,,,,,,,
129,5,Memory,2,,,,,,,sunaaiqiqcggrskoqgy.jpg,,,,,,,,,,,,,,,
130,5,Memory,2,,,,,,,00950960627fa.jpg,,,,,,,,,,,,,,,
131,5,Memory,2,,,,,,,sunaygrtwrwfezqjizr.jpg,,,,,,,,,,,,,,,
132,5,Memory,2,,,,,,,sunaaylzyqlqrsmfwif.jpg,,,,,,,,,,,,,,,
133,5,Memory,2,,,,,,,sunasrjlmglmjzbmqxb.jpg,,,,,,,,,,,,,,,
134,5,Memory,2,,,,,,,00754941201fa.jpg,,,,,,,,,,,,,,,
135,5,Memory,2,,,,,,,sunbbgtoeuzierkkajt.jpg,,,,,,,,,,,,,,,
136,5,Memory,2,,,,,,,sunbaejotfklekvpxcz.jpg,,,,,,,,,,,,,,,
137,5,Memory,2,,,,,,,sunabcuurugvxwparpk.jpg,,,,,,,,,,,,,,,
138,5,Memory,2,,,,,,,sunbgzjryivyczuvkvm.jpg,,,,,,,,,,,,,,,
139,5,Memory,2,,,,,,,00965960627fa.jpg,,,,,,,,,,,,,,,
140,5,Memory,2,,,,,,,00973960627fa.jpg,,,,,,,,,,,,,,,
141,5,Memory,2,,,,,,,00096931230fa.jpg,,,,,,,,,,,,,,,
142,5,Memory,2,,,,,,,00966960627fa.jpg,,,,,,,,,,,,,,,
143,5,Memory,2,,,,,,,00136931230fb.jpg,,,,,,,,,,,,,,,
144,5,Memory,2,,,,,,,00790941205fa.jpg,,,,,,,,,,,,,,,
145,5,Memory,2,,,,,,,01207940128fa.jpg,,,,,,,,,,,,,,,
146,5,Memory,2,,,,,,,sunaanptmsknhirrzed.jpg,,,,,,,,,,,,,,,
147,5,Memory,2,,,,,,,00979960627fa.jpg,,,,,,,,,,,,,,,
148,5,Memory,2,,,,,,,sundbixjudsgeuuehrn.jpg,,,,,,,,,,,,,,,
149,5,Memory,2,,,,,,,00242940128fa.jpg,,,,,,,,,,,,,,,
150,5,Presentation,3,00211940128fa_sunabasphceswhwwqvv.jpg,00953960627fa_sunatstrpjxhvtbaczf.jpg,,,,,,,>,Place,,,,,1,,,,,,,x
151,5,Presentation,3,00727941205fa_sunaeisnjeetzmkbuad.jpg,00763941205fa_sunafhmnhsdurlvddpw.jpg,,,,,,,<,Place,,,,,1,,,,,,,x
152,5,Presentation,3,00789960620fa_sunagpancjmxqfazssf.jpg,00847940307fa_sunaivdjruhkrfywfed.jpg,,,,,,,<,Face,,,,,1,,,,,,,x
153,5,Presentation,3,00081941031fa_sunaaftlyfudyzuhqzf.jpg,00741941201fa_sunaemcowdozyphwknd.jpg,,,,,,,>,Place,,,,,1,,,,,,,o
154,5,Presentation,3,00191940128fb_sunaawsdjisukbbginm.jpg,00193940928fa_sunaaxjpzcnxligjtjq.jpg,,,,,,,<,Face,,,,,1,,,,,,,o
155,5,Presentation,3,00968960627fa_sunbagfpovqwbuexqdn.jpg,00681941121fa_sunadqmjrhfjyuzyvdd.jpg,,,,,,,>,Face,,,,,1,,,,,,,x
156,5,Presentation,3,00700941121fa_sunadsgmtznewzyasnk.jpg,00839940307fa_sunaipyohrqlwngaqif.jpg,,,,,,,<,Face,,,,,1,,,,,,,o
157,5,Presentation,3,00959960627fa_sunavxokzybtomhbmvm.jpg,00795941205fa_sunagtumacdlmciqamz.jpg,,,,,,,>,Face,,,,,1,,,,,,,o
158,5,Presentation,3,00313940422fa_sunabwjvmoaddlyxfjr.jpg,00479940519fa_sunabxsbfwjccqxxzxq.jpg,,,,,,,>,Place,,,,,1,,,,,,,o
159,5,Presentation,3,00841940307fa_sunaisiwfgppimtnmxl.jpg,00290940422fa_sunabqowuarvqqcnipn.jpg,,,,,,,<,Place,,,,,0,,,,,,,x
160,5,Memory,3,,,,,,,sunagtumacdlmciqamz.jpg,,,,,,,,,,,,,,,
161,5,Memory,3,,,,,,,sunaeutbrtswvsozxyk.jpg,,,,,,,,,,,,,,,
162,5,Memory,3,,,,,,,00191940128fb.jpg,,,,,,,,,,,,,,,
163,5,Memory,3,,,,,,,00789960620fa.jpg,,,,,,,,,,,,,,,
164,5,Memory,3,,,,,,,sunaapllqyqlykszopd.jpg,,,,,,,,,,,,,,,
165,5,Memory,3,,,,,,,00747941201fa.jpg,,,,,,,,,,,,,,,
166,5,Memory,3,,,,,,,sunabwmcbaxwioksdgw.jpg,,,,,,,,,,,,,,,
167,5,Memory,3,,,,,,,sunabjuovqvyfuzvqwt.jpg,,,,,,,,,,,,,,,
168,5,Memory,3,,,,,,,00211940128fa.jpg,,,,,,,,,,,,,,,
169,5,Memory,3,,,,,,,sunachtuarilwyqnvjx.jpg,,,,,,,,,,,,,,,
170,5,Memory,3,,,,,,,sunaaftlyfudyzuhqzf.jpg,,,,,,,,,,,,,,,
171,5,Memory,3,,,,,,,sunaawsdjisukbbginm.jpg,,,,,,,,,,,,,,,
172,5,Memory,3,,,,,,,sunabasphceswhwwqvv.jpg,,,,,,,,,,,,,,,
173,5,Memory,3,,,,,,,00795941205fa.jpg,,,,,,,,,,,,,,,
174,5,Memory,3,,,,,,,00838940307fa.jpg,,,,,,,,,,,,,,,
175,5,Memory,3,,,,,,,sunajrgtewnualfcerj.jpg,,,,,,,,,,,,,,,
176,5,Memory,3,,,,,,,00675941121fa.jpg,,,,,,,,,,,,,,,
177,5,Memory,3,,,,,,,00140931230fb.jpg,,,,,,,,,,,,,,,
178,5,Memory,3,,,,,,,sunaisiwfgppimtnmxl.jpg,,,,,,,,,,,,,,,
179,5,Memory,3,,,,,,,sunabxsbfwjccqxxzxq.jpg,,,,,,,,,,,,,,,
180,5,Memory,3,,,,,,,00557940519fa.jpg,,,,,,,,,,,,,,,
181,5,Memory,3,,,,,,,00263940128fb.jpg,,,,,,,,,,,,,,,
182,5,Memory,3,,,,,,,00681941121fa.jpg,,,,,,,,,,,,,,,
183,5,Memory,3,,,,,,,00081941031fa.jpg,,,,,,,,,,,,,,,
184,5,Memory,3,,,,,,,00847940307fa.jpg,,,,,,,,,,,,,,,
185,5,Memory,3,,,,,,,00937960627fa.jpg,,,,,,,,,,,,,,,
186,5,Memory,3,,,,,,,00839940307fa.jpg,,,,,,,,,,,,,,,
187,5,Memory,3,,,,,,,sunaqsolmfydodnakub.jpg,,,,,,,,,,,,,,,
188,5,Memory,3,,,,,,,sunaipyohrqlwngaqif.jpg,,,,,,,,,,,,,,,
189,5,Memory,3,,,,,,,sunaiozxhxgtfrmoagh.jpg,,,,,,,,,,,,,,,
190,5,Memory,3,,,,,,,sunadoxcchtmsxewsau.jpg,,,,,,,,,,,,,,,
191,5,Memory,3,,,,,,,sunaivdjruhkrfywfed.jpg,,,,,,,,,,,,,,,
192,5,Memory,3,,,,,,,sunacmpqqfbsvlzinzl.jpg,,,,,,,,,,,,,,,
193,5,Memory,3,,,,,,,00564940928fa.jpg,,,,,,,,,,,,,,,
194,5,Memory,3,,,,,,,00479940519fa.jpg,,,,,,,,,,,,,,,
195,5,Memory,3,,,,,,,sunagpancjmxqfazssf.jpg,,,,,,,,,,,,,,,
196,5,Memory,3,,,,,,,sunadqmjrhfjyuzyvdd.jpg,,,,,,,,,,,,,,,
197,5,Memory,3,,,,,,,00841940307fa.jpg,,,,,,,,,,,,,,,
198,5,Memory,3,,,,,,,00870940307fa.jpg,,,,,,,,,,,,,,,
199,5,Memory,3,,,,,,,00314940422fa.jpg,,,,,,,,,,,,,,,
200,5,Presentation,4,00086931230fa_sunaafynehyrzpsoaml.jpg,00898960530fa_sunamkmeblgteyggink.jpg,,,,,,,>,Place,,,,,1,,,,,,,x
201,5,Presentation,4,00935960627fa_sunaqbmgkgqucajzrkp.jpg,00576941031fa_sunacvjlsylseoghjup.jpg,,,,,,,<,Place,,,,,1,,,,,,,o
202,5,Presentation,4,00809960620fa_sunahbvlpavurqoxdeq.jpg,00095931230fa_sunaahzooisqkwlxwoz.jpg,,,,,,,<,Face,,,,,1,,,,,,,o
203,5,Presentation,4,00123931230fb_sunaalcrrdbjgdztbiz.jpg,00638941031fa_sunadfktsqjthoglcsm.jpg,,,,,,,>,Face,,,,,0,,,,,,,o
204,5,Presentation,4,01000960627fa_sunbvzmgrdvaakxusbu.jpg,00133931230fa_sunaanlwnpqndclffxt.jpg,,,,,,,<,Face,,,,,1,,,,,,,x
205,5,Presentation,4,00061931230fb_sunaaekxzjzrfgtkwjf.jpg,00112931230fa_sunaakjaacuzulqckgl.jpg,,,,,,,>,Face,,,,,1,,,,,,,o
206,5,Presentation,4,00093931230fa_sunaahwnmtqsrhocysw.jpg,00988960627fa_sunbmaiocftdtvnzgap.jpg,,,,,,,>,Place,,,,,1,,,,,,,o
207,5,Presentation,4,00077931230fb_sunaafgqutfaishsxyu.jpg,00154931230fa_sunaauueuhhvklldjik.jpg,,,,,,,<,Place,,,,,1,,,,,,,x
208,5,Presentation,4,00630941031fa_sunadakkdovnuzlycvp.jpg,00505960627fa_sunabzuqsrgcsonqlkz.jpg,,,,,,,<,Face,,,,,1,,,,,,,o
209,5,Presentation,4,00929960627fa_sunaprnrbmgkomdbchr.jpg,00122931230fa_sunaakxjfbrrequcjmx.jpg,,,,,,,>,Place,,,,,1,,,,,,,x
210,5,Memory,4,,,,,,,00122931230fa.jpg,,,,,,,,,,,,,,,
211,5,Memory,4,,,,,,,00719941201fa.jpg,,,,,,,,,,,,,,,
212,5,Memory,4,,,,,,,00809960620fa.jpg,,,,,,,,,,,,,,,
213,5,Memory,4,,,,,,,sunbvzmgrdvaakxusbu.jpg,,,,,,,,,,,,,,,
214,5,Memory,4,,,,,,,sunapileznnbbmrwoei.jpg,,,,,,,,,,,,,,,
215,5,Memory,4,,,,,,,00915960620fa.jpg,,,,,,,,,,,,,,,
216,5,Memory,4,,,,,,,sunalkiibhqpxfamlll.jpg,,,,,,,,,,,,,,,
217,5,Memory,4,,,,,,,sunadvithllcgmfxsrn.jpg,,,,,,,,,,,,,,,
218,5,Memory,4,,,,,,,sunabzuqsrgcsonqlkz.jpg,,,,,,,,,,,,,,,
219,5,Memory,4,,,,,,,sunahbvlpavurqoxdeq.jpg,,,,,,,,,,,,,,,
220,5,Memory,4,,,,,,,sunaqbmgkgqucajzrkp.jpg,,,,,,,,,,,,,,,
221,5,Memory,4,,,,,,,00787960620fa.jpg,,,,,,,,,,,,,,,
222,5,Memory,4,,,,,,,00292940422fb.jpg,,,,,,,,,,,,,,,
223,5,Memory,4,,,,,,,sunaahzooisqkwlxwoz.jpg,,,,,,,,,,,,,,,
224,5,Memory,4,,,,,,,sunagoufulkpsxrmklt.jpg,,,,,,,,,,,,,,,
225,5,Memory,4,,,,,,,00935960627fa.jpg,,,,,,,,,,,,,,,
226,5,Memory,4,,,,,,,sunbaoizrfijvhpnnjn.jpg,,,,,,,,,,,,,,,
227,5,Memory,4,,,,,,,00906960530fa.jpg,,,,,,,,,,,,,,,
228,5,Memory,4,,,,,,,00988960627fa.jpg,,,,,,,,,,,,,,,
229,5,Memory,4,,,,,,,00969960627fa.jpg,,,,,,,,,,,,,,,
230,5,Memory,4,,,,,,,00073931230fa.jpg,,,,,,,,,,,,,,,
231,5,Memory,4,,,,,,,00266940128fb.jpg,,,,,,,,,,,,,,,
232,5,Memory,4,,,,,,,01000960627fa.jpg,,,,,,,,,,,,,,,
233,5,Memory,4,,,,,,,sunadfktsqjthoglcsm.jpg,,,,,,,,,,,,,,,
234,5,Memory,4,,,,,,,sunabrjdpmoedcdjbpo.jpg,,,,,,,,,,,,,,,
235,5,Memory,4,,,,,,,00095931230fa.jpg,,,,,,,,,,,,,,,
236,5,Memory,4,,,,,,,sunaafbmtoniaasysgu.jpg,,,,,,,,,,,,,,,
237,5,Memory,4,,,,,,,00804960530fa.jpg,,,,,,,,,,,,,,,
238,5,Memory,4,,,,,,,sunbmaiocftdtvnzgap.jpg,,,,,,,,,,,,,,,
239,5,Memory,4,,,,,,,00061931230fb.jpg,,,,,,,,,,,,,,,
240,5,Memory,4,,,,,,,sunagwswhkvnsmuszlz.jpg,,,,,,,,,,,,,,,
241,5,Memory,4,,,,,,,sunantryfbloeaomfta.jpg,,,,,,,,,,,,,,,
242,5,Memory,4,,,,,,,00630941031fa.jpg,,,,,,,,,,,,,,,
243,5,Memory,4,,,,,,,sunabkngeblodihjvbk.jpg,,,,,,,,,,,,,,,
244,5,Memory,4,,,,,,,00891960530fa.jpg,,,,,,,,,,,,,,,
245,5,Memory,4,,,,,,,sunaakxjfbrrequcjmx.jpg,,,,,,,,,,,,,,,
246,5,Memory,4,,,,,,,sunadakkdovnuzlycvp.jpg,,,,,,,,,,,,,,,
247,5,Memory,4,,,,,,,00505960627fa.jpg,,,,,,,,,,,,,,,
248,5,Memory,4,,,,,,,sunaaekxzjzrfgtkwjf.jpg,,,,,,,,,,,,,,,
249,5,Memory,4,,,,,,,00638941031fa.jpg,,,,,,,,,,,,,,,
250,5,Presentation,5,00214940128fa_sunabbafjowbzcvbucc.jpg,01002960627fb_sunbwaafjdebjzttuvq.jpg,,,,,,,>,Face,,,,,1,,,,,,,o
251,5,Presentation,5,00982960627fa_sunbesrwkdsffeogeqq.jpg,00694941121fa_sunadrmfzmstgdjdcod.jpg,,,,,,,<,Place,,,,,0,,,,,,,x
252,5,Presentation,5,00902960530fa_sunanaacmmosxrfwmvl.jpg,00786941205fa_sunagmhildamktmqjss.jpg,,,,,,,<,Face,,,,,1,,,,,,,x
253,5,Presentation,5,00903960620fa_sunanainkqdvktzoxyl.jpg,00854940307fa_sunaiwduelojtwaqeyh.jpg,,,,,,,>,Face,,,,,1,,,,,,,o
254,5,Presentation,5,00126931230fb_sunaamdjwemxpmmtypi.jpg,00768941205fa_sunafkmnlytenlsywia.jpg,,,,,,,<,Place,,,,,1,,,,,,,x
255,5,Presentation,5,00271940422fa_sunabmbnddafmywtjjj.jpg,00866940307fa_sunajbwkywmsqkldfml.jpg,,,,,,,>,Place,,,,,1,,,,,,,x
256,5,Presentation,5,00227940128fa_sunabckqabszusgcykj.jpg,00762941201fa_sunafgzgbisbopcyslr.jpg,,,,,,,<,Face,,,,,1,,,,,,,x
257,5,Presentation,5,00260940128fa_sunabgfhvifeijihhjw.jpg,00905960530fa_sunanmoqeyprjjjfxjt.jpg,,,,,,,>,Place,,,,,1,,,,,,,x
258,5,Presentation,5,00749941201fa_sunaeuvjbmdpknaqqaj.jpg,00851940307fa_sunaivflshbyfrfzhqb.jpg,,,,,,,>,Face,,,,,1,,,,,,,o
259,5,Presentation,5,00650941031fa_sunadikxpvqeabxrvvc.jpg,00921960627fa_sunapqkpqdfvxlbqwyo.jpg,,,,,,,<,Place,,,,,1,,,,,,,o
260,5,Memory,5,,,,,,,00126931230fb.jpg,,,,,,,,,,,,,,,
261,5,Memory,5,,,,,,,01002960627fb.jpg,,,,,,,,,,,,,,,
262,5,Memory,5,,,,,,,sunagufzbeteqdjxais.jpg,,,,,,,,,,,,,,,
263,5,Memory,5,,,,,,,sunacepzfrmtkiqonpy.jpg,,,,,,,,,,,,,,,
264,5,Memory,5,,,,,,,00540940519fa.jpg,,,,,,,,,,,,,,,
265,5,Memory,5,,,,,,,00982960627fa.jpg,,,,,,,,,,,,,,,
266,5,Memory,5,,,,,,,00650941031fa.jpg,,,,,,,,,,,,,,,
267,5,Memory,5,,,,,,,sunafgzgbisbopcyslr.jpg,,,,,,,,,,,,,,,
268,5,Memory,5,,,,,,,sunacdnquypmsshhsbk.jpg,,,,,,,,,,,,,,,
269,5,Memory,5,,,,,,,00543940519fa.jpg,,,,,,,,,,,,,,,
270,5,Memory,5,,,,,,,sunanmoqeyprjjjfxjt.jpg,,,,,,,,,,,,,,,
271,5,Memory,5,,,,,,,sunaakvmbftkrgqhjun.jpg,,,,,,,,,,,,,,,
272,5,Memory,5,,,,,,,00749941201fa.jpg,,,,,,,,,,,,,,,
273,5,Memory,5,,,,,,,00805941205fa.jpg,,,,,,,,,,,,,,,
274,5,Memory,5,,,,,,,sunbwaafjdebjzttuvq.jpg,,,,,,,,,,,,,,,
275,5,Memory,5,,,,,,,00635941031fa.jpg,,,,,,,,,,,,,,,
276,5,Memory,5,,,,,,,sunanaacmmosxrfwmvl.jpg,,,,,,,,,,,,,,,
277,5,Memory,5,,,,,,,00866940307fa.jpg,,,,,,,,,,,,,,,
278,5,Memory,5,,,,,,,sunajbwkywmsqkldfml.jpg,,,,,,,,,,,,,,,
279,5,Memory,5,,,,,,,sunbwdrdvsweerwsdrj.jpg,,,,,,,,,,,,,,,
280,5,Memory,5,,,,,,,sunbesrwkdsffeogeqq.jpg,,,,,,,,,,,,,,,
281,5,Memory,5,,,,,,,sunapqkpqdfvxlbqwyo.jpg,,,,,,,,,,,,,,,
282,5,Memory,5,,,,,,,sunagwzdbtlixdhgolm.jpg,,,,,,,,,,,,,,,
283,5,Memory,5,,,,,,,sunbddbivbptlrlauhy.jpg,,,,,,,,,,,,,,,
284,5,Memory,5,,,,,,,00902960530fa.jpg,,,,,,,,,,,,,,,
285,5,Memory,5,,,,,,,sunacacflqoyxhsqzhe.jpg,,,,,,,,,,,,,,,
286,5,Memory,5,,,,,,,sunaeuvjbmdpknaqqaj.jpg,,,,,,,,,,,,,,,
287,5,Memory,5,,,,,,,sunaeouogqolxvggaoq.jpg,,,,,,,,,,,,,,,
288,5,Memory,5,,,,,,,01003960627fb.jpg,,,,,,,,,,,,,,,
289,5,Memory,5,,,,,,,00745941205fa.jpg,,,,,,,,,,,,,,,
290,5,Memory,5,,,,,,,00978960627fa.jpg,,,,,,,,,,,,,,,
291,5,Memory,5,,,,,,,00921960627fa.jpg,,,,,,,,,,,,,,,
292,5,Memory,5,,,,,,,00507940519fa.jpg,,,,,,,,,,,,,,,
293,5,Memory,5,,,,,,,sunaamdjwemxpmmtypi.jpg,,,,,,,,,,,,,,,
294,5,Memory,5,,,,,,,00119931230fb.jpg,,,,,,,,,,,,,,,
295,5,Memory,5,,,,,,,sunaddsaeicthrfbkhe.jpg,,,,,,,,,,,,,,,
296,5,Memory,5,,,,,,,00797960620fa.jpg,,,,,,,,,,,,,,,
297,5,Memory,5,,,,,,,00905960530fa.jpg,,,,,,,,,,,,,,,
298,5,Memory,5,,,,,,,00762941201fa.jpg,,,,,,,,,,,,,,,
299,5,Memory,5,,,,,,,sunadikxpvqeabxrvvc.jpg,,,,,,,,,,,,,,,
300,5,Presentation,6,00548940519fa_sunacerqowiaeoqkmsq.jpg,00931960627fa_sunaptrqvaooxfvktvw.jpg,,,,,,,<,Place,,,,,1,,,,,,,o
301,5,Presentation,6,00744941201fa_sunaeomlfaabhpswasy.jpg,00760960620fa_sunaffstbkappprzxnv.jpg,,,,,,,<,Face,,,,,1,,,,,,,x
302,5,Presentation,6,00812941205fa_sunahgtbwgsmtqeodwh.jpg,00772941201fa_sunafpfpiiujzoesnqg.jpg,,,,,,,>,Face,,,,,1,,,,,,,o
303,5,Presentation,6,00101931230fb_sunaajqmsaavkmgbsth.jpg,00864940307fa_sunajawzbrlrwafowen.jpg,,,,,,,<,Place,,,,,1,,,,,,,o
304,5,Presentation,6,00787941205fa_sunagmwxxwymwojbvgi.jpg,00997960627fa_sunbtpilbhhbmhmeuzq.jpg,,,,,,,>,Face,,,,,1,,,,,,,o
305,5,Presentation,6,00598941031fa_sunacxtcahkymosigud.jpg,00305940422fa_sunabtrnbvpppgczjim.jpg,,,,,,,>,Place,,,,,1,,,,,,,o
306,5,Presentation,6,00294940422fb_sunabrlndkruqokhury.jpg,00554940519fa_sunacfdkbsrughwqwtt.jpg,,,,,,,<,Face,,,,,1,,,,,,,x
307,5,Presentation,6,01005960627fa_sunbwyuesflwdpqtgoy.jpg,00198940128fb_sunaazezcsunmhttzxz.jpg,,,,,,,>,Place,,,,,1,,,,,,,x
308,5,Presentation,6,00750941201fa_sunaeuzwggvibufclwf.jpg,00559940519fa_sunacjkmnpawfzbyvae.jpg,,,,,,,>,Face,,,,,1,,,,,,,o
309,5,Presentation,6,00926960627Fa_sunapqwoeotxshkukbh.jpg,00862940307fa_sunaizgnnplsvajzhkc.jpg,,,,,,,<,Place,,,,,1,,,,,,,x
310,5,Memory,6,,,,,,,sunaalhlvzmjmitybdn.jpg,,,,,,,,,,,,,,,
311,5,Memory,6,,,,,,,sunbgklxeqjhdbyfhhy.jpg,,,,,,,,,,,,,,,
312,5,Memory,6,,,,,,,00294940422fb.jpg,,,,,,,,,,,,,,,
313,5,Memory,6,,,,,,,sunafpfpiiujzoesnqg.jpg,,,,,,,,,,,,,,,
314,5,Memory,6,,,,,,,00305940422fa.jpg,,,,,,,,,,,,,,,
315,5,Memory,6,,,,,,,sunbloeoiozwjjsiamp.jpg,,,,,,,,,,,,,,,
316,5,Memory,6,,,,,,,sunagvjurcwdbixvnyi.jpg,,,,,,,,,,,,,,,
317,5,Memory,6,,,,,,,sunaiycurtqsfkvcaso.jpg,,,,,,,,,,,,,,,
318,5,Memory,6,,,,,,,sunabanoxjtqxamkucc.jpg,,,,,,,,,,,,,,,
319,5,Memory,6,,,,,,,sunaizgnnplsvajzhkc.jpg,,,,,,,,,,,,,,,
320,5,Memory,6,,,,,,,00985960627fa.jpg,,,,,,,,,,,,,,,
321,5,Memory,6,,,,,,,sunaeomlfaabhpswasy.jpg,,,,,,,,,,,,,,,
322,5,Memory,6,,,,,,,sunabtrnbvpppgczjim.jpg,,,,,,,,,,,,,,,
323,5,Memory,6,,,,,,,sunagvprlbprarvgdvj.jpg,,,,,,,,,,,,,,,
324,5,Memory,6,,,,,,,00787941205fa.jpg,,,,,,,,,,,,,,,
325,5,Memory,6,,,,,,,sunacxtcahkymosigud.jpg,,,,,,,,,,,,,,,
326,5,Memory,6,,,,,,,00864940307fa.jpg,,,,,,,,,,,,,,,
327,5,Memory,6,,,,,,,sunagmwxxwymwojbvgi.jpg,,,,,,,,,,,,,,,
328,5,Memory,6,,,,,,,sunajawzbrlrwafowen.jpg,,,,,,,,,,,,,,,
329,5,Memory,6,,,,,,,00772941201fa.jpg,,,,,,,,,,,,,,,
330,5,Memory,6,,,,,,,00801941205fa.jpg,,,,,,,,,,,,,,,
331,5,Memory,6,,,,,,,00862940307fa.jpg,,,,,,,,,,,,,,,
332,5,Memory,6,,,,,,,00987960627fa.jpg,,,,,,,,,,,,,,,
333,5,Memory,6,,,,,,,00800941205fb.jpg,,,,,,,,,,,,,,,
334,5,Memory,6,,,,,,,00554940519fa.jpg,,,,,,,,,,,,,,,
335,5,Memory,6,,,,,,,00901960530fa.jpg,,,,,,,,,,,,,,,
336,5,Memory,6,,,,,,,sunaeuzwggvibufclwf.jpg,,,,,,,,,,,,,,,
337,5,Memory,6,,,,,,,00868960307fa.jpg,,,,,,,,,,,,,,,
338,5,Memory,6,,,,,,,00210940128fb.jpg,,,,,,,,,,,,,,,
339,5,Memory,6,,,,,,,sunabrlndkruqokhury.jpg,,,,,,,,,,,,,,,
340,5,Memory,6,,,,,,,00750941201fa.jpg,,,,,,,,,,,,,,,
341,5,Memory,6,,,,,,,00859940307fa.jpg,,,,,,,,,,,,,,,
342,5,Memory,6,,,,,,,00598941031fa.jpg,,,,,,,,,,,,,,,
343,5,Memory,6,,,,,,,sunammbnoambmhdxdwd.jpg,,,,,,,,,,,,,,,
344,5,Memory,6,,,,,,,00138931230fa.jpg,,,,,,,,,,,,,,,
345,5,Memory,6,,,,,,,00744941201fa.jpg,,,,,,,,,,,,,,,
346,5,Memory,6,,,,,,,sunacfdkbsrughwqwtt.jpg,,,,,,,,,,,,,,,
347,5,Memory,6,,,,,,,sunaapfaivxqoynnwwp.jpg,,,,,,,,,,,,,,,
348,5,Memory,6,,,,,,,00124931230fa.jpg,,,,,,,,,,,,,,,
349,5,Memory,6,,,,,,,sunajjxttslobudoqbv.jpg,,,,,,,,,,,,,,,
350,5,Presentation,7,00208940128fa_sunaazzyhbvqjpmazjq.jpg,00120931230fa_sunaakxgygjfqrzpyoz.jpg,,,,,,,>,Face,,,,,1,,,,,,,o
351,5,Presentation,7,00811960530fa_sunahedfrhtcwpneund.jpg,00723941201fa_sunaedtgwjvvziytspa.jpg,,,,,,,>,Place,,,,,1,,,,,,,x
352,5,Presentation,7,00728941205fa_sunaejnvnpltdmhbcsi.jpg,00751960620fa_sunaezuszgtxnmsxdbk.jpg,,,,,,,>,Face,,,,,1,,,,,,,o
353,5,Presentation,7,00913960530fa_sunaooffzffbhcpirmm.jpg,00280940422fb_sunabohxbskznglnrhv.jpg,,,,,,,<,Face,,,,,0,,,,,,,o
354,5,Presentation,7,00990960627fa_sunbpflsdaxnddnwcqi.jpg,00828940307fa_sunahuynahneraqftyz.jpg,,,,,,,<,Place,,,,,1,,,,,,,o
355,5,Presentation,7,00564941031fa_sunacsaovnjezqwbykf.jpg,00825940307fa_sunahrltmuwbiehihpe.jpg,,,,,,,>,Place,,,,,1,,,,,,,x
356,5,Presentation,7,00130931230fa_sunaamvxnvouicstkjb.jpg,00878960530fa_sunakgbnzxmfohgehnu.jpg,,,,,,,>,Face,,,,,0,,,,,,,x
357,5,Presentation,7,00818940307fa_sunahpblecxtmuzkmxb.jpg,00142931230fb_sunaapxkpvrhpjplsok.jpg,,,,,,,<,Place,,,,,1,,,,,,,x
358,5,Presentation,7,00869940307fa_sunajoveqhiprwqgoco.jpg,00955960627fb_sunauburywlkjszngcq.jpg,,,,,,,<,Face,,,,,1,,,,,,,o
359,5,Presentation,7,00858940307fa_sunaixpqndlwhwjtjek.jpg,00848940307fa_sunaivdylrawbmhryfp.jpg,,,,,,,<,Place,,,,,1,,,,,,,x
360,5,Memory,7,,,,,,,00955960627fb.jpg,,,,,,,,,,,,,,,
361,5,Memory,7,,,,,,,sunabtlfmiwtljmoues.jpg,,,,,,,,,,,,,,,
362,5,Memory,7,,,,,,,sunaezuszgtxnmsxdbk.jpg,,,,,,,,,,,,,,,
363,5,Memory,7,,,,,,,00751960620fa.jpg,,,,,,,,,,,,,,,
364,5,Memory,7,,,,,,,00130931230fa.jpg,,,,,,,,,,,,,,,
365,5,Memory,7,,,,,,,00705960530fa.jpg,,,,,,,,,,,,,,,
366,5,Memory,7,,,,,,,sunaixpqndlwhwjtjek.jpg,,,,,,,,,,,,,,,
367,5,Memory,7,,,,,,,00949960627fb.jpg,,,,,,,,,,,,,,,
368,5,Memory,7,,,,,,,00818940307fa.jpg,,,,,,,,,,,,,,,
369,5,Memory,7,,,,,,,00302940422fa.jpg,,,,,,,,,,,,,,,
370,5,Memory,7,,,,,,,sunahrltmuwbiehihpe.jpg,,,,,,,,,,,,,,,
371,5,Memory,7,,,,,,,00825940307fa.jpg,,,,,,,,,,,,,,,
372,5,Memory,7,,,,,,,00877960530fa.jpg,,,,,,,,,,,,,,,
373,5,Memory,7,,,,,,,00778941205fa.jpg,,,,,,,,,,,,,,,
374,5,Memory,7,,,,,,,sunbfzchmomnvzhbxdg.jpg,,,,,,,,,,,,,,,
375,5,Memory,7,,,,,,,00581940928fa.jpg,,,,,,,,,,,,,,,
376,5,Memory,7,,,,,,,00280940422fb.jpg,,,,,,,,,,,,,,,
377,5,Memory,7,,,,,,,sunaajayojuslbbnneg.jpg,,,,,,,,,,,,,,,
378,5,Memory,7,,,,,,,00811960530fa.jpg,,,,,,,,,,,,,,,
379,5,Memory,7,,,,,,,sunaaheqzstzxuadglu.jpg,,,,,,,,,,,,,,,
380,5,Memory,7,,,,,,,sunahedfrhtcwpneund.jpg,,,,,,,,,,,,,,,
381,5,Memory,7,,,,,,,00984960627fa.jpg,,,,,,,,,,,,,,,
382,5,Memory,7,,,,,,,suncnkvbhypnivcohyx.jpg,,,,,,,,,,,,,,,
383,5,Memory,7,,,,,,,00564941031fa.jpg,,,,,,,,,,,,,,,
384,5,Memory,7,,,,,,,sunasnqkkyhilqkxiqm.jpg,,,,,,,,,,,,,,,
385,5,Memory,7,,,,,,,sunahuynahneraqftyz.jpg,,,,,,,,,,,,,,,
386,5,Memory,7,,,,,,,sunahpblecxtmuzkmxb.jpg,,,,,,,,,,,,,,,
387,5,Memory,7,,,,,,,sunacvzhvcksnwqcqbw.jpg,,,,,,,,,,,,,,,
388,5,Memory,7,,,,,,,00828940307fa.jpg,,,,,,,,,,,,,,,
389,5,Memory,7,,,,,,,sunaamvxnvouicstkjb.jpg,,,,,,,,,,,,,,,
390,5,Memory,7,,,,,,,sunauburywlkjszngcq.jpg,,,,,,,,,,,,,,,
391,5,Memory,7,,,,,,,sunacsaovnjezqwbykf.jpg,,,,,,,,,,,,,,,
392,5,Memory,7,,,,,,,sunajxpkuhbizeveguy.jpg,,,,,,,,,,,,,,,
393,5,Memory,7,,,,,,,00092931230fa.jpg,,,,,,,,,,,,,,,
394,5,Memory,7,,,,,,,01010960627fa.jpg,,,,,,,,,,,,,,,
395,5,Memory,7,,,,,,,sunabohxbskznglnrhv.jpg,,,,,,,,,,,,,,,
396,5,Memory,7,,,,,,,00858940307fa.jpg,,,,,,,,,,,,,,,
397,5,Memory,7,,,,,,,sunagcthdfirrcawoic.jpg,,,,,,,,,,,,,,,
398,5,Memory,7,,,,,,,00097931230fa.jpg,,,,,,,,,,,,,,,
399,5,Memory,7,,,,,,,sunaduslxfzlbxlllnz.jpg,,,,,,,,,,,,,,,
