,Attention Button,Attention Level,Attention Probe,Attention Reaction Time (s),Category,Cue Validity,Cued Category,Cued Composite,Cued Face,Cued Place,Cued Side,Familiarity Rating,Familiarity Reaction Time (s),Memory Image,Post Invalid Cue,Pre Invalid Cue,Rating History,Run,Stimulus End,Stimulus Onset,Subject,Trial,Trial Type,Uncued Composite,Uncued Face,Uncued Place,Unnamed: 0.1,av_x_coord,av_y_coord,fix,state,time,timestamp,xRaw_lefteye,xRaw_righteye,yRaw_lefteye,yRaw_righteye,FamiliarityRating
0,1.0,,x,1.025055170059204,Face,1.0,Face,00532960627fa_sunaccdtpgenvcbcbcf.jpg,00532960627fa.jpg,sunaccdtpgenvcbcbcf.jpg,>,,,,,,,3.0,1551380632.078045,1551380629.031952,8.0,0.0,Presentation,00288940422fa_sunabppokiyglaxpcha.jpg,00288940422fa.jpg,sunabppokiyglaxpcha.jpg,150,29.319351689155393,22.177416130589428,0.9390243902439024,7.0,897437643.5853658,1551380631.0121946,957.8845878048784,1050.3439158536582,811.4643890243902,709.2727170731707,
1,3.0,,o,1.8405411243438718,Face,1.0,Face,00787960620fa_sunagoufulkpsxrmklt.jpg,00787960620fa.jpg,sunagoufulkpsxrmklt.jpg,<,,,,,,,3.0,1551380639.890176,1551380636.901223,8.0,1.0,Presentation,00857940307fa_sunaiwfobocrruqznsv.jpg,00857940307fa.jpg,sunaiwfobocrruqznsv.jpg,151,29.499407181377112,22.61526518518518,1.0,7.0,897444513.84127,1551380637.857143,963.396473015873,1057.1649285714284,816.5775317460315,734.1835095238098,
2,1.0,,x,1.0865249633789062,Face,1.0,Face,00130931230fa_sunaamvxnvouicstkjb.jpg,00130931230fa.jpg,sunaamvxnvouicstkjb.jpg,<,,,,,,,3.0,1551380648.4931462,1551380645.504407,8.0,2.0,Presentation,00568940928fa_sunacsdhbbsybcyxnel.jpg,00568940928fa.jpg,sunacsdhbbsybcyxnel.jpg,152,29.369256975790897,22.569125905349804,1.0,7.0,897453649.839506,1551380647.0,932.8915197530864,1078.7552456790124,821.6038,725.9934049382715,
3,1.0,,x,0.9232819080352784,Face,1.0,Place,00967960627fa_sunbaejotfklekvpxcz.jpg,00967960627fa.jpg,sunbaejotfklekvpxcz.jpg,>,,,,,,,3.0,1551380656.336956,1551380653.353514,8.0,3.0,Presentation,00929960627fa_sunaprnrbmgkomdbchr.jpg,00929960627fa.jpg,sunaprnrbmgkomdbchr.jpg,153,29.9389820239258,23.141927943376068,0.8717948717948718,7.0,897461697.051282,1551380655.0384614,956.4481166666665,1094.221956410257,835.2436743589743,751.6313846153847,
4,3.0,,o,1.0681018829345703,Face,1.0,Place,00062931230fb_sunaaelotvjgibjtjhs.jpg,00062931230fb.jpg,sunaaelotvjgibjtjhs.jpg,<,,,,,,,3.0,1551380664.056226,1551380661.071869,8.0,4.0,Presentation,00663941121fa_sunadnjjzohjhbohlwq.jpg,00663941121fa.jpg,sunadnjjzohjhbohlwq.jpg,154,29.79341544087471,22.59856535601265,1.0,7.0,897469628.5316455,1551380663.0,941.6554379746837,1099.04405443038,816.2505772151898,733.3653329113922,
5,1.0,,x,0.8728280067443848,Face,1.0,Face,00829940307fa_sunahwgbqkqcrwprgvh.jpg,00829940307fa.jpg,sunahwgbqkqcrwprgvh.jpg,>,,,,,,,3.0,1551380671.9086778,1551380668.9282384,8.0,5.0,Presentation,00108960530fa_sunaajtnvzzpsjdzres.jpg,00108960530fa.jpg,sunaajtnvzzpsjdzres.jpg,155,29.862307608786196,22.961185303308824,0.6911764705882353,7.0,897476687.3382351,1551380670.0441177,893.6822676470587,1151.735992647059,828.1921073529409,746.2891705882356,
6,3.0,,o,0.6679098606109619,Face,1.0,Place,00893960530Fa_sunaloffvbvysigxent.jpg,00893960530Fa.jpg,sunaloffvbvysigxent.jpg,<,,,,,,,3.0,1551380679.5837688,1551380676.592798,8.0,6.0,Presentation,00071941031fa_sunaaexqbtdswxrqjvz.jpg,00071941031fa.jpg,sunaaexqbtdswxrqjvz.jpg,156,30.49383560306378,22.376438535447765,0.7014925373134329,7.0,897484716.6716418,1551380678.074627,931.5770761194028,1157.0976835820898,798.9433373134327,735.4410194029849,
7,3.0,,o,1.918532133102417,Face,1.0,Face,00131931230fb_sunaangbuylfvckqqoo.jpg,00131931230fb.jpg,sunaangbuylfvckqqoo.jpg,>,,,,,,,3.0,1551380687.029362,1551380684.050168,8.0,7.0,Presentation,00126931230fb_sunaamdjwemxpmmtypi.jpg,00126931230fb.jpg,sunaamdjwemxpmmtypi.jpg,157,29.740327936868105,22.43330925551471,1.0,7.0,897492839.4411764,1551380686.1617644,932.6043,1104.458964705882,811.5252029411763,726.7588602941178,
8,1.0,,x,1.8258039951324463,Face,1.0,Place,00096931230fa_sunaaiqiqcggrskoqgy.jpg,00096931230fa.jpg,sunaaiqiqcggrskoqgy.jpg,<,,,,,,,3.0,1551380695.703554,1551380692.71953,8.0,8.0,Presentation,00953960627fa_sunatstrpjxhvtbaczf.jpg,00953960627fa.jpg,sunatstrpjxhvtbaczf.jpg,158,29.371880101207385,22.54284945075758,0.8939393939393939,7.0,897500828.3333334,1551380694.1666667,922.6253954545456,1089.2010409090908,799.2355227272728,746.5598681818179,
9,3.0,,o,1.3931658267974854,Face,1.0,Place,00960960627fa_sunawksfbacycuhbrsc.jpg,00960960627fa.jpg,sunawksfbacycuhbrsc.jpg,>,,,,,,,3.0,1551380704.307806,1551380701.317678,8.0,9.0,Presentation,00952960627fa_sunathzzbcwjykldrem.jpg,00952960627fa.jpg,sunathzzbcwjykldrem.jpg,159,29.392372173407825,22.0719545806962,1.0,7.0,897509624.4050633,1551380702.9746835,921.7017848101268,1091.5282556962025,798.8252164556958,714.6802405063289,
160,,Side,,,Place,,Face,,,,,1.0,1.482,sunaloffvbvysigxent.jpg,,,,3.0,1551380712.0736132,1551380709.991536,8.0,,Memory,,,,160,30.49383560306378,,,,,,,,,,1.0
161,,Side,,,Place,,Face,,,,,1.0,1.571,sunagoufulkpsxrmklt.jpg,,,,3.0,1551380715.327008,1551380713.343628,8.0,,Memory,,,,161,29.499407181377112,,,,,,,,,,1.0
162,,Novel,,,Face,,,,,,,1.0,1.7719999999999998,00901960530fa.jpg,,,,3.0,1551380718.725609,1551380716.7267618,8.0,,Memory,,,,162,,,,,,,,,,,1.0
163,,Novel,,,Place,,,,,,,1.0,1.726,sunagjeesomrwjsfqie.jpg,,,,3.0,1551380722.011635,1551380719.995241,8.0,,Memory,,,,163,,,,,,,,,,,1.0
164,,Novel,,,Face,,,,,,,2.0,1.859,00989960627fa.jpg,,,,3.0,1551380725.310086,1551380723.296834,8.0,,Memory,,,,164,,,,,,,,,,,2.0
165,,None,,,Place,,Face,,,,,1.0,1.808,sunaaexqbtdswxrqjvz.jpg,,,,3.0,1551380728.5939689,1551380726.58014,8.0,,Memory,,,,165,30.49383560306378,,,,,,,,,,1.0
166,,Novel,,,Place,,,,,,,2.0,1.357,sunadtlxenqqxsyjvix.jpg,,,,3.0,1551380731.882927,1551380729.848476,8.0,,Memory,,,,166,,,,,,,,,,,2.0
167,,Novel,,,Place,,,,,,,1.0,1.6230000000000002,sunagjzcrjvmxzqzljx.jpg,,,,3.0,1551380735.304761,1551380733.266715,8.0,,Memory,,,,167,,,,,,,,,,,1.0
168,,Novel,,,Face,,,,,,,3.0,1.476,00834940307fa.jpg,,,,3.0,1551380738.61698,1551380736.566985,8.0,,Memory,,,,168,,,,,,,,,,,3.0
169,,Category,,,Face,,Face,,,,,1.0,1.818,00071941031fa.jpg,,,,3.0,1551380741.9068382,1551380739.919111,8.0,,Memory,,,,169,30.49383560306378,,,,,,,,,,1.0
170,,Novel,,,Place,,,,,,,1.0,1.6569999999999998,sunaibnpvhkdpdnzcnz.jpg,,,,3.0,1551380745.332511,1551380743.186242,8.0,,Memory,,,,170,,,,,,,,,,,1.0
171,,Side,,,Place,,Face,,,,,3.0,1.383,sunaangbuylfvckqqoo.jpg,,,,3.0,1551380748.607568,1551380746.599049,8.0,,Memory,,,,171,29.740327936868105,,,,,,,,,,3.0
172,,Novel,,,Place,,,,,,,1.0,1.376,sunbondbduabvijnmch.jpg,,,,3.0,1551380751.968405,1551380749.887651,8.0,,Memory,,,,172,,,,,,,,,,,1.0
173,,Side,,,Place,,Face,,,,,3.0,0.158,sunbaejotfklekvpxcz.jpg,,,,3.0,1551380755.2729518,1551380753.235594,8.0,,Memory,,,,173,29.9389820239258,,,,,,,,,,3.0
174,,Full,,,Face,,Face,,,,,2.0,1.319,00096931230fa.jpg,,,,3.0,1551380758.587091,1551380756.5354972,8.0,,Memory,,,,174,29.371880101207385,,,,,,,,,,2.0
175,,Novel,,,Place,,,,,,,1.0,1.075,sunabtlfmiwtljmoues.jpg,,,,3.0,1551380761.875296,1551380759.853703,8.0,,Memory,,,,175,,,,,,,,,,,1.0
176,,None,,,Place,,Face,,,,,1.0,1.176,sunatstrpjxhvtbaczf.jpg,,,,3.0,1551380765.175958,1551380763.159908,8.0,,Memory,,,,176,29.371880101207385,,,,,,,,,,1.0
177,,Category,,,Face,,Face,,,,,2.0,1.421,00663941121fa.jpg,,,,3.0,1551380768.4304788,1551380766.438633,8.0,,Memory,,,,177,29.79341544087471,,,,,,,,,,2.0
178,,Full,,,Face,,Face,,,,,1.0,1.381,00893960530Fa.jpg,,,,3.0,1551380771.731313,1551380769.729322,8.0,,Memory,,,,178,30.49383560306378,,,,,,,,,,1.0
179,,Novel,,,Face,,,,,,,2.0,1.085,00784941205fb.jpg,,,,3.0,1551380775.011317,1551380773.0133214,8.0,,Memory,,,,179,,,,,,,,,,,2.0
180,,Novel,,,Face,,,,,,,3.0,0.7190000000000001,00705941205fa.jpg,,,,3.0,1551380778.28498,1551380776.275642,8.0,,Memory,,,,180,,,,,,,,,,,3.0
181,,Novel,,,Face,,,,,,,2.0,1.358,00093931230fa.jpg,,,,3.0,1551380781.578024,1551380779.548022,8.0,,Memory,,,,181,,,,,,,,,,,2.0
182,,Novel,,,Face,,,,,,,2.0,1.358,00783941205fa.jpg,,,,3.0,1551380784.879195,1551380782.8454866,8.0,,Memory,,,,182,,,,,,,,,,,2.0
183,,None,,,Place,,Face,,,,,4.0,1.004,sunadnjjzohjhbohlwq.jpg,,,,3.0,1551380788.155827,1551380786.133544,8.0,,Memory,,,,183,29.79341544087471,,,,,,,,,,4.0
184,,Novel,,,Place,,,,,,,1.0,0.935,sunaeisnjeetzmkbuad.jpg,,,,3.0,1551380791.417598,1551380789.4170866,8.0,,Memory,,,,184,,,,,,,,,,,1.0
185,,Category,,,Face,,Face,,,,,2.0,0.97,00953960627fa.jpg,,,,3.0,1551380794.686533,1551380792.685889,8.0,,Memory,,,,185,29.371880101207385,,,,,,,,,,2.0
186,,Novel,,,Face,,,,,,,1.0,1.166,00727941205fa.jpg,,,,3.0,1551380797.971459,1551380795.98648,8.0,,Memory,,,,186,,,,,,,,,,,1.0
187,,Full,,,Face,,Face,,,,,3.0,0.504,00967960627fa.jpg,,,,3.0,1551380801.250451,1551380799.254407,8.0,,Memory,,,,187,29.9389820239258,,,,,,,,,,3.0
188,,Full,,,Face,,Face,,,,,1.0,0.835,00787960620fa.jpg,,,,3.0,1551380804.4854019,1551380802.5042,8.0,,Memory,,,,188,29.499407181377112,,,,,,,,,,1.0
189,,Novel,,,Place,,,,,,,2.0,1.166,sunammbnoambmhdxdwd.jpg,,,,3.0,1551380807.836526,1551380805.7517948,8.0,,Memory,,,,189,,,,,,,,,,,2.0
190,,None,,,Place,,Face,,,,,1.0,1.291,sunaajtnvzzpsjdzres.jpg,,,,3.0,1551380811.1216679,1551380809.091356,8.0,,Memory,,,,190,29.862307608786196,,,,,,,,,,1.0
191,,Novel,,,Face,,,,,,,2.0,1.137,00866940307fa.jpg,,,,3.0,1551380814.389815,1551380812.374209,8.0,,Memory,,,,191,,,,,,,,,,,2.0
192,,None,,,Place,,Face,,,,,1.0,1.208,sunaamdjwemxpmmtypi.jpg,,,,3.0,1551380817.674931,1551380815.659293,8.0,,Memory,,,,192,29.740327936868105,,,,,,,,,,1.0
193,,Full,,,Face,,Face,,,,,2.0,0.941,00131931230fb.jpg,,,,3.0,1551380821.06128,1551380818.9446368,8.0,,Memory,,,,193,29.740327936868105,,,,,,,,,,2.0
194,,Category,,,Face,,Face,,,,,1.0,0.873,00108960530fa.jpg,,,,3.0,1551380824.39199,1551380822.3287349,8.0,,Memory,,,,194,29.862307608786196,,,,,,,,,,1.0
195,,Category,,,Face,,Face,,,,,2.0,0.982,00126931230fb.jpg,,,,3.0,1551380827.645139,1551380825.6626039,8.0,,Memory,,,,195,29.740327936868105,,,,,,,,,,2.0
196,,Novel,,,Place,,,,,,,4.0,1.49,sunaahwnmtqsrhocysw.jpg,,,,3.0,1551380830.959739,1551380828.915183,8.0,,Memory,,,,196,,,,,,,,,,,4.0
197,,Side,,,Place,,Face,,,,,2.0,1.29,sunaaiqiqcggrskoqgy.jpg,,,,3.0,1551380834.228898,1551380832.231108,8.0,,Memory,,,,197,29.371880101207385,,,,,,,,,,2.0
198,,Novel,,,Place,,,,,,,1.0,1.3659999999999999,sunajbwkywmsqkldfml.jpg,,,,3.0,1551380837.514951,1551380835.498399,8.0,,Memory,,,,198,,,,,,,,,,,1.0
199,,Novel,,,Face,,,,,,,1.0,1.666,00302940422fa.jpg,,,,3.0,1551380840.813575,1551380838.7835288,8.0,,Memory,,,,199,,,,,,,,,,,1.0
10,1.0,,x,0.9502880573272704,Face,1.0,Face,00805941205fa_sunagwzdbtlixdhgolm.jpg,00805941205fa.jpg,sunagwzdbtlixdhgolm.jpg,<,,,,,,,2.0,1551380248.371041,1551380245.323469,8.0,0.0,Presentation,00935960627fa_sunaqbmgkgqucajzrkp.jpg,00935960627fa.jpg,sunaqbmgkgqucajzrkp.jpg,100,29.28802817382812,20.535046069078945,0.3684210526315789,7.0,897054227.2894738,1551380247.5,912.8325605263157,1093.2504394736839,667.4268210526318,740.6906236842108,
11,1.0,,x,1.288696050643921,Face,1.0,Place,00793941205fa_sunagtjwilqjvxohypn.jpg,00793941205fa.jpg,sunagtjwilqjvxohypn.jpg,>,,,,,,,2.0,1551380256.10608,1551380253.1225278,8.0,1.0,Presentation,00921960627fa_sunapqkpqdfvxlbqwyo.jpg,00921960627fa.jpg,sunapqkpqdfvxlbqwyo.jpg,101,30.17811474133454,20.68763105485232,0.7341772151898734,7.0,897061627.4556963,1551380254.987342,932.0622240506328,1134.9872405063288,675.2630050632912,743.3174101265822,
12,3.0,,o,1.2975201606750488,Face,0.0,Place,00869940307fa_sunajoveqhiprwqgoco.jpg,00869940307fa.jpg,sunajoveqhiprwqgoco.jpg,>,,,,,,,2.0,1551380264.195034,1551380261.2117221,8.0,2.0,Presentation,00266940128fb_sunabkngeblodihjvbk.jpg,00266940128fb.jpg,sunabkngeblodihjvbk.jpg,102,29.863095292227055,20.42011158227848,0.8734177215189873,7.0,897069641.0253164,1551380263.0,947.6684594936713,1097.8037531645566,668.3836594936711,731.8525632911392,
13,1.0,,x,0.7640919685363771,Face,1.0,Place,00636941031fa_sunaddtdkycxbqlpfqa.jpg,00636941031fa.jpg,sunaddtdkycxbqlpfqa.jpg,>,,,,,,,2.0,1551380272.249003,1551380269.2606616,8.0,3.0,Presentation,00773941201fa_sunafvcflzhlqloapyo.jpg,00773941201fa.jpg,sunafvcflzhlqloapyo.jpg,103,29.620973245335627,20.603296184210524,0.8947368421052632,7.0,897077556.6578947,1551380270.9342105,930.2251263157897,1098.6629407894732,673.1808065789472,739.6166460526315,
14,3.0,,o,0.9303379058837892,Face,1.0,Face,00909960530_sunaobtizabegtwfwul.jpg,00909960530.jpg,sunaobtizabegtwfwul.jpg,>,,,,,,,2.0,1551380279.772927,1551380276.78391,8.0,4.0,Presentation,00969960627fa_sunbaoizrfijvhpnnjn.jpg,00969960627fa.jpg,sunbaoizrfijvhpnnjn.jpg,104,29.64178533064559,21.15200425112613,1.0,7.0,897084640.1891893,1551380278.0,936.7740905405403,1093.5395,678.1639945945948,772.259154054054,
15,3.0,,o,0.7388329505920409,Face,1.0,Place,00771941205fa_sunafowswglhxcsufpo.jpg,00771941205fa.jpg,sunafowswglhxcsufpo.jpg,<,,,,,,,2.0,1551380287.467279,1551380284.485769,8.0,5.0,Presentation,00790941205fa_sunagpjzsbltchlwvou.jpg,00790941205fa.jpg,sunagpjzsbltchlwvou.jpg,105,29.905078733146414,20.95260393145161,0.7903225806451613,7.0,897092565.9193547,1551380285.9193554,956.4290419354843,1091.9188258064512,682.7330048387095,754.016979032258,
16,3.0,,o,1.0198969841003418,Face,1.0,Place,00720960620fa_sunaecpkgfewqqreqwe.jpg,00720960620fa.jpg,sunaecpkgfewqqreqwe.jpg,<,,,,,,,2.0,1551380294.959321,1551380291.970768,8.0,6.0,Presentation,00773960620fa_sunafvsxtzaizojicxx.jpg,00773960620fa.jpg,sunafvsxtzaizojicxx.jpg,106,29.86818443391925,21.18541285,0.8533333333333334,7.0,897099720.9733334,1551380293.0666664,921.0796999999997,1124.7410933333335,687.6142319999997,765.0997920000003,
17,3.0,,x,1.0647649765014648,Face,1.0,Face,00127931230fa_sunaampvucecsfbdafn.jpg,00127931230fa.jpg,sunaampvucecsfbdafn.jpg,<,,,,,,,2.0,1551380302.744223,1551380299.753562,8.0,7.0,Presentation,00296940422fa_sunabrwnslxalcohfre.jpg,00296940422fa.jpg,sunabrwnslxalcohfre.jpg,107,29.73028096492814,20.650347677469142,0.8888888888888888,7.0,897107644.1111113,1551380301.0,917.5009975308644,1118.8741000000002,671.3193283950617,744.7045123456792,
18,1.0,,x,0.7480578422546387,Face,1.0,Face,00955960627fb_sunauburywlkjszngcq.jpg,00955960627fb.jpg,sunauburywlkjszngcq.jpg,>,,,,,,,2.0,1551380310.597311,1551380307.611113,8.0,8.0,Presentation,00819940307fa_sunahqldjibofgsfdgb.jpg,00819940307fa.jpg,sunahqldjibofgsfdgb.jpg,108,29.092226637259827,21.504217232545038,0.6621621621621622,7.0,897115661.3243244,1551380309.0135136,868.8349378378376,1123.8366391891893,684.7400027027024,789.8348932432434,
19,1.0,,x,0.7940549850463867,Face,1.0,Face,00835940307fa_sunaijsqpvodplbwxkf.jpg,00835940307fa.jpg,sunaijsqpvodplbwxkf.jpg,<,,,,,,,2.0,1551380318.101136,1551380315.109017,8.0,9.0,Presentation,00162931230fb_sunaavjinpnkappuonm.jpg,00162931230fb.jpg,sunaavjinpnkappuonm.jpg,109,29.87316018762208,22.345456291666668,0.85,7.0,897123650.85,1551380317.0125,931.21987375,1114.94173375,703.5857587500003,828.67410125,
200,,Novel,,,Place,,,,,,,,0.0,sunbdycacjfaujxitbw.jpg,,,,2.0,1551380325.111845,1551380323.033594,8.0,,Memory,,,,110,,,,,,,,,,,
201,,None,,,Place,,Face,,,,,3.0,1.2209999999999999,sunaavjinpnkappuonm.jpg,,,,2.0,1551380328.434075,1551380326.4005814,8.0,,Memory,,,,111,29.87316018762208,,,,,,,,,,3.0
202,,Novel,,,Place,,,,,,,1.0,1.068,sunaahedjlmtqekgyvj.jpg,,,,2.0,1551380331.716929,1551380329.7182634,8.0,,Memory,,,,112,,,,,,,,,,,1.0
203,,Novel,,,Face,,,,,,,2.0,1.382,00314940422fa.jpg,,,,2.0,1551380335.073369,1551380333.002382,8.0,,Memory,,,,113,,,,,,,,,,,2.0
204,,Category,,,Face,,Face,,,,,3.0,1.67,00935960627fa.jpg,,,,2.0,1551380338.338535,1551380336.349144,8.0,,Memory,,,,114,29.28802817382812,,,,,,,,,,3.0
205,,Side,,,Place,,Face,,,,,2.0,1.324,sunaobtizabegtwfwul.jpg,,,,2.0,1551380341.686336,1551380339.639141,8.0,,Memory,,,,115,29.64178533064559,,,,,,,,,,2.0
206,,Novel,,,Face,,,,,,,2.0,1.5519999999999998,00996960627fa.jpg,,,,2.0,1551380345.019356,1551380342.9735222,8.0,,Memory,,,,116,,,,,,,,,,,2.0
207,,Side,,,Place,,Face,,,,,1.0,1.7409999999999999,sunaijsqpvodplbwxkf.jpg,,,,2.0,1551380348.338908,1551380346.30748,8.0,,Memory,,,,117,29.87316018762208,,,,,,,,,,1.0
208,,Full,,,Face,,Face,,,,,3.0,1.258,00835940307fa.jpg,,,,2.0,1551380351.604344,1551380349.591139,8.0,,Memory,,,,118,29.87316018762208,,,,,,,,,,3.0
209,,Novel,,,Face,,,,,,,2.0,0.987,00197940128fa.jpg,,,,2.0,1551380354.86358,1551380352.8760786,8.0,,Memory,,,,119,,,,,,,,,,,2.0
210,,Novel,,,Face,,,,,,,2.0,1.4569999999999999,00184940128fa.jpg,,,,2.0,1551380358.096524,1551380356.105005,8.0,,Memory,,,,120,,,,,,,,,,,2.0
211,,Full,,,Face,,Face,,,,,1.0,1.335,00955960627fb.jpg,,,,2.0,1551380361.361327,1551380359.377642,8.0,,Memory,,,,121,29.092226637259827,,,,,,,,,,1.0
212,,None,,,Place,,Face,,,,,3.0,0.591,sunaqbmgkgqucajzrkp.jpg,,,,2.0,1551380364.662714,1551380362.6295528,8.0,,Memory,,,,122,29.28802817382812,,,,,,,,,,3.0
213,,Novel,,,Face,,,,,,,2.0,0.9079999999999999,00589940928fa.jpg,,,,2.0,1551380367.976596,1551380365.946851,8.0,,Memory,,,,123,,,,,,,,,,,2.0
214,,Novel,,,Place,,,,,,,1.0,1.123,sunabwmcbaxwioksdgw.jpg,,,,2.0,1551380371.265194,1551380369.248356,8.0,,Memory,,,,124,,,,,,,,,,,1.0
215,,Side,,,Place,,Face,,,,,2.0,1.238,sunaecpkgfewqqreqwe.jpg,,,,2.0,1551380374.5282052,1551380372.531169,8.0,,Memory,,,,125,29.86818443391925,,,,,,,,,,2.0
216,,Full,,,Face,,Face,,,,,3.0,1.122,00909960530.jpg,,,,2.0,1551380377.798219,1551380375.800328,8.0,,Memory,,,,126,29.64178533064559,,,,,,,,,,3.0
217,,Category,,,Face,,Face,,,,,2.0,1.226,00296940422fa.jpg,,,,2.0,1551380381.082908,1551380379.0511868,8.0,,Memory,,,,127,29.73028096492814,,,,,,,,,,2.0
218,,Full,,,Face,,Face,,,,,1.0,0.9840000000000001,00720960620fa.jpg,,,,2.0,1551380384.34906,1551380382.3466446,8.0,,Memory,,,,128,29.86818443391925,,,,,,,,,,1.0
219,,Novel,,,Place,,,,,,,3.0,1.507,sunakodkcslgqhqlgwl.jpg,,,,2.0,1551380387.649695,1551380385.603427,8.0,,Memory,,,,129,,,,,,,,,,,3.0
220,,Category,,,Face,,Face,,,,,3.0,1.105,00162931230fb.jpg,,,,2.0,1551380390.92073,1551380388.9042811,8.0,,Memory,,,,130,29.87316018762208,,,,,,,,,,3.0
221,,Category,,,Face,,Face,,,,,3.0,1.5,00969960627fa.jpg,,,,2.0,1551380394.202558,1551380392.183712,8.0,,Memory,,,,131,29.64178533064559,,,,,,,,,,3.0
222,,None,,,Place,,Face,,,,,3.0,1.465,sunafvcflzhlqloapyo.jpg,,,,2.0,1551380397.6402972,1551380395.55577,8.0,,Memory,,,,132,29.620973245335627,,,,,,,,,,3.0
223,,Novel,,,Place,,,,,,,2.0,1.068,sunaavtbadenwnzeutj.jpg,,,,2.0,1551380400.953845,1551380398.907604,8.0,,Memory,,,,133,,,,,,,,,,,2.0
224,,Side,,,Place,,Face,,,,,1.0,1.192,sunauburywlkjszngcq.jpg,,,,2.0,1551380404.221962,1551380402.207828,8.0,,Memory,,,,134,29.092226637259827,,,,,,,,,,1.0
225,,Category,,,Face,,Face,,,,,1.0,1.252,00773941201fa.jpg,,,,2.0,1551380407.504849,1551380405.493634,8.0,,Memory,,,,135,29.620973245335627,,,,,,,,,,1.0
226,,Novel,,,Face,,,,,,,1.0,1.208,00086931230fa.jpg,,,,2.0,1551380410.7899132,1551380408.773013,8.0,,Memory,,,,136,,,,,,,,,,,1.0
227,,Novel,,,Place,,,,,,,1.0,1.2930000000000001,sunacwggadqsfpovdjv.jpg,,,,2.0,1551380414.158895,1551380412.044699,8.0,,Memory,,,,137,,,,,,,,,,,1.0
228,,Side,,,Place,,Face,,,,,4.0,1.141,sunaddtdkycxbqlpfqa.jpg,,,,2.0,1551380417.462133,1551380415.429826,8.0,,Memory,,,,138,29.620973245335627,,,,,,,,,,4.0
229,,Novel,,,Face,,,,,,,2.0,1.385,00090931230fa.jpg,,,,2.0,1551380420.714943,1551380418.7264,8.0,,Memory,,,,139,,,,,,,,,,,2.0
230,,Novel,,,Place,,,,,,,1.0,1.175,sunabanoxjtqxamkucc.jpg,,,,2.0,1551380424.050725,1551380421.98125,8.0,,Memory,,,,140,,,,,,,,,,,1.0
231,,Novel,,,Face,,,,,,,2.0,1.205,00979960627fa.jpg,,,,2.0,1551380427.329192,1551380425.3322198,8.0,,Memory,,,,141,,,,,,,,,,,2.0
232,,Novel,,,Face,,,,,,,3.0,1.3319999999999999,00210940128fb.jpg,,,,2.0,1551380430.583603,1551380428.5842106,8.0,,Memory,,,,142,,,,,,,,,,,3.0
233,,Novel,,,Face,,,,,,,1.0,1.1,00884960530fa.jpg,,,,2.0,1551380433.916525,1551380431.868402,8.0,,Memory,,,,143,,,,,,,,,,,1.0
234,,None,,,Place,,Face,,,,,1.0,1.3530000000000002,sunbaoizrfijvhpnnjn.jpg,,,,2.0,1551380437.217007,1551380435.164553,8.0,,Memory,,,,144,29.64178533064559,,,,,,,,,,1.0
235,,Novel,,,Place,,,,,,,1.0,1.125,sunbpvgllfdejxcpjqp.jpg,,,,2.0,1551380440.519827,1551380438.520434,8.0,,Memory,,,,145,,,,,,,,,,,1.0
236,,Novel,,,Place,,,,,,,1.0,1.499,sunaaylzyqlqrsmfwif.jpg,,,,2.0,1551380443.82214,1551380441.788993,8.0,,Memory,,,,146,,,,,,,,,,,1.0
237,,None,,,Place,,Face,,,,,2.0,1.4080000000000001,sunabrwnslxalcohfre.jpg,,,,2.0,1551380447.1516821,1551380445.105839,8.0,,Memory,,,,147,29.73028096492814,,,,,,,,,,2.0
238,,Novel,,,Place,,,,,,,1.0,1.158,sunaafynehyrzpsoaml.jpg,,,,2.0,1551380450.4064689,1551380448.402426,8.0,,Memory,,,,148,,,,,,,,,,,1.0
239,,Full,,,Face,,Face,,,,,3.0,1.422,00636941031fa.jpg,,,,2.0,1551380453.6785948,1551380451.669691,8.0,,Memory,,,,149,29.620973245335627,,,,,,,,,,3.0
20,1.0,,x,1.401508092880249,Face,1.0,Face,00841940307fa_sunaisiwfgppimtnmxl.jpg,00841940307fa.jpg,sunaisiwfgppimtnmxl.jpg,<,,,,,,,0.0,1551379356.035916,1551379352.950548,8.0,0.0,Presentation,00895960530fa_sunamczizlzavhzhpay.jpg,00895960530fa.jpg,sunamczizlzavhzhpay.jpg,0,39.28681524244658,17.738383839285714,0.3979591836734694,7.0,896161095.9795918,1551379354.4795918,1180.175336734693,1510.7744163265309,640.5291704081634,575.81715,
21,3.0,,x,0.6851649284362793,Face,1.0,Face,00089931230fa_sunaagcpoejbuzyvddd.jpg,00089931230fa.jpg,sunaagcpoejbuzyvddd.jpg,>,,,,,,,0.0,1551379364.501492,1551379361.499738,8.0,1.0,Presentation,00776941205fa_sunafxokyavhgptyfye.jpg,00776941205fa.jpg,sunafxokyavhgptyfye.jpg,1,39.49345651024071,17.04115837556306,0.47297297297297297,7.0,896169754.3783783,1551379363.0810812,1204.6694000000005,1500.4342432432434,631.5610608108109,536.9755135135136,
22,1.0,,x,0.7818620204925537,Face,1.0,Place,00750941201fa_sunaeuzwggvibufclwf.jpg,00750941201fa.jpg,sunaeuzwggvibufclwf.jpg,>,,,,,,,0.0,1551379372.823343,1551379369.82226,8.0,2.0,Presentation,00926960627Fa_sunapqwoeotxshkukbh.jpg,00926960627Fa.jpg,sunapqwoeotxshkukbh.jpg,2,39.62260132970675,17.74104504107981,0.30985915492957744,7.0,896177727.5211267,1551379371.0704224,1184.3525436619718,1529.5968718309866,656.4384577464788,560.0903450704225,
23,3.0,,o,0.7370731830596924,Face,1.0,Place,00675941121fa_sunadoxcchtmsxewsau.jpg,00675941121fa.jpg,sunadoxcchtmsxewsau.jpg,<,,,,,,,0.0,1551379380.9886699,1551379377.97578,8.0,3.0,Presentation,00125931230fa_sunaalltyvjhbzhkmvg.jpg,00125931230fa.jpg,sunaalltyvjhbzhkmvg.jpg,3,38.606984805729155,17.906014680555558,0.18666666666666668,7.0,896185673.5733334,1551379379.0266664,1122.944685333333,1521.4400933333332,655.3254919999998,572.5155146666667,
24,1.0,,x,0.6550858020782471,Face,1.0,Place,00978960627fa_sunbddbivbptlrlauhy.jpg,00978960627fa.jpg,sunbddbivbptlrlauhy.jpg,>,,,,,,,0.0,1551379388.8852198,1551379385.894836,8.0,4.0,Presentation,00957960627fa_sunavhxgmgrqsaptynb.jpg,00957960627fa.jpg,sunavhxgmgrqsaptynb.jpg,4,39.0636450953468,18.421677347972967,0.3648648648648649,7.0,896193598.4324324,1551379386.9594595,1169.8850175675675,1505.7786999999994,689.9808945945947,573.2198378378379,
25,1.0,,x,1.9301109313964844,Face,0.0,Face,00742941201fa_sunaenwuebvlpdmntju.jpg,00742941201fa.jpg,sunaenwuebvlpdmntju.jpg,<,,,,,,,0.0,1551379397.0821779,1551379394.060003,8.0,5.0,Presentation,01005960627fa_sunbwyuesflwdpqtgoy.jpg,01005960627fa.jpg,sunbwyuesflwdpqtgoy.jpg,5,39.3733449665002,18.534887476265823,0.4556962025316456,7.0,896202632.9746836,1551379396.0,1174.9909772151896,1521.8856278481014,716.7069632911392,554.256749367089,
26,1.0,,x,0.7889301776885986,Face,1.0,Place,00965960627fa_sunaydywdmvlfddbxbk.jpg,00965960627fa.jpg,sunaydywdmvlfddbxbk.jpg,>,,,,,,,0.0,1551379406.463964,1551379403.462513,8.0,6.0,Presentation,00681941121fa_sunadqmjrhfjyuzyvdd.jpg,00681941121fa.jpg,sunadqmjrhfjyuzyvdd.jpg,6,39.14943294166667,17.526782894444445,0.24,7.0,896211628.3733332,1551379405.0133333,1165.3195413333335,1516.220213333333,653.988576,547.8479653333329,
27,3.0,,o,0.6717600822448729,Face,1.0,Face,00574940928fa_sunacvbrcejzwmcgnoq.jpg,00574940928fa.jpg,sunacvbrcejzwmcgnoq.jpg,<,,,,,,,0.0,1551379414.484935,1551379411.481873,8.0,7.0,Presentation,00158931230fb_sunaavchcbptaerhcfy.jpg,00158931230fb.jpg,sunaavchcbptaerhcfy.jpg,7,38.792413694069616,17.908187916666666,0.6883116883116883,7.0,896219616.194805,1551379412.987013,1177.5913506493507,1479.4943766233769,666.4743285714287,561.5157,
28,1.0,,o,1.6215970516204834,Face,1.0,Face,00984960627fa_sunbfzchmomnvzhbxdg.jpg,00984960627fa.jpg,sunbfzchmomnvzhbxdg.jpg,>,,,,,,,0.0,1551379423.0356786,1551379420.037766,8.0,8.0,Presentation,00839940307fa_sunaipyohrqlwngaqif.jpg,00839940307fa.jpg,sunaipyohrqlwngaqif.jpg,8,39.188722651236965,17.872318741666668,0.5866666666666667,7.0,896228734.8533334,1551379422.08,1182.2062506666666,1502.0246520000005,676.5688880000001,548.9615400000001,
29,3.0,,o,0.9721739292144777,Face,1.0,Place,00306940422fa_sunabueyoajufbkraki.jpg,00306940422fa.jpg,sunabueyoajufbkraki.jpg,<,,,,,,,0.0,1551379432.3559651,1551379429.341422,8.0,9.0,Presentation,00796941205fa_sunaguchqqnrtodtezq.jpg,00796941205fa.jpg,sunaguchqqnrtodtezq.jpg,9,38.633083266601574,18.186690436698715,0.3461538461538461,7.0,896237858.1153846,1551379431.1538465,1167.9867192307693,1478.1856730769225,669.3526942307693,577.7346500000001,
80,,Side,,,Place,,Face,,,,,4.0,1.528,sunadoxcchtmsxewsau.jpg,,,,0.0,1551379449.482461,1551379445.531218,8.0,,Memory,,,,10,38.606984805729155,,,,,,,,,,4.0
81,,None,,,Place,,Face,,,,,2.0,2.312,sunamczizlzavhzhpay.jpg,,,,0.0,1551379454.716907,1551379450.799513,8.0,,Memory,,,,11,39.28681524244658,,,,,,,,,,2.0
82,,Novel,,,Place,,,,,,,2.0,2.4459999999999997,sunacxeheuiigkcgquf.jpg,,,,0.0,1551379459.98529,1551379456.0346599,8.0,,Memory,,,,12,,,,,,,,,,,2.0
83,,Novel,,,Place,,,,,,,,3.0189999999999997,sunablfqiwfqomjarht.jpg,,,,0.0,1551379465.2535439,1551379461.302881,8.0,,Memory,,,,13,,,,,,,,,,,
84,,Side,,,Place,,Face,,,,,3.0,0.245,sunabueyoajufbkraki.jpg,,,,0.0,1551379470.4554858,1551379466.55492,8.0,,Memory,,,,14,38.633083266601574,,,,,,,,,,3.0
85,,Category,,,Face,,Face,,,,,4.0,0.9279999999999999,00125931230fa.jpg,,,,0.0,1551379475.656498,1551379471.772475,8.0,,Memory,,,,15,38.606984805729155,,,,,,,,,,4.0
86,,Novel,,,Place,,,,,,,2.0,2.261,sundbixjudsgeuuehrn.jpg,,,,0.0,1551379480.85936,1551379476.924498,8.0,,Memory,,,,16,,,,,,,,,,,2.0
87,,Novel,,,Place,,,,,,,3.0,1.611,sunagvxkjokqimstxpe.jpg,,,,0.0,1551379486.077855,1551379482.159873,8.0,,Memory,,,,17,,,,,,,,,,,3.0
88,,Novel,,,Face,,,,,,,3.0,1.579,00882960530fa.jpg,,,,0.0,1551379491.295711,1551379487.395334,8.0,,Memory,,,,18,,,,,,,,,,,3.0
89,,Novel,,,Face,,,,,,,3.0,1.276,01207940128fa.jpg,,,,0.0,1551379496.513852,1551379492.6137972,8.0,,Memory,,,,19,,,,,,,,,,,3.0
90,,None,,,Place,,Face,,,,,4.0,1.077,sunaalltyvjhbzhkmvg.jpg,,,,0.0,1551379501.732347,1551379497.816184,8.0,,Memory,,,,20,38.606984805729155,,,,,,,,,,4.0
91,,Novel,,,Face,,,,,,,2.0,1.979,00804960530fa.jpg,,,,0.0,1551379507.000638,1551379503.050094,8.0,,Memory,,,,21,,,,,,,,,,,2.0
92,,Side,,,Place,,Face,,,,,4.0,0.81,sunaagcpoejbuzyvddd.jpg,,,,0.0,1551379512.2189536,1551379508.318469,8.0,,Memory,,,,22,39.49345651024071,,,,,,,,,,4.0
93,,Category,,,Face,,Face,,,,,2.0,1.311,00895960530fa.jpg,,,,0.0,1551379517.47123,1551379513.520359,8.0,,Memory,,,,23,39.28681524244658,,,,,,,,,,2.0
94,,None,,,Place,,Face,,,,,3.0,1.5090000000000001,sunaavchcbptaerhcfy.jpg,,,,0.0,1551379522.673418,1551379518.77125,8.0,,Memory,,,,24,38.792413694069616,,,,,,,,,,3.0
95,,None,,,Place,,Face,,,,,3.0,1.261,sunapqwoeotxshkukbh.jpg,,,,0.0,1551379527.908385,1551379524.0068786,8.0,,Memory,,,,25,39.62260132970675,,,,,,,,,,3.0
96,,Category,,,Face,,Face,,,,,1.0,2.41,00158931230fb.jpg,,,,0.0,1551379533.176588,1551379529.274941,8.0,,Memory,,,,26,38.792413694069616,,,,,,,,,,1.0
97,,Full,,,Face,,Face,,,,,3.0,1.344,00675941121fa.jpg,,,,0.0,1551379538.378274,1551379534.476268,8.0,,Memory,,,,27,38.606984805729155,,,,,,,,,,3.0
98,,Novel,,,Face,,,,,,,2.0,1.376,00770941201fa.jpg,,,,0.0,1551379543.596428,1551379539.677726,8.0,,Memory,,,,28,,,,,,,,,,,2.0
99,,Novel,,,Face,,,,,,,3.0,1.109,00111931230fb.jpg,,,,0.0,1551379548.8148036,1551379544.913526,8.0,,Memory,,,,29,,,,,,,,,,,3.0
100,,Novel,,,Place,,,,,,,3.0,1.8780000000000001,sunagwswhkvnsmuszlz.jpg,,,,0.0,1551379554.032193,1551379550.131356,8.0,,Memory,,,,30,,,,,,,,,,,3.0
101,,Novel,,,Face,,,,,,,3.0,1.1440000000000001,00598940928fa.jpg,,,,0.0,1551379559.20128,1551379555.332417,8.0,,Memory,,,,31,,,,,,,,,,,3.0
102,,Novel,,,Place,,,,,,,1.0,2.093,sunaakgekhjklxmvulj.jpg,,,,0.0,1551379564.3864698,1551379560.501415,8.0,,Memory,,,,32,,,,,,,,,,,1.0
103,,Novel,,,Place,,,,,,,2.0,2.511,sunaknlirqjqiwbbeeg.jpg,,,,0.0,1551379569.62162,1551379565.685917,8.0,,Memory,,,,33,,,,,,,,,,,2.0
104,,Novel,,,Place,,,,,,,2.0,1.412,sunaflojskatpeqyzqp.jpg,,,,0.0,1551379574.889138,1551379570.938235,8.0,,Memory,,,,34,,,,,,,,,,,2.0
105,,Full,,,Face,,Face,,,,,2.0,2.28,00978960627fa.jpg,,,,0.0,1551379580.0738358,1551379576.190934,8.0,,Memory,,,,35,39.0636450953468,,,,,,,,,,2.0
106,,Full,,,Face,,Face,,,,,1.0,1.63,00574940928fa.jpg,,,,0.0,1551379585.258897,1551379581.359444,8.0,,Memory,,,,36,38.792413694069616,,,,,,,,,,1.0
107,,Novel,,,Place,,,,,,,4.0,1.329,sunafijbgncijwykrnl.jpg,,,,0.0,1551379590.4779232,1551379586.5600019,8.0,,Memory,,,,37,,,,,,,,,,,4.0
108,,Side,,,Place,,Face,,,,,4.0,1.679,sunacvbrcejzwmcgnoq.jpg,,,,0.0,1551379595.697095,1551379591.777496,8.0,,Memory,,,,38,38.792413694069616,,,,,,,,,,4.0
109,,Side,,,Place,,Face,,,,,4.0,0.996,sunbddbivbptlrlauhy.jpg,,,,0.0,1551379600.931295,1551379596.995713,8.0,,Memory,,,,39,39.0636450953468,,,,,,,,,,4.0
110,,Novel,,,Face,,,,,,,2.0,1.278,00803941205fa.jpg,,,,0.0,1551379606.1328778,1551379602.2308881,8.0,,Memory,,,,40,,,,,,,,,,,2.0
111,,Novel,,,Face,,,,,,,3.0,1.577,00267940128fb.jpg,,,,0.0,1551379611.30136,1551379607.451796,8.0,,Memory,,,,41,,,,,,,,,,,3.0
112,,Full,,,Face,,Face,,,,,3.0,1.179,00306940422fa.jpg,,,,0.0,1551379616.469702,1551379612.586314,8.0,,Memory,,,,42,38.633083266601574,,,,,,,,,,3.0
113,,Full,,,Face,,Face,,,,,1.0,2.042,00089931230fa.jpg,,,,0.0,1551379621.688452,1551379617.770877,8.0,,Memory,,,,43,39.49345651024071,,,,,,,,,,1.0
114,,Category,,,Face,,Face,,,,,3.0,1.226,00796941205fa.jpg,,,,0.0,1551379626.906215,1551379623.005875,8.0,,Memory,,,,44,38.633083266601574,,,,,,,,,,3.0
115,,Category,,,Face,,Face,,,,,1.0,1.476,00926960627Fa.jpg,,,,0.0,1551379632.1243026,1551379628.206451,8.0,,Memory,,,,45,39.62260132970675,,,,,,,,,,1.0
116,,Novel,,,Place,,,,,,,4.0,1.2109999999999999,sunagmhildamktmqjss.jpg,,,,0.0,1551379637.361445,1551379633.424813,8.0,,Memory,,,,46,,,,,,,,,,,4.0
117,,Novel,,,Face,,,,,,,2.0,1.2109999999999999,00766960620fa.jpg,,,,0.0,1551379642.5626314,1551379638.660815,8.0,,Memory,,,,47,,,,,,,,,,,2.0
118,,Novel,,,Face,,,,,,,1.0,1.51,00786941205fa.jpg,,,,0.0,1551379647.764243,1551379643.879089,8.0,,Memory,,,,48,,,,,,,,,,,1.0
119,,None,,,Place,,Face,,,,,4.0,0.975,sunaguchqqnrtodtezq.jpg,,,,0.0,1551379652.949203,1551379649.08075,8.0,,Memory,,,,49,38.633083266601574,,,,,,,,,,4.0
30,1.0,,x,1.5149650573730469,Face,1.0,Place,00939960627fa_sunarceibpcyacbmfga.jpg,00939960627fa.jpg,sunarceibpcyacbmfga.jpg,>,,,,,,,1.0,1551379849.661869,1551379846.644051,8.0,0.0,Presentation,00825940307fa_sunahrltmuwbiehihpe.jpg,00825940307fa.jpg,sunahrltmuwbiehihpe.jpg,50,35.445025207899306,23.452218027777768,0.1111111111111111,7.0,896654856.4222223,1551379848.2444446,967.7238377777776,1460.082571111111,735.4257866666667,872.7263066666667,
31,3.0,,o,0.8675379753112793,Face,1.0,Face,00725941201fa_sunaefgzwiramypjvtd.jpg,00725941201fa.jpg,sunaefgzwiramypjvtd.jpg,<,,,,,,,1.0,1551379857.9608948,1551379854.9922528,8.0,1.0,Presentation,00101931230fb_sunaajqmsaavkmgbsth.jpg,00101931230fb.jpg,sunaajqmsaavkmgbsth.jpg,51,29.808903570911035,21.128221370967747,0.967741935483871,7.0,896662624.1612903,1551379855.967742,960.311658064516,1081.4486935483874,683.6293322580648,765.1629903225805,
32,3.0,,o,1.52184796333313,Face,1.0,Face,00082931230fa_sunaafvitpexrpvumsa.jpg,00082931230fa.jpg,sunaafvitpexrpvumsa.jpg,>,,,,,,,1.0,1551379865.595784,1551379862.6325474,8.0,2.0,Presentation,00077931230fb_sunaafgqutfaishsxyu.jpg,00077931230fb.jpg,sunaafgqutfaishsxyu.jpg,52,30.492645259556365,21.453731187500004,0.7857142857142857,7.0,896670645.557143,1551379863.9857142,998.8469642857144,1089.7462628571432,696.2209371428571,774.8920585714287,
33,1.0,,x,0.7646260261535645,Face,1.0,Face,00576941031fa_sunacvjlsylseoghjup.jpg,00576941031fa.jpg,sunacvjlsylseoghjup.jpg,<,,,,,,,1.0,1551379873.885713,1551379870.914662,8.0,3.0,Presentation,00242940128fa_sunabcuurugvxwparpk.jpg,00242940128fa.jpg,sunabcuurugvxwparpk.jpg,53,30.6100292265625,21.19072327604166,0.875,7.0,896678653.825,1551379872.0,973.3844625000003,1123.2489775000001,693.0210287499997,760.05713875,
34,3.0,,o,0.6186399459838867,Face,1.0,Place,00950960627fa_sunasrjlmglmjzbmqxb.jpg,00950960627fa.jpg,sunasrjlmglmjzbmqxb.jpg,<,,,,,,,1.0,1551379881.384042,1551379878.421559,8.0,4.0,Presentation,00828940307fa_sunahuynahneraqftyz.jpg,00828940307fa.jpg,sunahuynahneraqftyz.jpg,54,30.176007954915363,21.151739209401715,0.8846153846153846,7.0,896686613.551282,1551379879.9615386,968.1819782051282,1098.723182051282,680.814026923077,769.5909474358972,
35,3.0,,o,1.550936937332153,Face,1.0,Place,00280940422fb_sunabohxbskznglnrhv.jpg,00280940422fb.jpg,sunabohxbskznglnrhv.jpg,<,,,,,,,1.0,1551379888.737627,1551379885.7688394,8.0,5.0,Presentation,00124931230fa_sunaalhlvzmjmitybdn.jpg,00124931230fa.jpg,sunaalhlvzmjmitybdn.jpg,55,29.959341961588546,21.657495922222232,0.6933333333333334,7.0,896693711.2,1551379887.0533333,965.5814560000003,1086.4831706666664,693.2015759999997,791.8838586666667,
36,1.0,,x,0.7612679004669191,Face,1.0,Place,00894960620fa_sunalqmfgeadpqsyzpd.jpg,00894960620fa.jpg,sunalqmfgeadpqsyzpd.jpg,<,,,,,,,1.0,1551379897.046295,1551379894.072065,8.0,6.0,Presentation,00540940519fa_sunacdnquypmsshhsbk.jpg,00540940519fa.jpg,sunacdnquypmsshhsbk.jpg,56,30.42105659868632,22.031698296232875,0.7671232876712328,7.0,896702729.0958904,1551379896.0547945,999.1422602739723,1084.547502739726,704.0215726027403,806.7234534246576,
37,3.0,,o,0.9314661026000975,Face,1.0,Face,00860940307fa_sunaizeyhvjzknwjudw.jpg,00860940307fa.jpg,sunaizeyhvjzknwjudw.jpg,>,,,,,,,1.0,1551379904.566679,1551379901.595209,8.0,7.0,Presentation,00163931230fb_sunaavodbcpygkggnfp.jpg,00163931230fb.jpg,sunaavodbcpygkggnfp.jpg,57,30.36299051047584,21.323931022727283,0.7272727272727273,7.0,896709691.5974026,1551379903.051948,1000.0258818181818,1079.6866454545452,693.4797441558443,768.7326688311691,
38,1.0,,x,0.8929049968719482,Face,0.0,Face,00868960307fa_sunajjxttslobudoqbv.jpg,00868960307fa.jpg,sunajjxttslobudoqbv.jpg,>,,,,,,,1.0,1551379912.269272,1551379909.2939231,8.0,8.0,Presentation,00705960530fa_sunaduslxfzlbxlllnz.jpg,00705960530fa.jpg,sunaduslxfzlbxlllnz.jpg,58,30.37649583172686,21.95119191287879,0.8701298701298701,7.0,896717688.1428572,1551379911.051948,993.0273454545454,1087.6102285714285,706.0215324675328,799.2030558441562,
39,1.0,,x,1.3051650524139404,Face,1.0,Place,00146960620fb_sunaatpeezlljqaxlhj.jpg,00146960620fb.jpg,sunaatpeezlljqaxlhj.jpg,>,,,,,,,1.0,1551379919.896818,1551379916.932808,8.0,9.0,Presentation,00290940422fa_sunabqowuarvqqcnipn.jpg,00290940422fa.jpg,sunabqowuarvqqcnipn.jpg,59,30.9176992921875,21.646204183333325,0.8133333333333334,7.0,896724685.6,1551379918.08,1012.9248946666664,1104.7824013333334,697.8506573333334,786.4604866666667,
120,,Novel,,,Face,,,,,,,,0.0,00938960627fa.jpg,,,,1.0,1551379929.457118,1551379927.3865302,8.0,,Memory,,,,60,,,,,,,,,,,
121,,Novel,,,Place,,,,,,,,0.0,sunaygrtwrwfezqjizr.jpg,,,,1.0,1551379932.721848,1551379930.73725,8.0,,Memory,,,,61,,,,,,,,,,,
122,,Full,,,Place,,Place,,,,,4.0,0.633,sunalqmfgeadpqsyzpd.jpg,,,,1.0,1551379935.990819,1551379934.006357,8.0,,Memory,,,,62,30.42105659868632,,,,,,,,,,4.0
123,,None,,,Face,,Place,,,,,3.0,1.305,00124931230fa.jpg,,,,1.0,1551379939.374192,1551379937.3893142,8.0,,Memory,,,,63,29.959341961588546,,,,,,,,,,3.0
124,,Novel,,,Face,,,,,,,1.0,1.14,00785941205fa.jpg,,,,1.0,1551379942.628133,1551379940.640583,8.0,,Memory,,,,64,,,,,,,,,,,1.0
125,,Novel,,,Place,,,,,,,3.0,1.206,sunaekgzpfilgjxpeyq.jpg,,,,1.0,1551379945.977558,1551379943.9769552,8.0,,Memory,,,,65,,,,,,,,,,,3.0
126,,Category,,,Place,,Place,,,,,3.0,1.199,sunaavodbcpygkggnfp.jpg,,,,1.0,1551379949.223701,1551379947.239219,8.0,,Memory,,,,66,30.36299051047584,,,,,,,,,,3.0
127,,Side,,,Face,,Place,,,,,3.0,1.341,00146960620fb.jpg,,,,1.0,1551379952.457015,1551379950.473793,8.0,,Memory,,,,67,30.9176992921875,,,,,,,,,,3.0
128,,None,,,Face,,Place,,,,,,0.0,00242940128fa.jpg,,,,1.0,1551379955.69573,1551379953.708094,8.0,,Memory,,,,68,30.6100292265625,,,,,,,,,,
129,,None,,,Face,,Place,,,,,2.0,1.9040000000000001,00163931230fb.jpg,,,,1.0,1551379958.933142,1551379956.945962,8.0,,Memory,,,,69,30.36299051047584,,,,,,,,,,2.0
130,,Novel,,,Face,,,,,,,3.0,1.558,01002960627fb.jpg,,,,1.0,1551379962.19795,1551379960.197479,8.0,,Memory,,,,70,,,,,,,,,,,3.0
131,,Novel,,,Place,,,,,,,4.0,0.9390000000000001,sunacvzhvcksnwqcqbw.jpg,,,,1.0,1551379965.481165,1551379963.5000231,8.0,,Memory,,,,71,,,,,,,,,,,4.0
132,,Novel,,,Face,,,,,,,3.0,0.973,00906960530fa.jpg,,,,1.0,1551379968.734247,1551379966.748986,8.0,,Memory,,,,72,,,,,,,,,,,3.0
133,,Novel,,,Place,,,,,,,1.0,1.032,sunbwaafjdebjzttuvq.jpg,,,,1.0,1551379971.963301,1551379969.9803526,8.0,,Memory,,,,73,,,,,,,,,,,1.0
134,,Side,,,Face,,Place,,,,,3.0,0.991,00576941031fa.jpg,,,,1.0,1551379975.219834,1551379973.214416,8.0,,Memory,,,,74,30.6100292265625,,,,,,,,,,3.0
135,,Category,,,Place,,Place,,,,,2.0,1.2830000000000001,sunaajqmsaavkmgbsth.jpg,,,,1.0,1551379978.454449,1551379976.4695768,8.0,,Memory,,,,75,29.808903570911035,,,,,,,,,,2.0
136,,Novel,,,Place,,,,,,,1.0,1.1179999999999999,sunacypmnujalygkunp.jpg,,,,1.0,1551379981.706333,1551379979.716044,8.0,,Memory,,,,76,,,,,,,,,,,1.0
137,,Full,,,Place,,Place,,,,,,0.0,sunarceibpcyacbmfga.jpg,,,,1.0,1551379984.9519038,1551379982.971457,8.0,,Memory,,,,77,35.445025207899306,,,,,,,,,,
138,,Novel,,,Place,,,,,,,4.0,1.405,sunaqyylsngywqzwfmx.jpg,,,,1.0,1551379988.1910381,1551379986.206046,8.0,,Memory,,,,78,,,,,,,,,,,4.0
139,,Novel,,,Face,,,,,,,2.0,1.47,00620940928fa.jpg,,,,1.0,1551379991.442433,1551379989.452792,8.0,,Memory,,,,79,,,,,,,,,,,2.0
140,,Novel,,,Place,,,,,,,2.0,1.349,sunaedtgwjvvziytspa.jpg,,,,1.0,1551379994.691978,1551379992.708821,8.0,,Memory,,,,80,,,,,,,,,,,2.0
141,,Category,,,Place,,Place,,,,,1.0,1.298,sunaalhlvzmjmitybdn.jpg,,,,1.0,1551379998.006778,1551379996.0258741,8.0,,Memory,,,,81,29.959341961588546,,,,,,,,,,1.0
142,,Novel,,,Place,,,,,,,2.0,1.6230000000000002,sunantryfbloeaomfta.jpg,,,,1.0,1551380001.243074,1551379999.26001,8.0,,Memory,,,,82,,,,,,,,,,,2.0
143,,Novel,,,Place,,,,,,,1.0,1.284,sunabjuovqvyfuzvqwt.jpg,,,,1.0,1551380004.514514,1551380002.528866,8.0,,Memory,,,,83,,,,,,,,,,,1.0
144,,Novel,,,Face,,,,,,,3.0,1.218,00581940928fa.jpg,,,,1.0,1551380007.759489,1551380005.7751482,8.0,,Memory,,,,84,,,,,,,,,,,3.0
145,,Novel,,,Place,,,,,,,1.0,1.391,sunaglqunwuycxydmyu.jpg,,,,1.0,1551380010.993394,1551380009.01347,8.0,,Memory,,,,85,,,,,,,,,,,1.0
146,,Novel,,,Face,,,,,,,2.0,1.601,00966960627fa.jpg,,,,1.0,1551380014.2280366,1551380012.247818,8.0,,Memory,,,,86,,,,,,,,,,,2.0
147,,None,,,Face,,Place,,,,,3.0,1.268,00101931230fb.jpg,,,,1.0,1551380017.4834368,1551380015.499109,8.0,,Memory,,,,87,29.808903570911035,,,,,,,,,,3.0
148,,Category,,,Place,,Place,,,,,1.0,1.234,sunacdnquypmsshhsbk.jpg,,,,1.0,1551380020.730495,1551380018.745476,8.0,,Memory,,,,88,30.42105659868632,,,,,,,,,,1.0
149,,Side,,,Face,,Place,,,,,3.0,1.17,00894960620fa.jpg,,,,1.0,1551380023.967039,1551380021.979219,8.0,,Memory,,,,89,30.42105659868632,,,,,,,,,,3.0
150,,Full,,,Place,,Place,,,,,3.0,1.1159999999999999,sunaatpeezlljqaxlhj.jpg,,,,1.0,1551380027.203964,1551380025.219156,8.0,,Memory,,,,90,30.9176992921875,,,,,,,,,,3.0
151,,Novel,,,Face,,,,,,,2.0,1.056,00723941201fa.jpg,,,,1.0,1551380030.454845,1551380028.465978,8.0,,Memory,,,,91,,,,,,,,,,,2.0
152,,Novel,,,Face,,,,,,,2.0,1.0070000000000001,00263940128fb.jpg,,,,1.0,1551380033.706507,1551380031.716527,8.0,,Memory,,,,92,,,,,,,,,,,2.0
153,,Full,,,Place,,Place,,,,,1.0,0.9520000000000001,sunaefgzwiramypjvtd.jpg,,,,1.0,1551380036.970103,1551380034.9885,8.0,,Memory,,,,93,29.808903570911035,,,,,,,,,,1.0
154,,Full,,,Place,,Place,,,,,2.0,1.09,sunacvjlsylseoghjup.jpg,,,,1.0,1551380040.226904,1551380038.239873,8.0,,Memory,,,,94,30.6100292265625,,,,,,,,,,2.0
155,,Novel,,,Face,,,,,,,1.0,0.924,00730960620fa.jpg,,,,1.0,1551380043.478759,1551380041.486419,8.0,,Memory,,,,95,,,,,,,,,,,1.0
156,,None,,,Face,,Place,,,,,2.0,1.024,00540940519fa.jpg,,,,1.0,1551380046.711493,1551380044.721232,8.0,,Memory,,,,96,30.42105659868632,,,,,,,,,,2.0
157,,Side,,,Face,,Place,,,,,3.0,1.024,00939960627fa.jpg,,,,1.0,1551380049.959631,1551380047.9758198,8.0,,Memory,,,,97,35.445025207899306,,,,,,,,,,3.0
158,,Category,,,Place,,Place,,,,,3.0,0.44,sunabcuurugvxwparpk.jpg,,,,1.0,1551380053.195607,1551380051.206023,8.0,,Memory,,,,98,30.6100292265625,,,,,,,,,,3.0
159,,Side,,,Face,,Place,,,,,2.0,1.099,00725941201fa.jpg,,,,1.0,1551380056.51595,1551380054.527816,8.0,,Memory,,,,99,29.808903570911035,,,,,,,,,,2.0
40,3.0,,o,1.1771540641784668,Face,1.0,Place,00999960627fa_sunbvbrvgbpanfrawft.jpg,00999960627fa.jpg,sunbvbrvgbpanfrawft.jpg,>,,,,,,,5.0,1551381894.994576,1551381891.943466,8.0,0.0,Presentation,00977960627fa_sunbbxkanhzjgbwyxqs.jpg,00977960627fa.jpg,sunbbxkanhzjgbwyxqs.jpg,250,31.099593800911457,22.73094786666666,0.6666666666666666,7.0,898699726.7866666,1551381893.08,1001.0396413333336,1129.1265160000005,761.8474933333334,796.8460746666664,
41,3.0,,o,0.7527890205383301,Face,1.0,Face,00943960627fa_sunarpsxqkduedrrzyi.jpg,00943960627fa.jpg,sunarpsxqkduedrrzyi.jpg,>,,,,,,,5.0,1551381902.991857,1551381899.991326,8.0,1.0,Presentation,00794960620fa_sunagtqhhwxjeuxdebe.jpg,00794960620fa.jpg,sunagtqhhwxjeuxdebe.jpg,251,30.95713194335938,22.342447783816425,0.8405797101449275,7.0,898707645.5362319,1551381900.9855072,978.1761826086956,1142.2320521739127,743.8990898550726,788.1544724637679,
42,1.0,,x,0.9656858444213868,Face,1.0,Place,00751960620fa_sunaezuszgtxnmsxdbk.jpg,00751960620fa.jpg,sunaezuszgtxnmsxdbk.jpg,<,,,,,,,5.0,1551381910.562096,1551381907.560312,8.0,2.0,Presentation,00149931230fa_sunaauglwmctnkxyird.jpg,00149931230fa.jpg,sunaauglwmctnkxyird.jpg,252,29.63321057492277,23.07527270348837,0.4651162790697674,7.0,898715253.6279068,1551381908.6511624,884.2528116279071,1145.4734511627905,785.1557674418608,797.1486465116278,
43,3.0,,x,0.9199380874633788,Face,1.0,Place,00903960620fa_sunanainkqdvktzoxyl.jpg,00903960620fa.jpg,sunanainkqdvktzoxyl.jpg,<,,,,,,,5.0,1551381918.34004,1551381915.329735,8.0,3.0,Presentation,00958960627fa_sunavspxmxubqaeidjt.jpg,00958960627fa.jpg,sunavspxmxubqaeidjt.jpg,253,32.143738568289606,22.42892302083333,0.6071428571428571,7.0,898723345.6071428,1551381916.7142856,966.552725,1235.132110714286,721.0618214285713,816.9214714285715,
44,1.0,,x,2.4409639835357666,Face,1.0,Face,00670941121fa_sunadochqcucscehsgk.jpg,00670941121fa.jpg,sunadochqcucscehsgk.jpg,<,,,,,,,5.0,1551381926.043279,1551381923.0320606,8.0,4.0,Presentation,00858940307fa_sunaixpqndlwhwjtjek.jpg,00858940307fa.jpg,sunaixpqndlwhwjtjek.jpg,254,29.19487807322185,23.1113391796875,0.3333333333333333,7.0,898731518.625,1551381924.9166667,867.9255395833333,1131.7771458333332,808.1557437499997,776.6217999999999,
45,3.0,,o,0.8557338714599609,Face,1.0,Place,00775941205fa_sunafvwfsmqkjrutjta.jpg,00775941205fa.jpg,sunafvwfsmqkjrutjta.jpg,>,,,,,,,5.0,1551381935.2867026,1551381932.284583,8.0,5.0,Presentation,00154931230fa_sunaauueuhhvklldjik.jpg,00154931230fa.jpg,sunaauueuhhvklldjik.jpg,255,30.57098114206414,21.787520550986848,0.8421052631578947,7.0,898740635.7763158,1551381934.0,971.0007000000003,1122.9581421052637,721.8568605263158,772.1445486842102,
46,3.0,,o,2.524375915527344,Face,1.0,Face,00851940307fa_sunaivflshbyfrfzhqb.jpg,00851940307fa.jpg,sunaivflshbyfrfzhqb.jpg,>,,,,,,,5.0,1551381942.955416,1551381939.955257,8.0,6.0,Presentation,00292940422fb_sunabrjdpmoedcdjbpo.jpg,00292940422fb.jpg,sunabrjdpmoedcdjbpo.jpg,256,30.137267248469186,22.405516776463962,0.8513513513513513,7.0,898747719.5135137,1551381941.0810812,937.0541959459456,1127.1974202702706,751.7431986486487,784.6350945945945,
47,3.0,,o,1.4479680061340332,Face,1.0,Place,00060931230fa_sunaaehaikpckyjsety.jpg,00060931230fa.jpg,sunaaehaikpckyjsety.jpg,>,,,,,,,5.0,1551381952.310342,1551381949.312357,8.0,7.0,Presentation,00482940519fa_sunabyfxcxhdebvdyfd.jpg,00482940519fa.jpg,sunabyfxcxhdebvdyfd.jpg,257,30.719715065982232,22.14940078673246,0.8815789473684209,7.0,898757745.9342105,1551381951.0789473,969.5277394736838,1134.6186302631575,748.8137802631583,770.0022736842108,
48,3.0,,o,1.5853230953216553,Face,1.0,Face,00847940307fa_sunaivdjruhkrfywfed.jpg,00847940307fa.jpg,sunaivdjruhkrfywfed.jpg,<,,,,,,,5.0,1551381960.544461,1551381957.5429552,8.0,8.0,Presentation,00870940307fa_sunajrgtewnualfcerj.jpg,00870940307fa.jpg,sunajrgtewnualfcerj.jpg,258,30.6449535015548,23.80249438322368,0.8289473684210527,7.0,898765728.3684211,1551381959.0657895,978.6387802631588,1120.3867973684214,792.136289473684,840.0347539473684,
49,3.0,,o,0.9978680610656738,Face,0.0,Face,00746941201fa_sunaetydippjxikifsb.jpg,00746941201fa.jpg,sunaetydippjxikifsb.jpg,<,,,,,,,5.0,1551381968.948074,1551381965.945818,8.0,9.0,Presentation,00479940519fa_sunabxsbfwjccqxxzxq.jpg,00479940519fa.jpg,sunabxsbfwjccqxxzxq.jpg,259,30.182580808341733,22.833051777553766,0.8387096774193549,7.0,898773753.3387097,1551381967.1290324,954.4888758064516,1112.866491935484,756.10525,809.5897290322579,
320,,Novel,,,Place,,,,,,,1.0,1.6880000000000002,sunadikxpvqeabxrvvc.jpg,,,,5.0,1551381975.8368,1551381973.755031,8.0,,Memory,,,,260,,,,,,,,,,,1.0
321,,Novel,,,Face,,,,,,,1.0,1.452,00914960620fa.jpg,,,,5.0,1551381979.14162,1551381977.121356,8.0,,Memory,,,,261,,,,,,,,,,,1.0
322,,Category,,,Place,,Place,,,,,3.0,1.689,sunabrjdpmoedcdjbpo.jpg,,,,5.0,1551381982.4709,1551381980.439773,8.0,,Memory,,,,262,30.137267248469186,,,,,,,,,,3.0
323,,None,,,Face,,Place,,,,,1.0,1.8730000000000002,00958960627fa.jpg,,,,5.0,1551381985.73616,1551381983.740474,8.0,,Memory,,,,263,32.143738568289606,,,,,,,,,,1.0
324,,Side,,,Face,,Place,,,,,1.0,1.122,00751960620fa.jpg,,,,5.0,1551381989.009635,1551381987.007602,8.0,,Memory,,,,264,29.63321057492277,,,,,,,,,,1.0
325,,Full,,,Place,,Place,,,,,4.0,0.9179999999999999,sunafvwfsmqkjrutjta.jpg,,,,5.0,1551381992.293971,1551381990.292127,8.0,,Memory,,,,265,30.57098114206414,,,,,,,,,,4.0
326,,Novel,,,Place,,,,,,,4.0,1.34,sunafgdqbclkwfocdhg.jpg,,,,5.0,1551381995.641232,1551381993.577306,8.0,,Memory,,,,266,,,,,,,,,,,4.0
327,,Novel,,,Face,,,,,,,1.0,1.425,00719960620fa.jpg,,,,5.0,1551381998.957324,1551381996.906043,8.0,,Memory,,,,267,,,,,,,,,,,1.0
328,,Novel,,,Place,,,,,,,1.0,1.416,sunahtfxgsrmkiulnwk.jpg,,,,5.0,1551382002.212853,1551382000.211916,8.0,,Memory,,,,268,,,,,,,,,,,1.0
329,,None,,,Face,,Place,,,,,1.0,1.854,00292940422fb.jpg,,,,5.0,1551382005.5426981,1551382003.491965,8.0,,Memory,,,,269,30.137267248469186,,,,,,,,,,1.0
330,,Full,,,Place,,Place,,,,,4.0,1.052,sunanainkqdvktzoxyl.jpg,,,,5.0,1551382008.8499,1551382006.831019,8.0,,Memory,,,,270,32.143738568289606,,,,,,,,,,4.0
331,,Full,,,Place,,Place,,,,,4.0,1.2229999999999999,sunbvbrvgbpanfrawft.jpg,,,,5.0,1551382012.11994,1551382010.111072,8.0,,Memory,,,,271,31.099593800911457,,,,,,,,,,4.0
332,,None,,,Face,,Place,,,,,2.0,1.732,00977960627fa.jpg,,,,5.0,1551382015.446113,1551382013.383538,8.0,,Memory,,,,272,31.099593800911457,,,,,,,,,,2.0
333,,Novel,,,Face,,,,,,,1.0,1.8659999999999999,00662941121fa.jpg,,,,5.0,1551382018.715661,1551382016.712322,8.0,,Memory,,,,273,,,,,,,,,,,1.0
334,,None,,,Face,,Place,,,,,1.0,1.791,00858940307fa.jpg,,,,5.0,1551382021.9817278,1551382019.968316,8.0,,Memory,,,,274,29.19487807322185,,,,,,,,,,1.0
335,,Category,,,Place,,Place,,,,,1.0,1.2690000000000001,sunavspxmxubqaeidjt.jpg,,,,5.0,1551382025.233008,1551382023.2366982,8.0,,Memory,,,,275,32.143738568289606,,,,,,,,,,1.0
336,,Novel,,,Place,,,,,,,4.0,1.9069999999999998,sunalcrtwiycqobgelp.jpg,,,,5.0,1551382028.5169199,1551382026.520925,8.0,,Memory,,,,276,,,,,,,,,,,4.0
337,,None,,,Face,,Place,,,,,1.0,1.153,00482940519fa.jpg,,,,5.0,1551382031.834425,1551382029.838502,8.0,,Memory,,,,277,30.719715065982232,,,,,,,,,,1.0
338,,Novel,,,Place,,,,,,,2.0,1.416,sunadkazmlajmohnwfl.jpg,,,,5.0,1551382035.1030881,1551382033.1007721,8.0,,Memory,,,,278,,,,,,,,,,,2.0
339,,Novel,,,Face,,,,,,,2.0,1.7180000000000002,00827940307fa.jpg,,,,5.0,1551382038.4035401,1551382036.390776,8.0,,Memory,,,,279,,,,,,,,,,,2.0
340,,Category,,,Place,,Place,,,,,1.0,1.6030000000000002,sunaixpqndlwhwjtjek.jpg,,,,5.0,1551382041.654633,1551382039.658951,8.0,,Memory,,,,280,29.19487807322185,,,,,,,,,,1.0
341,,Novel,,,Place,,,,,,,3.0,1.675,sunaozisvwfbmlkfhzv.jpg,,,,5.0,1551382044.909945,1551382042.90872,8.0,,Memory,,,,281,,,,,,,,,,,3.0
342,,Novel,,,Face,,,,,,,1.0,0.951,00887960530.jpg,,,,5.0,1551382048.211827,1551382046.210383,8.0,,Memory,,,,282,,,,,,,,,,,1.0
343,,Novel,,,Face,,,,,,,1.0,0.915,00761960627fa.jpg,,,,5.0,1551382051.474974,1551382049.47861,8.0,,Memory,,,,283,,,,,,,,,,,1.0
344,,Novel,,,Place,,,,,,,1.0,1.056,sunadzuvtmtmgupotmf.jpg,,,,5.0,1551382054.750524,1551382052.7463286,8.0,,Memory,,,,284,,,,,,,,,,,1.0
345,,Category,,,Place,,Place,,,,,2.0,1.1909999999999998,sunbbxkanhzjgbwyxqs.jpg,,,,5.0,1551382058.013596,1551382056.0085552,8.0,,Memory,,,,285,31.099593800911457,,,,,,,,,,2.0
346,,Side,,,Face,,Place,,,,,1.0,0.9179999999999999,00999960627fa.jpg,,,,5.0,1551382061.264752,1551382059.26489,8.0,,Memory,,,,286,31.099593800911457,,,,,,,,,,1.0
347,,Full,,,Place,,Place,,,,,1.0,1.172,sunaezuszgtxnmsxdbk.jpg,,,,5.0,1551382064.528904,1551382062.532198,8.0,,Memory,,,,287,29.63321057492277,,,,,,,,,,1.0
348,,Side,,,Face,,Place,,,,,1.0,1.247,00775941205fa.jpg,,,,5.0,1551382067.8031368,1551382065.800342,8.0,,Memory,,,,288,30.57098114206414,,,,,,,,,,1.0
349,,Novel,,,Place,,,,,,,1.0,0.898,sunaajspcoepticvplv.jpg,,,,5.0,1551382071.080528,1551382069.084814,8.0,,Memory,,,,289,,,,,,,,,,,1.0
350,,Novel,,,Face,,,,,,,1.0,1.072,00193940928fa.jpg,,,,5.0,1551382074.367504,1551382072.368122,8.0,,Memory,,,,290,,,,,,,,,,,1.0
351,,Novel,,,Face,,,,,,,1.0,1.575,00145931230fb.jpg,,,,5.0,1551382077.656567,1551382075.637018,8.0,,Memory,,,,291,,,,,,,,,,,1.0
352,,Novel,,,Face,,,,,,,2.0,1.052,00650941031fa.jpg,,,,5.0,1551382080.9541,1551382078.950123,8.0,,Memory,,,,292,,,,,,,,,,,2.0
353,,Side,,,Face,,Place,,,,,1.0,0.8490000000000001,00847940307fa.jpg,,,,5.0,1551382084.227202,1551382082.221834,8.0,,Memory,,,,293,30.6449535015548,,,,,,,,,,1.0
354,,Novel,,,Face,,,,,,,1.0,1.432,00102931230fa.jpg,,,,5.0,1551382087.522119,1551382085.523445,8.0,,Memory,,,,294,,,,,,,,,,,1.0
355,,Novel,,,Place,,,,,,,2.0,1.5319999999999998,sunaaxjpzcnxligjtjq.jpg,,,,5.0,1551382090.803421,1551382088.791592,8.0,,Memory,,,,295,,,,,,,,,,,2.0
356,,Category,,,Place,,Place,,,,,2.0,1.021,sunabyfxcxhdebvdyfd.jpg,,,,5.0,1551382094.097193,1551382092.059325,8.0,,Memory,,,,296,30.719715065982232,,,,,,,,,,2.0
357,,Full,,,Place,,Place,,,,,1.0,0.966,sunaivdjruhkrfywfed.jpg,,,,5.0,1551382097.4132679,1551382095.394006,8.0,,Memory,,,,297,30.6449535015548,,,,,,,,,,1.0
358,,Side,,,Face,,Place,,,,,1.0,1.208,00903960620fa.jpg,,,,5.0,1551382100.69313,1551382098.695184,8.0,,Memory,,,,298,32.143738568289606,,,,,,,,,,1.0
359,,Novel,,,Place,,,,,,,1.0,0.9,sunaatjesvdupctftmn.jpg,,,,5.0,1551382103.9806929,1551382101.978213,8.0,,Memory,,,,299,,,,,,,,,,,1.0
50,3.0,,o,1.000849962234497,Face,1.0,Face,00694941121fa_sunadrmfzmstgdjdcod.jpg,00694941121fa.jpg,sunadrmfzmstgdjdcod.jpg,>,,,,,,,4.0,1551381572.3017359,1551381569.268835,8.0,0.0,Presentation,00635941031fa_sunaddsaeicthrfbkhe.jpg,00635941031fa.jpg,sunaddsaeicthrfbkhe.jpg,200,35.843553490915006,21.670262263257577,0.16666666666666666,7.0,898377756.3636364,1551381571.090909,1011.5675045454544,1443.5360924242425,668.6616393939395,817.2992015151518,
51,3.0,,o,0.91658616065979,Face,1.0,Face,00719941201fa_sunadvithllcgmfxsrn.jpg,00719941201fa.jpg,sunadvithllcgmfxsrn.jpg,>,,,,,,,4.0,1551381580.1213,1551381577.140218,8.0,1.0,Presentation,00878960530fa_sunakgbnzxmfohgehnu.jpg,00878960530fa.jpg,sunakgbnzxmfohgehnu.jpg,201,31.12145859883348,19.96903700342466,0.9452054794520548,7.0,898385725.4383563,1551381579.109589,1044.3209068493147,1087.3428794520546,657.8577123287671,711.4476821917807,
52,1.0,,x,1.100783109664917,Face,0.0,Place,00638941031fa_sunadfktsqjthoglcsm.jpg,00638941031fa.jpg,sunadfktsqjthoglcsm.jpg,<,,,,,,,4.0,1551381587.807004,1551381584.8262599,8.0,2.0,Presentation,00961960627fa_sunawotxrevnqvamsfp.jpg,00961960627fa.jpg,sunawotxrevnqvamsfp.jpg,202,30.254202507165683,19.125383257575766,0.8831168831168831,7.0,898392659.5324676,1551381586.038961,1000.2638584415582,1071.9972363636364,631.5799142857143,679.8749376623379,
53,3.0,,o,0.7884070873260498,Face,1.0,Face,00931960627fa_sunaptrqvaooxfvktvw.jpg,00931960627fa.jpg,sunaptrqvaooxfvktvw.jpg,<,,,,,,,4.0,1551381595.70929,1551381592.729289,8.0,3.0,Presentation,00990960627fa_sunbpflsdaxnddnwcqi.jpg,00990960627fa.jpg,sunbpflsdaxnddnwcqi.jpg,203,30.330382739376912,19.72221768800812,0.9390243902439024,7.0,898400640.8780488,1551381593.9878054,998.8717560975612,1078.6073024390246,651.2686073170734,701.1120341463416,
54,1.0,,x,1.5677180290222168,Face,1.0,Face,00885960530fa_sunakwlvxjpddialozd.jpg,00885960530fa.jpg,sunakwlvxjpddialozd.jpg,<,,,,,,,4.0,1551381603.301168,1551381600.315347,8.0,4.0,Presentation,01000960627fa_sunbvzmgrdvaakxusbu.jpg,01000960627fa.jpg,sunbvzmgrdvaakxusbu.jpg,204,30.16086860576429,20.169784188596488,0.8684210526315791,7.0,898408601.9605262,1551381601.9342105,1000.1107381578947,1065.7574526315786,667.4644447368421,715.6064710526317,
55,3.0,,o,1.586967945098877,Face,1.0,Place,01003960627fb_sunbwdrdvsweerwsdrj.jpg,01003960627fb.jpg,sunbwdrdvsweerwsdrj.jpg,>,,,,,,,4.0,1551381611.680597,1551381608.701363,8.0,5.0,Presentation,00944960627fa_sunasbbntuiheekqyaq.jpg,00944960627fa.jpg,sunasbbntuiheekqyaq.jpg,205,30.614876980751447,20.303983936403505,0.8947368421052632,7.0,898416734.6578947,1551381610.0657895,1011.9752631578948,1084.9902236842104,669.235107894737,723.0380763157892,
56,3.0,,o,0.8296008110046387,Face,1.0,Place,00985960627fa_sunbgklxeqjhdbyfhhy.jpg,00985960627fa.jpg,sunbgklxeqjhdbyfhhy.jpg,<,,,,,,,4.0,1551381620.1027641,1551381617.099641,8.0,6.0,Presentation,00778941205fa_sunagcthdfirrcawoic.jpg,00778941205fa.jpg,sunagcthdfirrcawoic.jpg,206,30.30220845281982,20.19240467708334,0.9375,7.0,898425634.3375,1551381618.9875,992.8747824999997,1082.67447875,676.4292137500004,708.19282125,
57,3.0,,o,1.3069288730621338,Face,0.0,Place,00972960627fa_sunbbfqwjpdxniyhies.jpg,00972960627fa.jpg,sunbbfqwjpdxniyhies.jpg,>,,,,,,,4.0,1551381627.7367759,1551381624.7563221,8.0,7.0,Presentation,00763941205fa_sunafhmnhsdurlvddpw.jpg,00763941205fa.jpg,sunafhmnhsdurlvddpw.jpg,207,30.41953724249588,20.389278072916664,0.8815789473684209,7.0,898432702.6184211,1551381626.0657895,1001.4788092105267,1082.1068855263154,675.3917223684209,722.730202631579,
58,3.0,,o,1.7009990215301514,Face,1.0,Place,00949960627fb_sunasnqkkyhilqkxiqm.jpg,00949960627fb.jpg,sunasnqkkyhilqkxiqm.jpg,>,,,,,,,4.0,1551381635.87238,1551381632.887275,8.0,8.0,Presentation,00562941031fa_sunacjnahdmqfnjfwqx.jpg,00562941031fa.jpg,sunacjnahdmqfnjfwqx.jpg,208,31.14398361292223,20.619303563112744,0.8970588235294118,7.0,898440624.7941178,1551381633.9558823,1019.8599720588237,1113.3466647058824,682.5972279411768,731.2978735294116,
59,3.0,,o,1.9722559452056885,Face,1.0,Face,00959960627fa_sunavxokzybtomhbmvm.jpg,00959960627fa.jpg,sunavxokzybtomhbmvm.jpg,<,,,,,,,4.0,1551381644.3586519,1551381641.373812,8.0,9.0,Presentation,00097931230fa_sunaajayojuslbbnneg.jpg,00097931230fa.jpg,sunaajayojuslbbnneg.jpg,209,30.8015867045288,20.4740255234375,1.0,7.0,898449644.5875,1551381643.0,997.5015037499996,1112.2526624999996,666.4222649999998,737.5109137500003,
360,,Novel,,,Place,,,,,,,1.0,1.286,sunbtpilbhhbmhmeuzq.jpg,,,,4.0,1551381652.077961,1551381649.965262,8.0,,Memory,,,,210,,,,,,,,,,,1.0
361,,Side,,,Place,,Face,,,,,2.0,1.206,sunadrmfzmstgdjdcod.jpg,,,,4.0,1551381655.3792448,1551381653.400172,8.0,,Memory,,,,211,35.843553490915006,,,,,,,,,,2.0
362,,Novel,,,Place,,,,,,,3.0,1.183,sunaafjszryxyavjzln.jpg,,,,4.0,1551381658.687815,1551381656.7005801,8.0,,Memory,,,,212,,,,,,,,,,,3.0
363,,Novel,,,Place,,,,,,,3.0,1.505,sunabllobxadqcyttej.jpg,,,,4.0,1551381662.0468972,1551381659.985548,8.0,,Memory,,,,213,,,,,,,,,,,3.0
364,,Category,,,Face,,Face,,,,,2.0,1.285,00944960627fa.jpg,,,,4.0,1551381665.373107,1551381663.331507,8.0,,Memory,,,,214,30.614876980751447,,,,,,,,,,2.0
365,,Full,,,Face,,Face,,,,,1.0,1.273,00694941121fa.jpg,,,,4.0,1551381668.667196,1551381666.670327,8.0,,Memory,,,,215,35.843553490915006,,,,,,,,,,1.0
366,,Novel,,,Face,,,,,,,1.0,1.37,00779941205fa.jpg,,,,4.0,1551381671.954582,1551381669.950042,8.0,,Memory,,,,216,,,,,,,,,,,1.0
367,,Category,,,Face,,Face,,,,,3.0,0.006999999999999999,00990960627fa.jpg,,,,4.0,1551381675.358658,1551381673.373618,8.0,,Memory,,,,217,30.330382739376912,,,,,,,,,,3.0
368,,Full,,,Face,,Face,,,,,2.0,0.851,01003960627fb.jpg,,,,4.0,1551381678.670083,1551381676.689626,8.0,,Memory,,,,218,30.614876980751447,,,,,,,,,,2.0
369,,Novel,,,Face,,,,,,,1.0,1.198,00571940928fa.jpg,,,,4.0,1551381681.945127,1551381679.953253,8.0,,Memory,,,,219,,,,,,,,,,,1.0
370,,Novel,,,Face,,,,,,,1.0,0.8640000000000001,00557940519fa.jpg,,,,4.0,1551381685.2632198,1551381683.2598946,8.0,,Memory,,,,220,,,,,,,,,,,1.0
371,,Category,,,Face,,Face,,,,,1.0,1.058,00878960530fa.jpg,,,,4.0,1551381688.530768,1551381686.542716,8.0,,Memory,,,,221,31.12145859883348,,,,,,,,,,1.0
372,,None,,,Place,,Face,,,,,3.0,1.516,sunagcthdfirrcawoic.jpg,,,,4.0,1551381691.8732884,1551381689.845059,8.0,,Memory,,,,222,30.30220845281982,,,,,,,,,,3.0
373,,Novel,,,Face,,,,,,,1.0,1.588,00997960627fa.jpg,,,,4.0,1551381695.198265,1551381693.1797721,8.0,,Memory,,,,223,,,,,,,,,,,1.0
374,,Side,,,Place,,Face,,,,,1.0,1.35,sunaptrqvaooxfvktvw.jpg,,,,4.0,1551381698.450416,1551381696.4628642,8.0,,Memory,,,,224,30.330382739376912,,,,,,,,,,1.0
375,,Novel,,,Place,,,,,,,1.0,1.29,sunacsaovnjezqwbykf.jpg,,,,4.0,1551381701.7462661,1551381699.74817,8.0,,Memory,,,,225,,,,,,,,,,,1.0
376,,Full,,,Face,,Face,,,,,4.0,1.74,00931960627fa.jpg,,,,4.0,1551381705.012157,1551381703.03178,8.0,,Memory,,,,226,30.330382739376912,,,,,,,,,,4.0
377,,Novel,,,Face,,,,,,,1.0,1.364,00120931230fa.jpg,,,,4.0,1551381708.298833,1551381706.300392,8.0,,Memory,,,,227,,,,,,,,,,,1.0
378,,Category,,,Face,,Face,,,,,1.0,0.833,00635941031fa.jpg,,,,4.0,1551381711.565925,1551381709.567441,8.0,,Memory,,,,228,35.843553490915006,,,,,,,,,,1.0
379,,Novel,,,Face,,,,,,,,0.0,00728941205fa.jpg,,,,4.0,1551381714.835669,1551381712.8511686,8.0,,Memory,,,,229,,,,,,,,,,,
380,,Novel,,,Face,,,,,,,2.0,1.3969999999999998,00986960627fa.jpg,,,,4.0,1551381718.119129,1551381716.119969,8.0,,Memory,,,,230,,,,,,,,,,,2.0
381,,Side,,,Place,,Face,,,,,2.0,1.465,sunadvithllcgmfxsrn.jpg,,,,4.0,1551381721.4002314,1551381719.4216518,8.0,,Memory,,,,231,31.12145859883348,,,,,,,,,,2.0
382,,Full,,,Face,,Face,,,,,1.0,1.325,00972960627fa.jpg,,,,4.0,1551381724.6900609,1551381722.671886,8.0,,Memory,,,,232,30.41953724249588,,,,,,,,,,1.0
383,,None,,,Place,,Face,,,,,3.0,1.739,sunbpflsdaxnddnwcqi.jpg,,,,4.0,1551381727.9876301,1551381725.990231,8.0,,Memory,,,,233,30.330382739376912,,,,,,,,,,3.0
384,,Novel,,,Place,,,,,,,2.0,1.3230000000000002,sunacuatpqpqhyjhjqk.jpg,,,,4.0,1551381731.270494,1551381729.2575312,8.0,,Memory,,,,234,,,,,,,,,,,2.0
385,,Novel,,,Face,,,,,,,3.0,1.673,00564941031fa.jpg,,,,4.0,1551381734.538098,1551381732.557826,8.0,,Memory,,,,235,,,,,,,,,,,3.0
386,,None,,,Place,,Face,,,,,4.0,1.156,sunasbbntuiheekqyaq.jpg,,,,4.0,1551381737.8262384,1551381735.826832,8.0,,Memory,,,,236,30.614876980751447,,,,,,,,,,4.0
387,,Side,,,Place,,Face,,,,,2.0,1.465,sunbbfqwjpdxniyhies.jpg,,,,4.0,1551381741.10709,1551381739.1281,8.0,,Memory,,,,237,30.41953724249588,,,,,,,,,,2.0
388,,Novel,,,Place,,,,,,,1.0,1.386,sunaejnvnpltdmhbcsi.jpg,,,,4.0,1551381744.382692,1551381742.394641,8.0,,Memory,,,,238,,,,,,,,,,,1.0
389,,None,,,Place,,Face,,,,,1.0,0.903,sunaddsaeicthrfbkhe.jpg,,,,4.0,1551381747.624982,1551381745.640954,8.0,,Memory,,,,239,35.843553490915006,,,,,,,,,,1.0
390,,Novel,,,Place,,,,,,,3.0,1.032,sunachtuarilwyqnvjx.jpg,,,,4.0,1551381750.9993286,1551381748.913619,8.0,,Memory,,,,240,,,,,,,,,,,3.0
391,,Novel,,,Place,,,,,,,2.0,1.4340000000000002,sunagdzlvkqtpnfxfcg.jpg,,,,4.0,1551381754.2846134,1551381752.281742,8.0,,Memory,,,,241,,,,,,,,,,,2.0
392,,None,,,Place,,Face,,,,,1.0,0.934,sunakgbnzxmfohgehnu.jpg,,,,4.0,1551381757.570066,1551381755.582825,8.0,,Memory,,,,242,31.12145859883348,,,,,,,,,,1.0
393,,Category,,,Face,,Face,,,,,2.0,1.188,00778941205fa.jpg,,,,4.0,1551381760.8298562,1551381758.849885,8.0,,Memory,,,,243,30.30220845281982,,,,,,,,,,2.0
394,,Novel,,,Place,,,,,,,2.0,1.401,sunbgzjryivyczuvkvm.jpg,,,,4.0,1551381764.067106,1551381762.084275,8.0,,Memory,,,,244,,,,,,,,,,,2.0
395,,Novel,,,Place,,,,,,,3.0,0.998,sunaakxgygjfqrzpyoz.jpg,,,,4.0,1551381767.365262,1551381765.368752,8.0,,Memory,,,,245,,,,,,,,,,,3.0
396,,Side,,,Place,,Face,,,,,4.0,1.839,sunbwdrdvsweerwsdrj.jpg,,,,4.0,1551381770.682977,1551381768.7037,8.0,,Memory,,,,246,30.614876980751447,,,,,,,,,,4.0
397,,Novel,,,Face,,,,,,,1.0,0.899,00270940422fb.jpg,,,,4.0,1551381773.921409,1551381771.932517,8.0,,Memory,,,,247,,,,,,,,,,,1.0
398,,Full,,,Face,,Face,,,,,3.0,0.248,00719941201fa.jpg,,,,4.0,1551381777.20121,1551381775.223026,8.0,,Memory,,,,248,31.12145859883348,,,,,,,,,,3.0
399,,Novel,,,Face,,,,,,,2.0,0.951,00080931230fb.jpg,,,,4.0,1551381780.473131,1551381778.491146,8.0,,Memory,,,,249,,,,,,,,,,,2.0
60,1.0,,x,1.2507658004760742,Face,1.0,Place,00564940928fa_sunacmpqqfbsvlzinzl.jpg,00564940928fa.jpg,sunacmpqqfbsvlzinzl.jpg,<,,,,,,,6.0,1551382214.084933,1551382211.130356,8.0,0.0,Presentation,01010960627fa_suncnkvbhypnivcohyx.jpg,01010960627fa.jpg,suncnkvbhypnivcohyx.jpg,300,30.512472836100265,20.301818143939396,0.7575757575757576,7.0,899019570.6969697,1551382212.9545455,947.1279106060606,1142.823406060606,705.0804469696968,687.0442257575759,
61,1.0,,x,0.9396638870239258,Face,1.0,Place,00741941201fa_sunaemcowdozyphwknd.jpg,00741941201fa.jpg,sunaemcowdozyphwknd.jpg,>,,,,,,,6.0,1551382221.934345,1551382219.029619,8.0,1.0,Presentation,00913960530fa_sunaooffzffbhcpirmm.jpg,00913960530fa.jpg,sunaooffzffbhcpirmm.jpg,301,29.06061306611328,19.5177852625,0.72,7.0,899027169.7,1551382220.54,919.395616,1071.11059,698.613104,639.7493139999998,
62,1.0,,x,1.095541000366211,Face,1.0,Face,00925960627fa_sunapqwnqzxlsfvgsjm.jpg,00925960627fa.jpg,sunapqwnqzxlsfvgsjm.jpg,<,,,,,,,6.0,1551382229.441583,1551382226.530875,8.0,2.0,Presentation,00795941205fa_sunagtumacdlmciqamz.jpg,00795941205fa.jpg,sunagtumacdlmciqamz.jpg,302,28.404659506772518,21.383733617424248,0.935064935064935,7.0,899034593.4545455,1551382227.948052,891.2478636363635,1054.3288142857143,749.9755844155845,716.3375779220779,
63,1.0,,x,1.199573040008545,Face,0.0,Face,00782941205fa_sunagfvluwixdsozaql.jpg,00782941205fa.jpg,sunagfvluwixdsozaql.jpg,>,,,,,,,6.0,1551382237.102849,1551382234.204776,8.0,3.0,Presentation,00633940928fa_sunadbhmrgrrpyzglxs.jpg,00633940928fa.jpg,sunadbhmrgrrpyzglxs.jpg,303,29.397815794847695,20.682663934599162,0.810126582278481,7.0,899042633.2025318,1551382236.0,897.9680759493672,1115.6348253164554,745.6488303797469,672.5909822784812,
64,3.0,,o,0.5794911384582521,Face,1.0,Face,00129931230fb_sunaamsdyakblkfoydx.jpg,00129931230fb.jpg,sunaamsdyakblkfoydx.jpg,>,,,,,,,6.0,1551382244.89123,1551382241.990412,8.0,4.0,Presentation,00609940928fa_sunacycdoztxoluxjyk.jpg,00609940928fa.jpg,sunacycdoztxoluxjyk.jpg,304,28.21353344718424,21.225447395833346,0.8333333333333334,7.0,899049631.55,1551382243.016667,867.2817249999997,1065.2037766666667,755.6277866666666,699.8314633333333,
65,3.0,,o,0.7837839126586914,Face,1.0,Face,00276940422fa_sunabmytpyhsgigllxu.jpg,00276940422fa.jpg,sunabmytpyhsgigllxu.jpg,<,,,,,,,6.0,1551382252.04759,1551382249.13895,8.0,5.0,Presentation,00800941205fb_sunagvjurcwdbixvnyi.jpg,00800941205fb.jpg,sunagvjurcwdbixvnyi.jpg,305,27.951325790292238,21.168970223765434,1.0,7.0,899057661.1234568,1551382251.0123458,879.9066839506172,1034.6189086419756,751.6780950617281,699.9084345679013,
66,1.0,,x,1.2236039638519287,Face,1.0,Face,00598941031fa_sunacxtcahkymosigud.jpg,00598941031fa.jpg,sunacxtcahkymosigud.jpg,>,,,,,,,6.0,1551382259.409481,1551382256.5074642,8.0,6.0,Presentation,00123931230fb_sunaalcrrdbjgdztbiz.jpg,00123931230fb.jpg,sunaalcrrdbjgdztbiz.jpg,306,28.78740870175012,21.729980685307027,0.8815789473684209,7.0,899064690.0131578,1551382258.0394738,898.8882118421053,1072.9048657894741,756.7924592105264,733.2633592105262,
67,1.0,,x,0.992685079574585,Face,1.0,Place,00818940307fa_sunahpblecxtmuzkmxb.jpg,00818940307fa.jpg,sunahpblecxtmuzkmxb.jpg,>,,,,,,,6.0,1551382267.2107608,1551382264.315347,8.0,7.0,Presentation,00214940128fa_sunabbafjowbzcvbucc.jpg,00214940128fa.jpg,sunabbafjowbzcvbucc.jpg,307,28.35627027218381,21.818249825450447,0.9459459459459459,7.0,899072692.0675676,1551382266.0270276,874.3126216216216,1067.9496364864863,766.4339851351349,729.6745743243248,
68,1.0,,x,0.8423230648040771,Face,1.0,Place,00745941205fa_sunaeouogqolxvggaoq.jpg,00745941205fa.jpg,sunaeouogqolxvggaoq.jpg,<,,,,,,,6.0,1551382274.780628,1551382271.879097,8.0,8.0,Presentation,00648941031fa_sunadfndyrtqqiasoig.jpg,00648941031fa.jpg,sunadfndyrtqqiasoig.jpg,308,28.6742624956523,21.572228884132432,0.821917808219178,7.0,899079723.9178082,1551382273.0958905,884.6286356164385,1079.4144945205478,742.290076712329,736.9484753424658,
69,1.0,,x,0.5834031105041504,Face,1.0,Place,00809960620fa_sunahbvlpavurqoxdeq.jpg,00809960620fa.jpg,sunahbvlpavurqoxdeq.jpg,<,,,,,,,6.0,1551382282.2088661,1551382279.303189,8.0,9.0,Presentation,00874940307fa_sunajtrfunvzdfticna.jpg,00874940307fa.jpg,sunajtrfunvzdfticna.jpg,309,28.80320834707755,21.79808492541152,0.8518518518518519,7.0,899087639.0864197,1551382281.0,879.3810740740739,1093.4942,771.7048283950618,723.0209950617284,
240,,None,,,Face,,Place,,,,,4.0,1.5830000000000002,00648941031fa.jpg,,,,6.0,1551382288.635319,1551382286.589603,8.0,,Memory,,,,310,28.6742624956523,,,,,,,,,,4.0
241,,Novel,,,Place,,,,,,,1.0,1.274,sunayaepykrqvenaqqy.jpg,,,,6.0,1551382291.806212,1551382289.868814,8.0,,Memory,,,,311,,,,,,,,,,,1.0
242,,Novel,,,Place,,,,,,,1.0,1.499,sunabizydfotqddlnjp.jpg,,,,6.0,1551382295.0212462,1551382293.074148,8.0,,Memory,,,,312,,,,,,,,,,,1.0
243,,Full,,,Place,,Place,,,,,1.0,1.255,sunacmpqqfbsvlzinzl.jpg,,,,6.0,1551382298.222125,1551382296.258435,8.0,,Memory,,,,313,30.512472836100265,,,,,,,,,,1.0
244,,Novel,,,Face,,,,,,,1.0,1.4140000000000001,00937960627fa.jpg,,,,6.0,1551382301.425457,1551382299.4773526,8.0,,Memory,,,,314,,,,,,,,,,,1.0
245,,Category,,,Place,,Place,,,,,1.0,1.25,sunajtrfunvzdfticna.jpg,,,,6.0,1551382304.597058,1551382302.660464,8.0,,Memory,,,,315,28.80320834707755,,,,,,,,,,1.0
246,,Category,,,Place,,Place,,,,,1.0,1.0659999999999998,sunadfndyrtqqiasoig.jpg,,,,6.0,1551382307.873909,1551382305.878724,8.0,,Memory,,,,316,28.6742624956523,,,,,,,,,,1.0
247,,None,,,Face,,Place,,,,,2.0,1.105,00795941205fa.jpg,,,,6.0,1551382311.0592911,1551382309.130213,8.0,,Memory,,,,317,28.404659506772518,,,,,,,,,,2.0
248,,Side,,,Face,,Place,,,,,2.0,1.882,00276940422fa.jpg,,,,6.0,1551382314.212153,1551382312.275817,8.0,,Memory,,,,318,27.951325790292238,,,,,,,,,,2.0
249,,Novel,,,Face,,,,,,,1.0,0.725,00911960530fa.jpg,,,,6.0,1551382317.412491,1551382315.448476,8.0,,Memory,,,,319,,,,,,,,,,,1.0
250,,Side,,,Face,,Place,,,,,2.0,1.021,00782941205fa.jpg,,,,6.0,1551382320.5812259,1551382318.650263,8.0,,Memory,,,,320,29.397815794847695,,,,,,,,,,2.0
251,,Side,,,Face,,Place,,,,,1.0,0.823,00564940928fa.jpg,,,,6.0,1551382323.797449,1551382321.800131,8.0,,Memory,,,,321,30.512472836100265,,,,,,,,,,1.0
252,,Side,,,Face,,Place,,,,,1.0,0.574,00809960620fa.jpg,,,,6.0,1551382327.004842,1551382325.035649,8.0,,Memory,,,,322,28.80320834707755,,,,,,,,,,1.0
253,,Novel,,,Place,,,,,,,3.0,1.567,sunaiwduelojtwaqeyh.jpg,,,,6.0,1551382330.182523,1551382328.235941,8.0,,Memory,,,,323,,,,,,,,,,,3.0
254,,Category,,,Place,,Place,,,,,1.0,1.2309999999999999,sunacycdoztxoluxjyk.jpg,,,,6.0,1551382333.371947,1551382331.437044,8.0,,Memory,,,,324,28.21353344718424,,,,,,,,,,1.0
255,,Novel,,,Place,,,,,,,1.0,1.0070000000000001,sunaafbmtoniaasysgu.jpg,,,,6.0,1551382336.5535462,1551382334.621448,8.0,,Memory,,,,325,,,,,,,,,,,1.0
256,,Novel,,,Face,,,,,,,3.0,1.5819999999999999,00073931230fa.jpg,,,,6.0,1551382339.735589,1551382337.7885618,8.0,,Memory,,,,326,,,,,,,,,,,3.0
257,,Novel,,,Face,,,,,,,1.0,0.915,00854940307fa.jpg,,,,6.0,1551382342.941016,1551382340.990591,8.0,,Memory,,,,327,,,,,,,,,,,1.0
258,,Full,,,Place,,Place,,,,,1.0,1.1740000000000002,sunagfvluwixdsozaql.jpg,,,,6.0,1551382346.142513,1551382344.191285,8.0,,Memory,,,,328,29.397815794847695,,,,,,,,,,1.0
259,,Full,,,Place,,Place,,,,,1.0,1.5830000000000002,sunahpblecxtmuzkmxb.jpg,,,,6.0,1551382349.322295,1551382347.391956,8.0,,Memory,,,,329,28.35627027218381,,,,,,,,,,1.0
260,,Novel,,,Face,,,,,,,2.0,1.2309999999999999,00963960627fa.jpg,,,,6.0,1551382352.548125,1551382350.57185,8.0,,Memory,,,,330,,,,,,,,,,,2.0
261,,None,,,Face,,Place,,,,,3.0,0.9,00913960530fa.jpg,,,,6.0,1551382355.692557,1551382353.76052,8.0,,Memory,,,,331,29.06061306611328,,,,,,,,,,3.0
262,,Category,,,Place,,Place,,,,,1.0,1.403,sunaooffzffbhcpirmm.jpg,,,,6.0,1551382358.845834,1551382356.906832,8.0,,Memory,,,,332,29.06061306611328,,,,,,,,,,1.0
263,,Novel,,,Place,,,,,,,1.0,0.9690000000000001,sunalntxqqadigcletd.jpg,,,,6.0,1551382362.01265,1551382360.079775,8.0,,Memory,,,,333,,,,,,,,,,,1.0
264,,Novel,,,Place,,,,,,,4.0,1.084,sunahiphsekjihkafsl.jpg,,,,6.0,1551382365.1770446,1551382363.246909,8.0,,Memory,,,,334,,,,,,,,,,,4.0
265,,Full,,,Place,,Place,,,,,3.0,1.49,sunahbvlpavurqoxdeq.jpg,,,,6.0,1551382368.366405,1551382366.4150894,8.0,,Memory,,,,335,28.80320834707755,,,,,,,,,,3.0
266,,Novel,,,Face,,,,,,,2.0,1.5830000000000002,00815941205fa.jpg,,,,6.0,1551382371.56175,1551382369.6329,8.0,,Memory,,,,336,,,,,,,,,,,2.0
267,,Novel,,,Face,,,,,,,1.0,0.882,00836940307fa.jpg,,,,6.0,1551382374.715683,1551382372.7831528,8.0,,Memory,,,,337,,,,,,,,,,,1.0
268,,Novel,,,Place,,,,,,,2.0,1.374,sunainqelldeebvxtcz.jpg,,,,6.0,1551382377.930459,1551382375.9520001,8.0,,Memory,,,,338,,,,,,,,,,,2.0
269,,Category,,,Place,,Place,,,,,1.0,1.071,sunagtumacdlmciqamz.jpg,,,,6.0,1551382381.085103,1551382379.148269,8.0,,Memory,,,,339,28.404659506772518,,,,,,,,,,1.0
270,,None,,,Face,,Place,,,,,1.0,1.123,00874940307fa.jpg,,,,6.0,1551382384.2493641,1551382382.3202848,8.0,,Memory,,,,340,28.80320834707755,,,,,,,,,,1.0
271,,Novel,,,Face,,,,,,,1.0,0.674,00922960627fa.jpg,,,,6.0,1551382387.458958,1551382385.488633,8.0,,Memory,,,,341,,,,,,,,,,,1.0
272,,Novel,,,Place,,,,,,,3.0,1.433,sunaooaqzputrowwbsw.jpg,,,,6.0,1551382390.6877599,1551382388.7066169,8.0,,Memory,,,,342,,,,,,,,,,,3.0
273,,Side,,,Face,,Place,,,,,2.0,1.641,00818940307fa.jpg,,,,6.0,1551382393.853048,1551382391.918343,8.0,,Memory,,,,343,28.35627027218381,,,,,,,,,,2.0
274,,None,,,Face,,Place,,,,,1.0,0.833,00609940928fa.jpg,,,,6.0,1551382397.042576,1551382395.108044,8.0,,Memory,,,,344,28.21353344718424,,,,,,,,,,1.0
275,,Full,,,Place,,Place,,,,,2.0,1.074,sunabmytpyhsgigllxu.jpg,,,,6.0,1551382400.2436788,1551382398.287818,8.0,,Memory,,,,345,27.951325790292238,,,,,,,,,,2.0
276,,Novel,,,Place,,,,,,,2.0,1.584,sunaqsolmfydodnakub.jpg,,,,6.0,1551382403.5062401,1551382401.5439901,8.0,,Memory,,,,346,,,,,,,,,,,2.0
277,,Novel,,,Face,,,,,,,3.0,0.09,00892960530fa.jpg,,,,6.0,1551382406.656437,1551382404.722859,8.0,,Memory,,,,347,,,,,,,,,,,3.0
278,,Novel,,,Place,,,,,,,1.0,1.255,sunapqkyghktgtosuuk.jpg,,,,6.0,1551382409.8084302,1551382407.877893,8.0,,Memory,,,,348,,,,,,,,,,,1.0
279,,Novel,,,Face,,,,,,,3.0,1.501,00262940128fa.jpg,,,,6.0,1551382412.997566,1551382411.0630438,8.0,,Memory,,,,349,,,,,,,,,,,3.0
70,1.0,,x,0.9785370826721193,Face,1.0,Face,00098931230fa_sunaajpqmulidejvjsr.jpg,00098931230fa.jpg,sunaajpqmulidejvjsr.jpg,>,,,,,,,7.0,1551382564.298779,1551382561.390415,8.0,0.0,Presentation,00071940128fa_sunaaexpnawiehinlpy.jpg,00071940128fa.jpg,sunaaexpnawiehinlpy.jpg,350,31.98161777018229,20.878989014423087,0.8717948717948718,7.0,899369694.8589742,1551382563.0384614,1041.9303461538464,1148.6500282051286,680.1743179487182,751.5277858974357,
71,3.0,,o,0.6683268547058105,Face,1.0,Face,00132931230fb_sunaanjcbzdvtvblsdy.jpg,00132931230fb.jpg,sunaanjcbzdvtvblsdy.jpg,>,,,,,,,7.0,1551382571.779842,1551382568.926973,8.0,1.0,Presentation,00871940307_sunajrujcsdxmfbssmc.jpg,00871940307.jpg,sunajrujcsdxmfbssmc.jpg,351,30.979269623220787,20.534567382990872,0.7123287671232876,7.0,899376724.1095891,1551382570.0684931,981.7286780821919,1140.195876712329,703.3825095890413,704.7021109589043,
72,1.0,,x,0.8630199432373047,Face,1.0,Place,00136931230fb_sunaanptmsknhirrzed.jpg,00136931230fb.jpg,sunaanptmsknhirrzed.jpg,<,,,,,,,7.0,1551382578.950818,1551382576.095208,8.0,2.0,Presentation,01009960627fa_sunbxzweleltykebgan.jpg,01009960627fa.jpg,sunbxzweleltykebgan.jpg,352,31.557926351709906,21.887448168239,0.5471698113207547,7.0,899384153.490566,1551382577.509434,998.2213660377356,1163.338271698113,728.6098698113208,772.2437188679244,
73,3.0,,o,0.9563379287719728,Face,1.0,Place,00848940307fa_sunaivdylrawbmhryfp.jpg,00848940307fa.jpg,sunaivdylrawbmhryfp.jpg,<,,,,,,,7.0,1551382586.3403866,1551382583.486836,8.0,3.0,Presentation,00294940422fb_sunabrlndkruqokhury.jpg,00294940422fb.jpg,sunabrlndkruqokhury.jpg,353,31.91830574000116,21.179969455845765,0.7313432835820896,7.0,899391565.7761194,1551382584.925373,1011.630119402985,1174.6136985074631,701.885025373134,750.4557373134328,
74,3.0,,o,1.47997784614563,Face,1.0,Place,00235940128fb_sunabclssnoeuigtawp.jpg,00235940128fb.jpg,sunabclssnoeuigtawp.jpg,>,,,,,,,7.0,1551382593.806464,1551382590.954766,8.0,4.0,Presentation,00807941205fa_sunahawfngukizslzsd.jpg,00807941205fa.jpg,sunahawfngukizslzsd.jpg,354,30.673284502840918,21.388637196969704,0.8831168831168831,7.0,899398673.0,1551382592.051948,990.8296649350647,1110.1364441558437,733.4669311688311,733.1824766233765,
75,3.0,,o,0.6193420886993408,Face,1.0,Face,00198940128fb_sunaazezcsunmhttzxz.jpg,00198940128fb.jpg,sunaazezcsunmhttzxz.jpg,<,,,,,,,7.0,1551382601.8205972,1551382598.975026,8.0,5.0,Presentation,00968960627fa_sunbagfpovqwbuexqdn.jpg,00968960627fa.jpg,sunbagfpovqwbuexqdn.jpg,355,31.330327950111947,22.012708869410574,1.0,7.0,899406646.5853658,1551382600.0121946,1002.1005878048784,1143.8697012195125,739.7720792682927,769.6708146341466,
76,3.0,,o,0.6921401023864746,Face,1.0,Face,00543940519fa_sunacepzfrmtkiqonpy.jpg,00543940519fa.jpg,sunacepzfrmtkiqonpy.jpg,<,,,,,,,7.0,1551382609.197698,1551382606.343991,8.0,6.0,Presentation,00700941121fa_sunadsgmtznewzyasnk.jpg,00700941121fa.jpg,sunadsgmtznewzyasnk.jpg,356,30.463312603280755,22.09208953059072,0.8734177215189873,7.0,899414692.3797467,1551382608.0379744,982.1421063291141,1104.4419810126583,751.815734177215,763.070405063291,
77,3.0,,x,1.6777029037475586,Face,1.0,Face,00947960627fa_sunasmmcxdddtmtazwx.jpg,00947960627fa.jpg,sunasmmcxdddtmtazwx.jpg,>,,,,,,,7.0,1551382616.463868,1551382613.607784,8.0,7.0,Presentation,00260940128fa_sunabgfhvifeijihhjw.jpg,00260940128fa.jpg,sunabgfhvifeijihhjw.jpg,357,30.38272324381509,22.230552678952993,0.8717948717948718,7.0,899421682.2948717,1551382615.0384614,987.6781294871796,1093.385991025641,733.5582474358972,790.8225076923078,
78,1.0,,x,0.5849308967590332,Face,1.0,Place,00313940422fa_sunabwjvmoaddlyxfjr.jpg,00313940422fa.jpg,sunabwjvmoaddlyxfjr.jpg,<,,,,,,,7.0,1551382624.611111,1551382621.763993,8.0,8.0,Presentation,00631940928fa_sunadbdqzigzwipuipr.jpg,00631940928fa.jpg,sunadbdqzigzwipuipr.jpg,358,28.25695651012073,23.11339691287879,0.3636363636363637,7.0,899429687.3636364,1551382622.909091,792.2659363636363,1143.1938272727273,821.1958545454546,763.722790909091,
79,1.0,,x,1.3529372215270996,Face,0.0,Place,00507940519fa_sunacacflqoyxhsqzhe.jpg,00507940519fa.jpg,sunacacflqoyxhsqzhe.jpg,>,,,,,,,7.0,1551382631.712962,1551382628.867344,8.0,9.0,Presentation,00812941205fa_sunahgtbwgsmtqeodwh.jpg,00812941205fa.jpg,sunahgtbwgsmtqeodwh.jpg,359,30.27077645774148,21.658398882575764,0.7922077922077922,7.0,899436652.6623377,1551382630.0,950.0010415584419,1123.3952857142854,741.5694077922079,743.577944155844,
280,,Category,,,Face,,Face,,,,,2.0,1.774,00294940422fb.jpg,,,,7.0,1551382638.51709,1551382636.519648,8.0,,Memory,,,,360,31.91830574000116,,,,,,,,,,2.0
281,,Novel,,,Face,,,,,,,3.0,0.07400000000000001,00265940128fb.jpg,,,,7.0,1551382641.635916,1551382639.733084,8.0,,Memory,,,,361,,,,,,,,,,,3.0
282,,Novel,,,Place,,,,,,,4.0,1.0859999999999999,sunaaekxzjzrfgtkwjf.jpg,,,,7.0,1551382644.772336,1551382642.871969,8.0,,Memory,,,,362,,,,,,,,,,,4.0
283,,Novel,,,Face,,,,,,,2.0,1.567,00316940422fa.jpg,,,,7.0,1551382647.885058,1551382645.989335,8.0,,Memory,,,,363,,,,,,,,,,,2.0
284,,Side,,,Place,,Face,,,,,4.0,1.034,sunaajpqmulidejvjsr.jpg,,,,7.0,1551382651.0028381,1551382649.1072366,8.0,,Memory,,,,364,31.98161777018229,,,,,,,,,,4.0
285,,Full,,,Face,,Face,,,,,1.0,1.5,00947960627fa.jpg,,,,7.0,1551382654.140281,1551382652.24117,8.0,,Memory,,,,365,30.38272324381509,,,,,,,,,,1.0
286,,None,,,Place,,Face,,,,,2.0,1.423,sunadsgmtznewzyasnk.jpg,,,,7.0,1551382657.271755,1551382655.359494,8.0,,Memory,,,,366,30.463312603280755,,,,,,,,,,2.0
287,,Novel,,,Face,,,,,,,3.0,1.3719999999999999,00876960620fa.jpg,,,,7.0,1551382660.406476,1551382658.505846,8.0,,Memory,,,,367,,,,,,,,,,,3.0
288,,Side,,,Place,,Face,,,,,1.0,1.217,sunasmmcxdddtmtazwx.jpg,,,,7.0,1551382663.541494,1551382661.6272,8.0,,Memory,,,,368,30.38272324381509,,,,,,,,,,1.0
289,,Novel,,,Place,,,,,,,2.0,1.531,sunabkmdplkdbvxriff.jpg,,,,7.0,1551382666.690982,1551382664.763124,8.0,,Memory,,,,369,,,,,,,,,,,2.0
290,,None,,,Place,,Face,,,,,2.0,1.158,sunbxzweleltykebgan.jpg,,,,7.0,1551382669.79964,1551382667.89615,8.0,,Memory,,,,370,31.557926351709906,,,,,,,,,,2.0
291,,Category,,,Face,,Face,,,,,2.0,1.2309999999999999,00812941205fa.jpg,,,,7.0,1551382672.916308,1551382671.014308,8.0,,Memory,,,,371,30.27077645774148,,,,,,,,,,2.0
292,,Category,,,Face,,Face,,,,,3.0,1.205,00700941121fa.jpg,,,,7.0,1551382676.044358,1551382674.149667,8.0,,Memory,,,,372,30.463312603280755,,,,,,,,,,3.0
293,,Full,,,Face,,Face,,,,,1.0,0.8740000000000001,00543940519fa.jpg,,,,7.0,1551382679.184273,1551382677.266016,8.0,,Memory,,,,373,30.463312603280755,,,,,,,,,,1.0
294,,Novel,,,Place,,,,,,,3.0,1.499,sunagmwxxwymwojbvgi.jpg,,,,7.0,1551382682.296993,1551382680.401073,8.0,,Memory,,,,374,,,,,,,,,,,3.0
295,,Full,,,Face,,Face,,,,,3.0,1.207,00198940128fb.jpg,,,,7.0,1551382685.431726,1551382683.513883,8.0,,Memory,,,,375,31.330327950111947,,,,,,,,,,3.0
296,,None,,,Place,,Face,,,,,2.0,1.123,sunabrlndkruqokhury.jpg,,,,7.0,1551382688.533319,1551382686.6359382,8.0,,Memory,,,,376,31.91830574000116,,,,,,,,,,2.0
297,,Full,,,Face,,Face,,,,,3.0,1.239,00098931230fa.jpg,,,,7.0,1551382691.733514,1551382689.770545,8.0,,Memory,,,,377,31.98161777018229,,,,,,,,,,3.0
298,,Novel,,,Place,,,,,,,2.0,1.821,sunaapfaivxqoynnwwp.jpg,,,,7.0,1551382694.8417199,1551382692.937687,8.0,,Memory,,,,378,,,,,,,,,,,2.0
299,,Side,,,Place,,Face,,,,,1.0,1.135,sunacepzfrmtkiqonpy.jpg,,,,7.0,1551382697.968339,1551382696.056705,8.0,,Memory,,,,379,30.463312603280755,,,,,,,,,,1.0
300,,Novel,,,Place,,,,,,,2.0,0.917,sunabxmguapjekttvwm.jpg,,,,7.0,1551382701.090044,1551382699.19119,8.0,,Memory,,,,380,,,,,,,,,,,2.0
301,,Category,,,Face,,Face,,,,,2.0,0.865,01009960627fa.jpg,,,,7.0,1551382704.254711,1551382702.3249679,8.0,,Memory,,,,381,31.557926351709906,,,,,,,,,,2.0
302,,Full,,,Face,,Face,,,,,1.0,0.7809999999999999,00132931230fb.jpg,,,,7.0,1551382707.378457,1551382705.475526,8.0,,Memory,,,,382,30.979269623220787,,,,,,,,,,1.0
303,,Side,,,Place,,Face,,,,,2.0,1.416,sunaazezcsunmhttzxz.jpg,,,,7.0,1551382710.50786,1551382708.610608,8.0,,Memory,,,,383,31.330327950111947,,,,,,,,,,2.0
304,,Novel,,,Face,,,,,,,2.0,1.2009999999999998,00976960627fa.jpg,,,,7.0,1551382713.657837,1551382711.72785,8.0,,Memory,,,,384,,,,,,,,,,,2.0
305,,Novel,,,Face,,,,,,,1.0,0.7490000000000001,00792941205fa.jpg,,,,7.0,1551382716.781291,1551382714.879191,8.0,,Memory,,,,385,,,,,,,,,,,1.0
306,,Novel,,,Face,,,,,,,1.0,1.09,00245940128fa.jpg,,,,7.0,1551382719.9097118,1551382718.012797,8.0,,Memory,,,,386,,,,,,,,,,,1.0
307,,Side,,,Place,,Face,,,,,2.0,1.133,sunaanjcbzdvtvblsdy.jpg,,,,7.0,1551382723.059269,1551382721.1310642,8.0,,Memory,,,,387,30.979269623220787,,,,,,,,,,2.0
308,,Novel,,,Place,,,,,,,4.0,1.0859999999999999,sunaaeplwsfslcbtojr.jpg,,,,7.0,1551382726.2446392,1551382724.2830892,8.0,,Memory,,,,388,,,,,,,,,,,4.0
309,,Novel,,,Face,,,,,,,2.0,0.624,00787941205fa.jpg,,,,7.0,1551382729.379153,1551382727.448154,8.0,,Memory,,,,389,,,,,,,,,,,2.0
310,,Novel,,,Place,,,,,,,1.0,0.8190000000000001,sunagsiwrmuixqgdimb.jpg,,,,7.0,1551382732.495588,1551382730.600543,8.0,,Memory,,,,390,,,,,,,,,,,1.0
311,,None,,,Place,,Face,,,,,3.0,0.6729999999999999,sunajrujcsdxmfbssmc.jpg,,,,7.0,1551382735.649194,1551382733.719074,8.0,,Memory,,,,391,30.979269623220787,,,,,,,,,,3.0
312,,Novel,,,Face,,,,,,,2.0,0.622,00138931230fa.jpg,,,,7.0,1551382738.769771,1551382736.8691368,8.0,,Memory,,,,392,,,,,,,,,,,2.0
313,,Novel,,,Place,,,,,,,3.0,0.74,sunabeyhmxodahoieyk.jpg,,,,7.0,1551382741.916599,1551382739.988115,8.0,,Memory,,,,393,,,,,,,,,,,3.0
314,,Novel,,,Face,,,,,,,1.0,0.8190000000000001,00070940307fa.jpg,,,,7.0,1551382745.051068,1551382743.154353,8.0,,Memory,,,,394,,,,,,,,,,,1.0
315,,Novel,,,Place,,,,,,,3.0,0.93,sunbbhqyyzmsxhsbjmp.jpg,,,,7.0,1551382748.201322,1551382746.289584,8.0,,Memory,,,,395,,,,,,,,,,,3.0
316,,Category,,,Face,,Face,,,,,2.0,0.6890000000000001,00871940307.jpg,,,,7.0,1551382751.603087,1551382749.67356,8.0,,Memory,,,,396,30.979269623220787,,,,,,,,,,2.0
317,,None,,,Place,,Face,,,,,1.0,1.125,sunahgtbwgsmtqeodwh.jpg,,,,7.0,1551382755.078019,1551382752.857789,8.0,,Memory,,,,397,30.27077645774148,,,,,,,,,,1.0
318,,Novel,,,Place,,,,,,,2.0,1.256,sunajwqkfsykceonyig.jpg,,,,7.0,1551382758.2050538,1551382756.309046,8.0,,Memory,,,,398,,,,,,,,,,,2.0
319,,Novel,,,Face,,,,,,,2.0,1.4409999999999998,00061931230fb.jpg,,,,7.0,1551382761.4128554,1551382759.4444606,8.0,,Memory,,,,399,,,,,,,,,,,2.0
80,3.0,,o,1.0002751350402832,Face,1.0,Place,01009960627fa_sunbxzweleltykebgan.jpg,01009960627fa.jpg,sunbxzweleltykebgan.jpg,>,,,,,,,3.0,1554129303.6942382,1554129300.694103,15.0,0.0,Presentation,00630940928fa_sunaczwgyukesaajxnx.jpg,00630940928fa.jpg,sunaczwgyukesaajxnx.jpg,150,31.50233146799189,15.07970874451754,0.8026315789473685,7.0,424883232.34210527,1554129302.0394738,1114.2853013157896,1043.4663657894732,522.0973039473683,511.9398671052633,
81,1.0,,x,0.9498751163482666,Face,1.0,Face,00060931230fa_sunaaehaikpckyjsety.jpg,00060931230fa.jpg,sunaaehaikpckyjsety.jpg,<,,,,,,,3.0,1554129311.4151,1554129308.4665804,15.0,1.0,Presentation,00741941201fa_sunaemcowdozyphwknd.jpg,00741941201fa.jpg,sunaemcowdozyphwknd.jpg,151,30.60263477469309,17.0473255625,0.8571428571428571,7.0,424891282.4,1554129310.142857,1103.3585042857142,992.7684528571423,635.4364599999999,533.5230071428572,
82,3.0,,o,0.6927189826965332,Face,1.0,Face,00913960530fa_sunaooffzffbhcpirmm.jpg,00913960530fa.jpg,sunaooffzffbhcpirmm.jpg,>,,,,,,,3.0,1554129319.100013,1554129316.153763,15.0,2.0,Presentation,00093931230fa_sunaahwnmtqsrhocysw.jpg,00093931230fa.jpg,sunaahwnmtqsrhocysw.jpg,152,30.61294594511144,16.100650695465685,1.0,7.0,424899353.8970589,1554129318.1617644,1092.936298529412,1003.8969220588234,583.0778411764705,520.9667779411764,
83,3.0,,o,0.8129830360412598,Face,1.0,Face,00636941031fa_sunaddtdkycxbqlpfqa.jpg,00636941031fa.jpg,sunaddtdkycxbqlpfqa.jpg,>,,,,,,,3.0,1554129326.474393,1554129323.522177,15.0,3.0,Presentation,00564941031fa_sunacsaovnjezqwbykf.jpg,00564941031fa.jpg,sunacsaovnjezqwbykf.jpg,153,30.676507008584103,15.790363263888883,0.9753086419753086,7.0,424906184.72839504,1554129325.0,1099.5317530864204,1001.6550814814814,578.9906074074074,503.7771592592592,
84,3.0,,o,0.8169069290161133,Face,1.0,Face,01010960627fa_suncnkvbhypnivcohyx.jpg,01010960627fa.jpg,suncnkvbhypnivcohyx.jpg,>,,,,,,,3.0,1554129334.004535,1554129331.053918,15.0,4.0,Presentation,00124931230fa_sunaalhlvzmjmitybdn.jpg,00124931230fa.jpg,sunaalhlvzmjmitybdn.jpg,154,30.697905714494986,17.025224145833334,0.35714285714285715,7.0,424914330.9,1554129333.1285715,1093.3972499999998,1009.2552885714287,667.5351042857145,499.9088371428572,
85,3.0,,o,0.9491121768951416,Face,1.0,Place,00133931230fa_sunaanlwnpqndclffxt.jpg,00133931230fa.jpg,sunaanlwnpqndclffxt.jpg,<,,,,,,,3.0,1554129341.508591,1554129338.560011,15.0,5.0,Presentation,00968960627fa_sunbagfpovqwbuexqdn.jpg,00968960627fa.jpg,sunbagfpovqwbuexqdn.jpg,155,30.59552796097876,14.796714242957744,0.9014084507042254,7.0,424920990.8591549,1554129339.8591552,1085.8443845070422,1009.7957915492959,547.7133915492957,466.9184422535211,
86,1.0,,x,0.7669978141784668,Face,1.0,Place,00884960530fa_sunakodkcslgqhqlgwl.jpg,00884960530fa.jpg,sunakodkcslgqhqlgwl.jpg,<,,,,,,,3.0,1554129349.1425061,1554129346.197743,15.0,6.0,Presentation,00574940928fa_sunacvbrcejzwmcgnoq.jpg,00574940928fa.jpg,sunacvbrcejzwmcgnoq.jpg,156,30.631276697771987,16.101755257201642,0.8148148148148148,7.0,424929168.07407415,1554129348.0,1085.138995061729,1012.9497901234568,599.6731148148149,504.4472456790122,
87,3.0,,o,0.8692111968994141,Face,1.0,Face,00073931230fa_sunaafbmtoniaasysgu.jpg,00073931230fa.jpg,sunaafbmtoniaasysgu.jpg,<,,,,,,,3.0,1554129356.61301,1554129353.660533,15.0,7.0,Presentation,00966960627fa_sunaygrtwrwfezqjizr.jpg,00966960627fa.jpg,sunaygrtwrwfezqjizr.jpg,157,30.465239792920734,15.441545597677596,0.9672131147540984,7.0,424936384.3278689,1554129355.2459016,1095.0801639344259,991.6359262295082,564.5754901639344,494.27335081967215,
88,1.0,,x,1.126711130142212,Face,1.0,Place,00123931230fb_sunaalcrrdbjgdztbiz.jpg,00123931230fb.jpg,sunaalcrrdbjgdztbiz.jpg,<,,,,,,,3.0,1554129364.1806939,1554129361.229907,15.0,8.0,Presentation,00505960627fa_sunabzuqsrgcsonqlkz.jpg,00505960627fa.jpg,sunabzuqsrgcsonqlkz.jpg,158,30.3210434465384,15.778944007092194,0.851063829787234,7.0,424944470.3404256,1554129363.319149,1084.4440531914893,992.3953106382982,585.755625531915,496.2291063829786,
89,1.0,,x,1.0017290115356443,Face,1.0,Place,00142931230fb_sunaapxkpvrhpjplsok.jpg,00142931230fb.jpg,sunaapxkpvrhpjplsok.jpg,>,,,,,,,3.0,1554129372.054602,1554129369.103408,15.0,9.0,Presentation,00949960627fb_sunasnqkkyhilqkxiqm.jpg,00949960627fb.jpg,sunasnqkkyhilqkxiqm.jpg,159,30.83524417621813,16.103179588815788,0.7894736842105263,7.0,424952239.8552632,1554129371.0394738,1103.852193421053,1008.2073407894736,597.8033631578949,506.4146657894737,
160,,Side,,,Face,,Place,,,,,,0.0,01010960627fa.jpg,,,,3.0,1554129378.519477,1554129376.456618,15.0,,Memory,,,,160,30.697905714494986,,,,,,,,,,
161,,Novel,,,Face,,,,,,,1.0,1.051,00080931230fb.jpg,,,,3.0,1554129381.755721,1554129379.790825,15.0,,Memory,,,,161,,,,,,,,,,,1.0
162,,Category,,,Place,,Place,,,,,1.0,1.034,sunaemcowdozyphwknd.jpg,,,,3.0,1554129384.989283,1554129383.008728,15.0,,Memory,,,,162,30.60263477469309,,,,,,,,,,1.0
163,,Novel,,,Place,,,,,,,1.0,0.69,sunabqowuarvqqcnipn.jpg,,,,3.0,1554129388.211939,1554129386.238497,15.0,,Memory,,,,163,,,,,,,,,,,1.0
164,,Category,,,Place,,Place,,,,,3.0,1.486,sunaahwnmtqsrhocysw.jpg,,,,3.0,1554129391.4406269,1554129389.455437,15.0,,Memory,,,,164,30.61294594511144,,,,,,,,,,3.0
165,,Category,,,Place,,Place,,,,,2.0,1.138,sunaygrtwrwfezqjizr.jpg,,,,3.0,1554129394.657691,1554129392.677465,15.0,,Memory,,,,165,30.465239792920734,,,,,,,,,,2.0
166,,Novel,,,Face,,,,,,,1.0,0.8740000000000001,00086931230fa.jpg,,,,3.0,1554129397.9476562,1554129395.913009,15.0,,Memory,,,,166,,,,,,,,,,,1.0
167,,Side,,,Face,,Place,,,,,1.0,1.0170000000000001,00133931230fa.jpg,,,,3.0,1554129401.161269,1554129399.212572,15.0,,Memory,,,,167,30.59552796097876,,,,,,,,,,1.0
168,,Category,,,Place,,Place,,,,,2.0,1.2209999999999999,sunacvbrcejzwmcgnoq.jpg,,,,3.0,1554129404.377763,1554129402.397595,15.0,,Memory,,,,168,30.631276697771987,,,,,,,,,,2.0
169,,Side,,,Face,,Place,,,,,1.0,0.601,00073931230fa.jpg,,,,3.0,1554129407.719681,1554129405.6666028,15.0,,Memory,,,,169,30.465239792920734,,,,,,,,,,1.0
170,,Full,,,Place,,Place,,,,,1.0,1.355,sunaafbmtoniaasysgu.jpg,,,,3.0,1554129410.980149,1554129408.983562,15.0,,Memory,,,,170,30.465239792920734,,,,,,,,,,1.0
171,,None,,,Face,,Place,,,,,2.0,1.14,00093931230fa.jpg,,,,3.0,1554129414.380022,1554129412.251583,15.0,,Memory,,,,171,30.61294594511144,,,,,,,,,,2.0
172,,Novel,,,Place,,,,,,,1.0,0.94,sunaafjszryxyavjzln.jpg,,,,3.0,1554129417.74827,1554129415.669964,15.0,,Memory,,,,172,,,,,,,,,,,1.0
173,,Side,,,Face,,Place,,,,,1.0,0.987,01009960627fa.jpg,,,,3.0,1554129420.967091,1554129419.002444,15.0,,Memory,,,,173,31.50233146799189,,,,,,,,,,1.0
174,,Novel,,,Place,,,,,,,2.0,1.252,sunacacflqoyxhsqzhe.jpg,,,,3.0,1554129424.251287,1554129422.200042,15.0,,Memory,,,,174,,,,,,,,,,,2.0
175,,Category,,,Place,,Place,,,,,1.0,1.051,sunacsaovnjezqwbykf.jpg,,,,3.0,1554129427.587029,1554129425.639574,15.0,,Memory,,,,175,30.676507008584103,,,,,,,,,,1.0
176,,None,,,Face,,Place,,,,,1.0,0.8490000000000001,00564941031fa.jpg,,,,3.0,1554129430.860539,1554129428.8908482,15.0,,Memory,,,,176,30.676507008584103,,,,,,,,,,1.0
177,,Novel,,,Place,,,,,,,2.0,1.301,sunawksfbacycuhbrsc.jpg,,,,3.0,1554129434.322324,1554129432.27484,15.0,,Memory,,,,177,,,,,,,,,,,2.0
178,,None,,,Face,,Place,,,,,1.0,0.758,00741941201fa.jpg,,,,3.0,1554129437.640739,1554129435.610074,15.0,,Memory,,,,178,30.60263477469309,,,,,,,,,,1.0
179,,Novel,,,Face,,,,,,,1.0,0.741,00794960620fa.jpg,,,,3.0,1554129440.897146,1554129438.89327,15.0,,Memory,,,,179,,,,,,,,,,,1.0
180,,Full,,,Place,,Place,,,,,,0.0,suncnkvbhypnivcohyx.jpg,,,,3.0,1554129444.19752,1554129442.1567054,15.0,,Memory,,,,180,30.697905714494986,,,,,,,,,,
181,,Novel,,,Face,,,,,,,,0.0,00290940422fa.jpg,,,,3.0,1554129447.5770311,1554129445.624857,15.0,,Memory,,,,181,,,,,,,,,,,
182,,None,,,Face,,Place,,,,,1.0,0.789,00574940928fa.jpg,,,,3.0,1554129450.87694,1554129448.829873,15.0,,Memory,,,,182,30.631276697771987,,,,,,,,,,1.0
183,,Novel,,,Face,,,,,,,1.0,0.782,00507940519fa.jpg,,,,3.0,1554129454.10982,1554129452.131168,15.0,,Memory,,,,183,,,,,,,,,,,1.0
184,,Novel,,,Face,,,,,,,2.0,1.188,00559940519fa.jpg,,,,3.0,1554129457.365798,1554129455.365937,15.0,,Memory,,,,184,,,,,,,,,,,2.0
185,,Novel,,,Face,,,,,,,1.0,0.8320000000000001,00782941205fa.jpg,,,,3.0,1554129460.582717,1554129458.615916,15.0,,Memory,,,,185,,,,,,,,,,,1.0
186,,Novel,,,Face,,,,,,,1.0,1.5319999999999998,00098931230fa.jpg,,,,3.0,1554129463.831399,1554129461.850647,15.0,,Memory,,,,186,,,,,,,,,,,1.0
187,,None,,,Face,,Place,,,,,1.0,0.8490000000000001,00966960627fa.jpg,,,,3.0,1554129467.2324278,1554129465.247428,15.0,,Memory,,,,187,30.465239792920734,,,,,,,,,,1.0
188,,Novel,,,Place,,,,,,,1.0,1.121,sunacjkmnpawfzbyvae.jpg,,,,3.0,1554129470.568687,1554129468.5868616,15.0,,Memory,,,,188,,,,,,,,,,,1.0
189,,Novel,,,Place,,,,,,,2.0,1.475,sunaajpqmulidejvjsr.jpg,,,,3.0,1554129473.933413,1554129471.871317,15.0,,Memory,,,,189,,,,,,,,,,,2.0
190,,Full,,,Place,,Place,,,,,1.0,1.591,sunbxzweleltykebgan.jpg,,,,3.0,1554129477.3598962,1554129475.289438,15.0,,Memory,,,,190,31.50233146799189,,,,,,,,,,1.0
191,,Full,,,Place,,Place,,,,,3.0,1.686,sunaanlwnpqndclffxt.jpg,,,,3.0,1554129480.7365491,1554129478.723351,15.0,,Memory,,,,191,30.59552796097876,,,,,,,,,,3.0
192,,Novel,,,Place,,,,,,,1.0,0.892,sunagtqhhwxjeuxdebe.jpg,,,,3.0,1554129484.057828,1554129482.008635,15.0,,Memory,,,,192,,,,,,,,,,,1.0
193,,Novel,,,Face,,,,,,,2.0,1.015,00960960627fa.jpg,,,,3.0,1554129487.377868,1554129485.342025,15.0,,Memory,,,,193,,,,,,,,,,,2.0
194,,Novel,,,Place,,,,,,,2.0,1.185,sunagdzlvkqtpnfxfcg.jpg,,,,3.0,1554129490.6559598,1554129488.643211,15.0,,Memory,,,,194,,,,,,,,,,,2.0
195,,Side,,,Face,,Place,,,,,1.0,0.9329999999999999,00142931230fb.jpg,,,,3.0,1554129494.060278,1554129492.078223,15.0,,Memory,,,,195,30.83524417621813,,,,,,,,,,1.0
196,,Novel,,,Face,,,,,,,1.0,0.6559999999999999,00779941205fa.jpg,,,,3.0,1554129497.328664,1554129495.37833,15.0,,Memory,,,,196,,,,,,,,,,,1.0
197,,Novel,,,Place,,,,,,,1.0,1.4340000000000002,sunaafynehyrzpsoaml.jpg,,,,3.0,1554129500.5835788,1554129498.5913599,15.0,,Memory,,,,197,,,,,,,,,,,1.0
198,,Full,,,Place,,Place,,,,,1.0,1.123,sunaapxkpvrhpjplsok.jpg,,,,3.0,1554129503.815667,1554129501.847709,15.0,,Memory,,,,198,30.83524417621813,,,,,,,,,,1.0
199,,Novel,,,Place,,,,,,,1.0,0.866,sunagfvluwixdsozaql.jpg,,,,3.0,1554129507.027502,1554129505.0820339,15.0,,Memory,,,,199,,,,,,,,,,,1.0
90,3.0,,o,1.3336148262023926,Face,1.0,Face,00857940307fa_sunaiwfobocrruqznsv.jpg,00857940307fa.jpg,sunaiwfobocrruqznsv.jpg,>,,,,,,,2.0,1554128982.723674,1554128979.67285,15.0,0.0,Presentation,00978960627fa_sunbddbivbptlrlauhy.jpg,00978960627fa.jpg,sunbddbivbptlrlauhy.jpg,100,30.601477489149307,18.41756883101852,0.7592592592592593,7.0,424562298.2962963,1554128981.148148,1015.916622222222,1080.1310666666666,611.7335703703702,651.1854351851854,
91,1.0,,x,0.8314058780670166,Face,1.0,Place,00589940928fa_sunacwggadqsfpovdjv.jpg,00589940928fa.jpg,sunacwggadqsfpovdjv.jpg,>,,,,,,,2.0,1554128990.92832,1554128987.9245946,15.0,1.0,Presentation,00746941201fa_sunaetydippjxikifsb.jpg,00746941201fa.jpg,sunaetydippjxikifsb.jpg,101,30.389195194498697,19.04972278125,0.8666666666666667,7.0,424570341.55,1554128989.1166663,1025.13022,1056.3771966666666,648.1987133333333,658.0679916666664,
92,3.0,,o,0.739116907119751,Face,1.0,Face,00953960627fa_sunatstrpjxhvtbaczf.jpg,00953960627fa.jpg,sunatstrpjxhvtbaczf.jpg,<,,,,,,,2.0,1554128998.59456,1554128995.59916,15.0,2.0,Presentation,00788941205fa_sunagountlxpzkytsmp.jpg,00788941205fa.jpg,sunagountlxpzkytsmp.jpg,102,29.776869839624855,19.102033074712644,0.8275862068965517,7.0,424578202.36206895,1554128997.0172415,1007.7323155172412,1031.8338862068963,657.6950706896554,652.1586258620689,
93,1.0,,x,0.8331508636474609,Face,1.0,Place,00749941201fa_sunaeuvjbmdpknaqqaj.jpg,00749941201fa.jpg,sunaeuvjbmdpknaqqaj.jpg,>,,,,,,,2.0,1554129006.298362,1554129003.296612,15.0,3.0,Presentation,00138931230fa_sunaapfaivxqoynnwwp.jpg,00138931230fa.jpg,sunaapfaivxqoynnwwp.jpg,103,30.017585384928374,18.20467422008548,1.0,7.0,424586191.2692308,1554129005.025641,1014.3178102564101,1041.736198717949,619.2419538461537,629.078564102564,
94,3.0,,o,2.58784818649292,Face,1.0,Place,00922960627fa_sunapqkyghktgtosuuk.jpg,00922960627fa.jpg,sunapqkyghktgtosuuk.jpg,<,,,,,,,2.0,1554129014.036603,1554129011.0333538,15.0,4.0,Presentation,00239940128fa_sunabctlikybqabezjv.jpg,00239940128fa.jpg,sunabctlikybqabezjv.jpg,104,29.90761155374897,18.58132765151515,1.0,7.0,424594205.6233766,1554129013.051948,1014.731109090909,1033.7902441558447,641.0046701298704,633.1435116883115,
95,3.0,,o,0.9094419479370116,Face,1.0,Place,00805941205fa_sunagwzdbtlixdhgolm.jpg,00805941205fa.jpg,sunagwzdbtlixdhgolm.jpg,>,,,,,,,2.0,1554129023.442557,1554129020.440365,15.0,5.0,Presentation,00938960627fa_sunaqyylsngywqzwfmx.jpg,00938960627fa.jpg,sunaqyylsngywqzwfmx.jpg,105,30.36806896400189,18.819079798850574,0.8793103448275862,7.0,424603529.82758623,1554129022.362069,1034.3835827586204,1045.676793103448,668.0703551724138,622.3808310344828,
96,1.0,,x,0.8683969974517822,Face,1.0,Face,00081941031fa_sunaaftlyfudyzuhqzf.jpg,00081941031fa.jpg,sunaaftlyfudyzuhqzf.jpg,<,,,,,,,2.0,1554129031.173268,1554129028.1709714,15.0,6.0,Presentation,00871940307_sunajrujcsdxmfbssmc.jpg,00871940307.jpg,sunajrujcsdxmfbssmc.jpg,106,29.12273186816407,18.005571791666668,0.9384615384615383,7.0,424611283.1076924,1554129030.1384616,993.3661723076924,1001.3948599999997,615.4672184615384,619.2005615384612,
97,3.0,,o,0.7980358600616455,Face,1.0,Face,00598940928fa_sunacxeheuiigkcgquf.jpg,00598940928fa.jpg,sunacxeheuiigkcgquf.jpg,>,,,,,,,2.0,1554129038.847881,1554129035.84054,15.0,7.0,Presentation,00184940128fa_sunaavtbadenwnzeutj.jpg,00184940128fa.jpg,sunaavtbadenwnzeutj.jpg,107,30.530165697157113,18.514099652777773,0.9523809523809524,7.0,424618414.77777785,1554129037.2063491,1040.5319507936506,1050.6312380952377,660.5017317460321,609.03653015873,
98,3.0,,o,1.1234700679779053,Face,1.0,Face,00906960530fa_sunantryfbloeaomfta.jpg,00906960530fa.jpg,sunantryfbloeaomfta.jpg,<,,,,,,,2.0,1554129046.477421,1554129043.480526,15.0,8.0,Presentation,00950960627fa_sunasrjlmglmjzbmqxb.jpg,00950960627fa.jpg,sunasrjlmglmjzbmqxb.jpg,108,29.87450484608824,18.805848685446012,0.9577464788732394,7.0,424626232.4507042,1554129045.056338,1011.9197690140843,1034.3339408450706,659.4738338028171,630.0700760563379,
99,3.0,,x,1.0485541820526123,Face,1.0,Place,00214940128fa_sunabbafjowbzcvbucc.jpg,00214940128fa.jpg,sunabbafjowbzcvbucc.jpg,<,,,,,,,2.0,1554129054.436286,1554129051.433827,15.0,9.0,Presentation,00965960627fa_sunaydywdmvlfddbxbk.jpg,00965960627fa.jpg,sunaydywdmvlfddbxbk.jpg,109,29.471662387403804,18.658215537935327,0.9402985074626866,7.0,424633971.8208955,1554129052.7910447,1000.789143283582,1017.871879104478,652.3199716417912,627.1005223880597,
200,,Side,,,Place,,Face,,,,,,0.0,sunabbafjowbzcvbucc.jpg,,,,2.0,1554129061.949728,1554129059.31917,15.0,,Memory,,,,110,29.471662387403804,,,,,,,,,,
201,,Category,,,Face,,Face,,,,,2.0,0.9420000000000001,00950960627fa.jpg,,,,2.0,1554129065.372015,1554129063.3037698,15.0,,Memory,,,,111,29.87450484608824,,,,,,,,,,2.0
202,,Full,,,Face,,Face,,,,,,0.0,00805941205fa.jpg,,,,2.0,1554129068.822221,1554129066.688587,15.0,,Memory,,,,112,30.36806896400189,,,,,,,,,,
203,,Side,,,Place,,Face,,,,,1.0,2.542,sunatstrpjxhvtbaczf.jpg,,,,2.0,1554129072.657779,1554129070.123665,15.0,,Memory,,,,113,29.776869839624855,,,,,,,,,,1.0
204,,None,,,Place,,Face,,,,,2.0,1.6880000000000002,sunaapfaivxqoynnwwp.jpg,,,,2.0,1554129076.16062,1554129073.9409974,15.0,,Memory,,,,114,30.017585384928374,,,,,,,,,,2.0
205,,Side,,,Place,,Face,,,,,3.0,1.37,sunagwzdbtlixdhgolm.jpg,,,,2.0,1554129079.759279,1554129077.4250062,15.0,,Memory,,,,115,30.36806896400189,,,,,,,,,,3.0
206,,Novel,,,Face,,,,,,,2.0,1.604,00870940307fa.jpg,,,,2.0,1554129083.255841,1554129081.060305,15.0,,Memory,,,,116,,,,,,,,,,,2.0
207,,Full,,,Face,,Face,,,,,1.0,1.57,00953960627fa.jpg,,,,2.0,1554129086.840796,1554129084.527226,15.0,,Memory,,,,117,29.776869839624855,,,,,,,,,,1.0
208,,None,,,Place,,Face,,,,,1.0,1.2,sunasrjlmglmjzbmqxb.jpg,,,,2.0,1554129090.3629081,1554129088.22954,15.0,,Memory,,,,118,29.87450484608824,,,,,,,,,,1.0
209,,Category,,,Face,,Face,,,,,1.0,1.358,00938960627fa.jpg,,,,2.0,1554129093.7106302,1554129091.6628392,15.0,,Memory,,,,119,30.36806896400189,,,,,,,,,,1.0
210,,Novel,,,Face,,,,,,,,0.0,00108960530fa.jpg,,,,2.0,1554129097.501459,1554129094.999085,15.0,,Memory,,,,120,,,,,,,,,,,
211,,Novel,,,Face,,,,,,,1.0,0.986,00947960627fa.jpg,,,,2.0,1554129100.9303901,1554129098.799094,15.0,,Memory,,,,121,,,,,,,,,,,1.0
212,,Novel,,,Place,,,,,,,2.0,1.3259999999999998,sunabckqabszusgcykj.jpg,,,,2.0,1554129104.383322,1554129102.216505,15.0,,Memory,,,,122,,,,,,,,,,,2.0
213,,Full,,,Face,,Face,,,,,3.0,1.158,00081941031fa.jpg,,,,2.0,1554129108.053659,1554129105.6520278,15.0,,Memory,,,,123,29.12273186816407,,,,,,,,,,3.0
214,,Category,,,Face,,Face,,,,,1.0,1.776,00978960627fa.jpg,,,,2.0,1554129111.517791,1554129109.319043,15.0,,Memory,,,,124,30.601477489149307,,,,,,,,,,1.0
215,,Novel,,,Place,,,,,,,1.0,0.9329999999999999,sunajrgtewnualfcerj.jpg,,,,2.0,1554129114.887757,1554129112.88674,15.0,,Memory,,,,125,,,,,,,,,,,1.0
216,,None,,,Place,,Face,,,,,1.0,0.96,sunaqyylsngywqzwfmx.jpg,,,,2.0,1554129118.500774,1554129116.138368,15.0,,Memory,,,,126,30.36806896400189,,,,,,,,,,1.0
217,,Full,,,Face,,Face,,,,,1.0,0.8079999999999999,00214940128fa.jpg,,,,2.0,1554129122.051846,1554129119.807321,15.0,,Memory,,,,127,29.471662387403804,,,,,,,,,,1.0
218,,Novel,,,Face,,,,,,,1.0,1.7919999999999998,00554940519fa.jpg,,,,2.0,1554129125.6373198,1554129123.34048,15.0,,Memory,,,,128,,,,,,,,,,,1.0
219,,Novel,,,Face,,,,,,,2.0,0.892,00976960627fa.jpg,,,,2.0,1554129129.03777,1554129126.908006,15.0,,Memory,,,,129,,,,,,,,,,,2.0
220,,Novel,,,Place,,,,,,,1.0,0.792,sunasmmcxdddtmtazwx.jpg,,,,2.0,1554129132.6551766,1554129130.343029,15.0,,Memory,,,,130,,,,,,,,,,,1.0
