,Unnamed: 0,Subject,Trial Type,Run,Cued Composite,Uncued Composite,Cued Face,Cued Place,Uncued Face,Uncued Place,Memory Image,Category,Cued Side,Cued Category,Attention Reaction Time (s),Familiarity Reaction Time (s),Familiarity Rating,Attention Level,Cue Validity,Post Invalid Cue,Pre Invalid Cue,Attention Button,Rating History,Stimulus Onset,Stimulus End,Attention Probe,Trial
124,64,1.0,Memory,1.0,,,,,,,sunabxmguapjekttvwm.jpg,Place,,Place,,0.9390000000000001,4.0,Full,,,,,,1550775197.301143,1550775199.2843812,,
131,71,1.0,Memory,1.0,,,,,,,00719941201fa.jpg,Face,,Place,,0.6709999999999999,1.0,None,,,,,,1550775220.4630132,1550775222.443375,,
137,77,1.0,Memory,1.0,,,,,,,sunadvithllcgmfxsrn.jpg,Place,,Place,,0.85,1.0,Category,,,,,,1550775240.164425,1550775242.150041,,
156,96,1.0,Memory,1.0,,,,,,,00316940422fa.jpg,Face,,Place,,0.915,2.0,Side,,,,,,1550775303.307688,1550775305.336488,,
124,64,1.0,Memory,1.0,,,,,,,sunabxmguapjekttvwm.jpg,Place,,Place,,0.9390000000000001,4.0,Full,,,,,,1550775197.301143,1550775199.2843812,,
131,71,1.0,Memory,1.0,,,,,,,00719941201fa.jpg,Face,,Place,,0.6709999999999999,1.0,None,,,,,,1550775220.4630132,1550775222.443375,,
137,77,1.0,Memory,1.0,,,,,,,sunadvithllcgmfxsrn.jpg,Place,,Place,,0.85,1.0,Category,,,,,,1550775240.164425,1550775242.150041,,
156,96,1.0,Memory,1.0,,,,,,,00316940422fa.jpg,Face,,Place,,0.915,2.0,Side,,,,,,1550775303.307688,1550775305.336488,,
210,120,1.0,Memory,2.0,,,,,,,00804960530fa.jpg,Face,,Place,,1.198,4.0,None,,,,,,1550775560.636878,1550775562.67068,,
217,127,1.0,Memory,2.0,,,,,,,sunaguchqqnrtodtezq.jpg,Place,,Place,,1.442,3.0,Full,,,,,,1550775584.6991231,1550775586.7470212,,
219,129,1.0,Memory,2.0,,,,,,,00796941205fa.jpg,Face,,Place,,0.972,2.0,Side,,,,,,1550775591.347076,1550775593.389192,,
235,145,1.0,Memory,2.0,,,,,,,sunagwswhkvnsmuszlz.jpg,Place,,Place,,0.935,2.0,Category,,,,,,1550775645.218426,1550775647.237158,,
160,160,1.0,Memory,3.0,,,,,,,sunadakkdovnuzlycvp.jpg,Place,,Face,,1.232,4.0,Side,,,,,,1550775892.916895,1550775895.045549,,
180,180,1.0,Memory,3.0,,,,,,,00630941031fa.jpg,Face,,Face,,1.1159999999999999,2.0,Full,,,,,,1550775960.021743,1550775962.102551,,
190,190,1.0,Memory,3.0,,,,,,,00294940422fb.jpg,Face,,Face,,1.055,1.0,Category,,,,,,1550775993.216461,1550775995.232934,,
192,192,1.0,Memory,3.0,,,,,,,sunabrlndkruqokhury.jpg,Place,,Face,,1.921,1.0,None,,,,,,1550775999.868944,1550776001.915129,,
325,265,1.0,Memory,5.0,,,,,,,00081941031fa.jpg,Face,,Place,,1.124,1.0,None,,,,,,1550776642.895556,1550776644.874611,,
335,275,1.0,Memory,5.0,,,,,,,00564941031fa.jpg,Face,,Place,,1.249,2.0,Side,,,,,,1550776675.939918,1550776678.0863929,,
337,277,1.0,Memory,5.0,,,,,,,sunacsaovnjezqwbykf.jpg,Place,,Place,,1.003,2.0,Full,,,,,,1550776682.642525,1550776684.676128,,
351,291,1.0,Memory,5.0,,,,,,,sunaaftlyfudyzuhqzf.jpg,Place,,Place,,1.058,2.0,Category,,,,,,1550776729.024016,1550776731.103717,,
325,265,1.0,Memory,5.0,,,,,,,00081941031fa.jpg,Face,,Place,,1.124,1.0,None,,,,,,1550776642.895556,1550776644.874611,,
335,275,1.0,Memory,5.0,,,,,,,00564941031fa.jpg,Face,,Place,,1.249,2.0,Side,,,,,,1550776675.939918,1550776678.0863929,,
337,277,1.0,Memory,5.0,,,,,,,sunacsaovnjezqwbykf.jpg,Place,,Place,,1.003,2.0,Full,,,,,,1550776682.642525,1550776684.676128,,
351,291,1.0,Memory,5.0,,,,,,,sunaaftlyfudyzuhqzf.jpg,Place,,Place,,1.058,2.0,Category,,,,,,1550776729.024016,1550776731.103717,,
123,63,1.0,Memory,1.0,,,,,,,sunakgbnzxmfohgehnu.jpg,,,,,0.981,1.0,Novel,,,,,,1550775193.975397,1550775196.0533,,
126,66,1.0,Memory,1.0,,,,,,,00115931230fa.jpg,,,,,0.792,1.0,Novel,,,,,,1550775203.841079,1550775205.8937972,,
128,68,1.0,Memory,1.0,,,,,,,00743941201fa.jpg,,,,,0.6920000000000001,2.0,Novel,,,,,,1550775210.459401,1550775212.556615,,
133,73,1.0,Memory,1.0,,,,,,,00760960620fa.jpg,,,,,0.9670000000000001,1.0,Novel,,,,,,1550775227.033142,1550775229.014237,,
135,75,1.0,Memory,1.0,,,,,,,sunaeoghzrjarigmwua.jpg,,,,,0.9179999999999999,2.0,Novel,,,,,,1550775233.584407,1550775235.662983,,
138,78,1.0,Memory,1.0,,,,,,,sunadkazmlajmohnwfl.jpg,,,,,0.92,1.0,Novel,,,,,,1550775243.404079,1550775245.432976,,
139,79,1.0,Memory,1.0,,,,,,,00239940128fa.jpg,,,,,1.368,2.0,Novel,,,,,,1550775246.6893759,1550775248.751315,,
141,81,1.0,Memory,1.0,,,,,,,sunacfdkbsrughwqwtt.jpg,,,,,1.2819999999999998,1.0,Novel,,,,,,1550775253.2692661,1550775255.386625,,
144,84,1.0,Memory,1.0,,,,,,,00878960530fa.jpg,,,,,0.935,3.0,Novel,,,,,,1550775263.194036,1550775265.306343,,
145,85,1.0,Memory,1.0,,,,,,,sunabctlikybqabezjv.jpg,,,,,0.9740000000000001,1.0,Novel,,,,,,1550775266.562305,1550775268.642053,,
146,86,1.0,Memory,1.0,,,,,,,sunajawzbrlrwafowen.jpg,,,,,0.958,1.0,Novel,,,,,,1550775269.874474,1550775271.959476,,
147,87,1.0,Memory,1.0,,,,,,,sunaffstbkappprzxnv.jpg,,,,,0.903,1.0,Novel,,,,,,1550775273.247987,1550775275.259857,,
148,88,1.0,Memory,1.0,,,,,,,00662941121fa.jpg,,,,,1.359,3.0,Novel,,,,,,1550775276.5150821,1550775278.544986,,
149,89,1.0,Memory,1.0,,,,,,,sunaakmxzhuceuiryah.jpg,,,,,0.836,2.0,Novel,,,,,,1550775279.799132,1550775282.0956962,,
150,90,1.0,Memory,1.0,,,,,,,sunadrmfzmstgdjdcod.jpg,,,,,1.1740000000000002,2.0,Novel,,,,,,1550775283.3675802,1550775285.496767,,
152,92,1.0,Memory,1.0,,,,,,,sunaedtgwjvvziytspa.jpg,,,,,0.721,1.0,Novel,,,,,,1550775290.1360278,1550775292.149117,,
154,94,1.0,Memory,1.0,,,,,,,00554940519fa.jpg,,,,,0.767,1.0,Novel,,,,,,1550775296.717128,1550775298.784307,,
155,95,1.0,Memory,1.0,,,,,,,00864940307fa.jpg,,,,,1.1340000000000001,1.0,Novel,,,,,,1550775300.021252,1550775302.0353038,,
157,97,1.0,Memory,1.0,,,,,,,00694941121fa.jpg,,,,,1.153,3.0,Novel,,,,,,1550775306.592024,1550775308.5934641,,
159,99,1.0,Memory,1.0,,,,,,,00723941201fa.jpg,,,,,0.8320000000000001,1.0,Novel,,,,,,1550775313.2393632,1550775315.256623,,
123,63,1.0,Memory,1.0,,,,,,,sunakgbnzxmfohgehnu.jpg,,,,,0.981,1.0,Novel,,,,,,1550775193.975397,1550775196.0533,,
126,66,1.0,Memory,1.0,,,,,,,00115931230fa.jpg,,,,,0.792,1.0,Novel,,,,,,1550775203.841079,1550775205.8937972,,
128,68,1.0,Memory,1.0,,,,,,,00743941201fa.jpg,,,,,0.6920000000000001,2.0,Novel,,,,,,1550775210.459401,1550775212.556615,,
133,73,1.0,Memory,1.0,,,,,,,00760960620fa.jpg,,,,,0.9670000000000001,1.0,Novel,,,,,,1550775227.033142,1550775229.014237,,
135,75,1.0,Memory,1.0,,,,,,,sunaeoghzrjarigmwua.jpg,,,,,0.9179999999999999,2.0,Novel,,,,,,1550775233.584407,1550775235.662983,,
138,78,1.0,Memory,1.0,,,,,,,sunadkazmlajmohnwfl.jpg,,,,,0.92,1.0,Novel,,,,,,1550775243.404079,1550775245.432976,,
139,79,1.0,Memory,1.0,,,,,,,00239940128fa.jpg,,,,,1.368,2.0,Novel,,,,,,1550775246.6893759,1550775248.751315,,
141,81,1.0,Memory,1.0,,,,,,,sunacfdkbsrughwqwtt.jpg,,,,,1.2819999999999998,1.0,Novel,,,,,,1550775253.2692661,1550775255.386625,,
144,84,1.0,Memory,1.0,,,,,,,00878960530fa.jpg,,,,,0.935,3.0,Novel,,,,,,1550775263.194036,1550775265.306343,,
145,85,1.0,Memory,1.0,,,,,,,sunabctlikybqabezjv.jpg,,,,,0.9740000000000001,1.0,Novel,,,,,,1550775266.562305,1550775268.642053,,
146,86,1.0,Memory,1.0,,,,,,,sunajawzbrlrwafowen.jpg,,,,,0.958,1.0,Novel,,,,,,1550775269.874474,1550775271.959476,,
147,87,1.0,Memory,1.0,,,,,,,sunaffstbkappprzxnv.jpg,,,,,0.903,1.0,Novel,,,,,,1550775273.247987,1550775275.259857,,
148,88,1.0,Memory,1.0,,,,,,,00662941121fa.jpg,,,,,1.359,3.0,Novel,,,,,,1550775276.5150821,1550775278.544986,,
149,89,1.0,Memory,1.0,,,,,,,sunaakmxzhuceuiryah.jpg,,,,,0.836,2.0,Novel,,,,,,1550775279.799132,1550775282.0956962,,
150,90,1.0,Memory,1.0,,,,,,,sunadrmfzmstgdjdcod.jpg,,,,,1.1740000000000002,2.0,Novel,,,,,,1550775283.3675802,1550775285.496767,,
152,92,1.0,Memory,1.0,,,,,,,sunaedtgwjvvziytspa.jpg,,,,,0.721,1.0,Novel,,,,,,1550775290.1360278,1550775292.149117,,
154,94,1.0,Memory,1.0,,,,,,,00554940519fa.jpg,,,,,0.767,1.0,Novel,,,,,,1550775296.717128,1550775298.784307,,
155,95,1.0,Memory,1.0,,,,,,,00864940307fa.jpg,,,,,1.1340000000000001,1.0,Novel,,,,,,1550775300.021252,1550775302.0353038,,
157,97,1.0,Memory,1.0,,,,,,,00694941121fa.jpg,,,,,1.153,3.0,Novel,,,,,,1550775306.592024,1550775308.5934641,,
159,99,1.0,Memory,1.0,,,,,,,00723941201fa.jpg,,,,,0.8320000000000001,1.0,Novel,,,,,,1550775313.2393632,1550775315.256623,,
200,110,1.0,Memory,2.0,,,,,,,00136931230fb.jpg,,,,,1.2690000000000001,1.0,Novel,,,,,,1550775527.081298,1550775529.193025,,
201,111,1.0,Memory,2.0,,,,,,,00774941201fa.jpg,,,,,1.119,1.0,Novel,,,,,,1550775530.481493,1550775532.514547,,
203,113,1.0,Memory,2.0,,,,,,,00700941121fa.jpg,,,,,0.7340000000000001,1.0,Novel,,,,,,1550775537.284029,1550775539.299756,,
204,114,1.0,Memory,2.0,,,,,,,00271940422fa.jpg,,,,,1.526,1.0,Novel,,,,,,1550775540.584362,1550775542.615432,,
205,115,1.0,Memory,2.0,,,,,,,sunabxsbfwjccqxxzxq.jpg,,,,,1.27,3.0,Novel,,,,,,1550775543.903557,1550775546.000282,,
206,116,1.0,Memory,2.0,,,,,,,sunabmbnddafmywtjjj.jpg,,,,,0.7140000000000001,2.0,Novel,,,,,,1550775547.282477,1550775549.28579,,
207,117,1.0,Memory,2.0,,,,,,,01009960627fa.jpg,,,,,0.9890000000000001,1.0,Novel,,,,,,1550775550.566056,1550775552.575771,,
208,118,1.0,Memory,2.0,,,,,,,sunafvtpfczkzopbgue.jpg,,,,,1.27,2.0,Novel,,,,,,1550775553.872933,1550775556.002927,,
214,124,1.0,Memory,2.0,,,,,,,sunabjzyxcjnmztdonj.jpg,,,,,1.1909999999999998,1.0,Novel,,,,,,1550775574.4253411,1550775576.525855,,
215,125,1.0,Memory,2.0,,,,,,,sunbloeoiozwjjsiamp.jpg,,,,,0.851,2.0,Novel,,,,,,1550775577.925891,1550775580.042674,,
220,130,1.0,Memory,2.0,,,,,,,sunaprnrbmgkomdbchr.jpg,,,,,0.9229999999999999,1.0,Novel,,,,,,1550775594.685386,1550775596.766184,,
223,133,1.0,Memory,2.0,,,,,,,00929960627fa.jpg,,,,,1.051,1.0,Novel,,,,,,1550775604.8351212,1550775606.935786,,
224,134,1.0,Memory,2.0,,,,,,,00987960627fa.jpg,,,,,0.6859999999999999,1.0,Novel,,,,,,1550775608.201901,1550775610.222651,,
226,136,1.0,Memory,2.0,,,,,,,sunaanptmsknhirrzed.jpg,,,,,0.8190000000000001,1.0,Novel,,,,,,1550775614.975437,1550775616.993365,,
228,138,1.0,Memory,2.0,,,,,,,sunadsgmtznewzyasnk.jpg,,,,,0.9309999999999999,1.0,Novel,,,,,,1550775621.578958,1550775623.573584,,
229,139,1.0,Memory,2.0,,,,,,,00857940307fa.jpg,,,,,1.124,1.0,Novel,,,,,,1550775624.8619108,1550775626.910784,,
230,140,1.0,Memory,2.0,,,,,,,00264940128fb.jpg,,,,,1.568,4.0,Novel,,,,,,1550775628.197241,1550775630.343372,,
233,143,1.0,Memory,2.0,,,,,,,sunbxzweleltykebgan.jpg,,,,,1.386,3.0,Novel,,,,,,1550775638.533936,1550775640.5512369,,
236,146,1.0,Memory,2.0,,,,,,,sunaiwfobocrruqznsv.jpg,,,,,1.556,4.0,Novel,,,,,,1550775648.537549,1550775650.766144,,
237,147,1.0,Memory,2.0,,,,,,,00479940519fa.jpg,,,,,1.265,4.0,Novel,,,,,,1550775652.034356,1550775654.1519141,,
161,161,1.0,Memory,3.0,,,,,,,00598941031fa.jpg,,,,,1.034,3.0,Novel,,,,,,1550775896.302779,1550775898.3334439,,
164,164,1.0,Memory,3.0,,,,,,,00829940307fa.jpg,,,,,0.8340000000000001,1.0,Novel,,,,,,1550775906.32247,1550775908.3684368,,
165,165,1.0,Memory,3.0,,,,,,,sunaakjaacuzulqckgl.jpg,,,,,0.848,2.0,Novel,,,,,,1550775909.733886,1550775911.719902,,
166,166,1.0,Memory,3.0,,,,,,,sunabrwnslxalcohfre.jpg,,,,,1.135,1.0,Novel,,,,,,1550775912.9910269,1550775915.003986,,
167,167,1.0,Memory,3.0,,,,,,,sunbvbrvgbpanfrawft.jpg,,,,,0.8859999999999999,2.0,Novel,,,,,,1550775916.308944,1550775918.389729,,
168,168,1.0,Memory,3.0,,,,,,,00296940422fa.jpg,,,,,0.907,2.0,Novel,,,,,,1550775919.6759632,1550775921.807322,,
172,172,1.0,Memory,3.0,,,,,,,sunbddbivbptlrlauhy.jpg,,,,,1.207,3.0,Novel,,,,,,1550775933.164638,1550775935.3760462,,
173,173,1.0,Memory,3.0,,,,,,,sunahwgbqkqcrwprgvh.jpg,,,,,1.335,2.0,Novel,,,,,,1550775936.648488,1550775938.6781151,,
174,174,1.0,Memory,3.0,,,,,,,00999960627fa.jpg,,,,,0.775,1.0,Novel,,,,,,1550775939.96551,1550775942.1457381,,
175,175,1.0,Memory,3.0,,,,,,,00978960627fa.jpg,,,,,0.9990000000000001,3.0,Novel,,,,,,1550775943.412462,1550775945.478961,,
176,176,1.0,Memory,3.0,,,,,,,00647941031fa.jpg,,,,,0.882,2.0,Novel,,,,,,1550775946.768835,1550775948.801791,,
181,181,1.0,Memory,3.0,,,,,,,sunarceibpcyacbmfga.jpg,,,,,1.584,1.0,Novel,,,,,,1550775963.3520288,1550775965.386456,,
185,185,1.0,Memory,3.0,,,,,,,sunadflbrkckmepztql.jpg,,,,,1.12,2.0,Novel,,,,,,1550775976.678605,1550775978.657198,,
186,186,1.0,Memory,3.0,,,,,,,sunaampvucecsfbdafn.jpg,,,,,1.023,1.0,Novel,,,,,,1550775979.9455938,1550775982.008977,,
187,187,1.0,Memory,3.0,,,,,,,00133931230fa.jpg,,,,,1.064,3.0,Novel,,,,,,1550775983.258999,1550775985.308749,,
189,189,1.0,Memory,3.0,,,,,,,sunacxtcahkymosigud.jpg,,,,,0.72,1.0,Novel,,,,,,1550775989.849071,1550775991.9285538,,
191,191,1.0,Memory,3.0,,,,,,,00127931230fa.jpg,,,,,1.084,1.0,Novel,,,,,,1550775996.50049,1550775998.598656,,
193,193,1.0,Memory,3.0,,,,,,,00112931230fa.jpg,,,,,0.816,2.0,Novel,,,,,,1550776003.1870232,1550776005.318942,,
195,195,1.0,Memory,3.0,,,,,,,00939960627fa.jpg,,,,,0.599,1.0,Novel,,,,,,1550776009.955658,1550776011.953212,,
199,199,1.0,Memory,3.0,,,,,,,sunaanlwnpqndclffxt.jpg,,,,,0.7979999999999999,2.0,Novel,,,,,,1550776023.076149,1550776025.08916,,
320,260,1.0,Memory,5.0,,,,,,,00543940519fa.jpg,,,,,0.841,1.0,Novel,,,,,,1550776626.3908632,1550776628.50314,,
321,261,1.0,Memory,5.0,,,,,,,01002960627fb.jpg,,,,,0.8690000000000001,1.0,Novel,,,,,,1550776629.791878,1550776631.806241,,
323,263,1.0,Memory,5.0,,,,,,,sunacepzfrmtkiqonpy.jpg,,,,,0.867,1.0,Novel,,,,,,1550776636.345263,1550776638.3576539,,
327,267,1.0,Memory,5.0,,,,,,,sunaooaqzputrowwbsw.jpg,,,,,0.924,2.0,Novel,,,,,,1550776649.481273,1550776651.563621,,
328,268,1.0,Memory,5.0,,,,,,,00847940307fa.jpg,,,,,0.675,1.0,Novel,,,,,,1550776652.81573,1550776654.832203,,
331,271,1.0,Memory,5.0,,,,,,,00483940519fa.jpg,,,,,1.018,2.0,Novel,,,,,,1550776662.716408,1550776664.749223,,
332,272,1.0,Memory,5.0,,,,,,,sunahgtbwgsmtqeodwh.jpg,,,,,1.054,1.0,Novel,,,,,,1550776666.0190198,1550776668.020835,,
333,273,1.0,Memory,5.0,,,,,,,sunadpnqovzckyikrjo.jpg,,,,,0.975,1.0,Novel,,,,,,1550776669.287563,1550776671.341181,,
341,281,1.0,Memory,5.0,,,,,,,sunbwaafjdebjzttuvq.jpg,,,,,1.071,4.0,Novel,,,,,,1550776695.896818,1550776697.927264,,
343,283,1.0,Memory,5.0,,,,,,,sunaipyohrqlwngaqif.jpg,,,,,0.836,1.0,Novel,,,,,,1550776702.466368,1550776704.5147939,,
344,284,1.0,Memory,5.0,,,,,,,sunabyvpwkgsjtijdwj.jpg,,,,,1.3430000000000002,1.0,Novel,,,,,,1550776705.80059,1550776707.912698,,
346,286,1.0,Memory,5.0,,,,,,,sunabclssnoeuigtawp.jpg,,,,,1.15,2.0,Novel,,,,,,1550776712.519172,1550776714.5864038,,
347,287,1.0,Memory,5.0,,,,,,,sunalqmfgeadpqsyzpd.jpg,,,,,0.787,1.0,Novel,,,,,,1550776715.87005,1550776717.8673232,,
348,288,1.0,Memory,5.0,,,,,,,00894960620fa.jpg,,,,,0.8190000000000001,1.0,Novel,,,,,,1550776719.1383471,1550776721.149634,,
350,290,1.0,Memory,5.0,,,,,,,sunaivdjruhkrfywfed.jpg,,,,,1.7,3.0,Novel,,,,,,1550776725.739633,1550776727.757385,,
352,292,1.0,Memory,5.0,,,,,,,00911960530fa.jpg,,,,,1.119,1.0,Novel,,,,,,1550776732.375981,1550776734.40895,,
353,293,1.0,Memory,5.0,,,,,,,00839940307fa.jpg,,,,,0.7509999999999999,1.0,Novel,,,,,,1550776735.671175,1550776737.675502,,
354,294,1.0,Memory,5.0,,,,,,,00812941205fa.jpg,,,,,0.607,1.0,Novel,,,,,,1550776738.97758,1550776740.9899151,,
356,296,1.0,Memory,5.0,,,,,,,00235940128fb.jpg,,,,,0.937,1.0,Novel,,,,,,1550776745.579255,1550776747.5951,,
358,298,1.0,Memory,5.0,,,,,,,00676941121fa.jpg,,,,,1.4980000000000002,3.0,Novel,,,,,,1550776752.210511,1550776754.2472289,,
320,260,1.0,Memory,5.0,,,,,,,00543940519fa.jpg,,,,,0.841,1.0,Novel,,,,,,1550776626.3908632,1550776628.50314,,
321,261,1.0,Memory,5.0,,,,,,,01002960627fb.jpg,,,,,0.8690000000000001,1.0,Novel,,,,,,1550776629.791878,1550776631.806241,,
323,263,1.0,Memory,5.0,,,,,,,sunacepzfrmtkiqonpy.jpg,,,,,0.867,1.0,Novel,,,,,,1550776636.345263,1550776638.3576539,,
327,267,1.0,Memory,5.0,,,,,,,sunaooaqzputrowwbsw.jpg,,,,,0.924,2.0,Novel,,,,,,1550776649.481273,1550776651.563621,,
328,268,1.0,Memory,5.0,,,,,,,00847940307fa.jpg,,,,,0.675,1.0,Novel,,,,,,1550776652.81573,1550776654.832203,,
331,271,1.0,Memory,5.0,,,,,,,00483940519fa.jpg,,,,,1.018,2.0,Novel,,,,,,1550776662.716408,1550776664.749223,,
332,272,1.0,Memory,5.0,,,,,,,sunahgtbwgsmtqeodwh.jpg,,,,,1.054,1.0,Novel,,,,,,1550776666.0190198,1550776668.020835,,
333,273,1.0,Memory,5.0,,,,,,,sunadpnqovzckyikrjo.jpg,,,,,0.975,1.0,Novel,,,,,,1550776669.287563,1550776671.341181,,
341,281,1.0,Memory,5.0,,,,,,,sunbwaafjdebjzttuvq.jpg,,,,,1.071,4.0,Novel,,,,,,1550776695.896818,1550776697.927264,,
343,283,1.0,Memory,5.0,,,,,,,sunaipyohrqlwngaqif.jpg,,,,,0.836,1.0,Novel,,,,,,1550776702.466368,1550776704.5147939,,
344,284,1.0,Memory,5.0,,,,,,,sunabyvpwkgsjtijdwj.jpg,,,,,1.3430000000000002,1.0,Novel,,,,,,1550776705.80059,1550776707.912698,,
346,286,1.0,Memory,5.0,,,,,,,sunabclssnoeuigtawp.jpg,,,,,1.15,2.0,Novel,,,,,,1550776712.519172,1550776714.5864038,,
347,287,1.0,Memory,5.0,,,,,,,sunalqmfgeadpqsyzpd.jpg,,,,,0.787,1.0,Novel,,,,,,1550776715.87005,1550776717.8673232,,
348,288,1.0,Memory,5.0,,,,,,,00894960620fa.jpg,,,,,0.8190000000000001,1.0,Novel,,,,,,1550776719.1383471,1550776721.149634,,
350,290,1.0,Memory,5.0,,,,,,,sunaivdjruhkrfywfed.jpg,,,,,1.7,3.0,Novel,,,,,,1550776725.739633,1550776727.757385,,
352,292,1.0,Memory,5.0,,,,,,,00911960530fa.jpg,,,,,1.119,1.0,Novel,,,,,,1550776732.375981,1550776734.40895,,
353,293,1.0,Memory,5.0,,,,,,,00839940307fa.jpg,,,,,0.7509999999999999,1.0,Novel,,,,,,1550776735.671175,1550776737.675502,,
354,294,1.0,Memory,5.0,,,,,,,00812941205fa.jpg,,,,,0.607,1.0,Novel,,,,,,1550776738.97758,1550776740.9899151,,
356,296,1.0,Memory,5.0,,,,,,,00235940128fb.jpg,,,,,0.937,1.0,Novel,,,,,,1550776745.579255,1550776747.5951,,
358,298,1.0,Memory,5.0,,,,,,,00676941121fa.jpg,,,,,1.4980000000000002,3.0,Novel,,,,,,1550776752.210511,1550776754.2472289,,
164,164,25.0,Memory,3.0,,,,,,,sunaqyylsngywqzwfmx.jpg,Place,,Place,,1.791,3.0,Category,,,,,,1555439616.228278,1555439619.0917199,,
177,177,25.0,Memory,3.0,,,,,,,00938960627fa.jpg,Face,,Place,,1.492,2.0,None,,,,,,1555439669.8115,1555439672.4652948,,
320,260,25.0,Memory,5.0,,,,,,,00787941205fa.jpg,Face,,Place,,1.232,2.0,Side,,,,,,1555440382.945437,1555440385.140617,,
333,273,25.0,Memory,5.0,,,,,,,00210940128fb.jpg,Face,,Place,,1.092,3.0,None,,,,,,1555440431.078197,1555440433.322864,,
337,277,25.0,Memory,5.0,,,,,,,sunabanoxjtqxamkucc.jpg,Place,,Place,,1.061,2.0,Category,,,,,,1555440445.148332,1555440447.578009,,
351,291,25.0,Memory,5.0,,,,,,,sunagmwxxwymwojbvgi.jpg,Place,,Place,,1.1909999999999998,2.0,Full,,,,,,1555440497.215374,1555440499.7639608,,
122,62,25.0,Memory,1.0,,,,,,,00133931230fa.jpg,,,,,1.6,2.0,Novel,,,,,,1555438955.942393,1555438957.926427,,
124,64,25.0,Memory,1.0,,,,,,,sunadfktsqjthoglcsm.jpg,,,,,1.432,3.0,Novel,,,,,,1555438962.444551,1555438964.4282641,,
125,65,25.0,Memory,1.0,,,,,,,sunabtrnbvpppgczjim.jpg,,,,,0.0,,Novel,,,,,,1555438965.700372,1555438967.6807358,,
126,66,25.0,Memory,1.0,,,,,,,sunaafgqutfaishsxyu.jpg,,,,,1.3,2.0,Novel,,,,,,1555438968.945893,1555438970.9327,,
128,68,25.0,Memory,1.0,,,,,,,00061931230fb.jpg,,,,,1.469,2.0,Novel,,,,,,1555438975.466126,1555438977.449489,,
129,69,25.0,Memory,1.0,,,,,,,sunaalcrrdbjgdztbiz.jpg,,,,,1.4169999999999998,3.0,Novel,,,,,,1555438978.703891,1555438980.684984,,
131,71,25.0,Memory,1.0,,,,,,,00743941201fa.jpg,,,,,1.4,4.0,Novel,,,,,,1555438985.2026641,1555438987.1870039,,
133,73,25.0,Memory,1.0,,,,,,,sunaanlwnpqndclffxt.jpg,,,,,1.966,2.0,Novel,,,,,,1555438991.674822,1555438993.654181,,
135,75,25.0,Memory,1.0,,,,,,,00123931230fb.jpg,,,,,1.499,1.0,Novel,,,,,,1555438998.142916,1555439000.1248472,,
136,76,25.0,Memory,1.0,,,,,,,00996960627fa.jpg,,,,,1.501,2.0,Novel,,,,,,1555439001.373595,1555439003.3607,,
137,77,25.0,Memory,1.0,,,,,,,sunabwfvcqqidycwypa.jpg,,,,,1.649,3.0,Novel,,,,,,1555439004.624992,1555439006.615899,,
138,78,25.0,Memory,1.0,,,,,,,00077931230fb.jpg,,,,,1.248,2.0,Novel,,,,,,1555439007.87615,1555439009.862766,,
139,79,25.0,Memory,1.0,,,,,,,sunaaekxzjzrfgtkwjf.jpg,,,,,1.653,3.0,Novel,,,,,,1555439011.1111,1555439013.0993779,,
143,83,25.0,Memory,1.0,,,,,,,00540940519fa.jpg,,,,,1.72,1.0,Novel,,,,,,1555439024.185424,1555439026.16845,,
145,85,25.0,Memory,1.0,,,,,,,00305940422fa.jpg,,,,,2.476,1.0,Novel,,,,,,1555439031.337634,1555439034.44242,,
149,89,25.0,Memory,1.0,,,,,,,sunacdnquypmsshhsbk.jpg,,,,,2.477,1.0,Novel,,,,,,1555439048.326695,1555439051.027011,,
151,91,25.0,Memory,1.0,,,,,,,00308940422fb.jpg,,,,,1.0759999999999998,2.0,Novel,,,,,,1555439056.24605,1555439058.625984,,
152,92,25.0,Memory,1.0,,,,,,,sunaeoghzrjarigmwua.jpg,,,,,2.278,1.0,Novel,,,,,,1555439059.908318,1555439062.693558,,
154,94,25.0,Memory,1.0,,,,,,,00638941031fa.jpg,,,,,1.995,1.0,Novel,,,,,,1555439067.9160519,1555439070.729901,,
157,97,25.0,Memory,1.0,,,,,,,sunbpvgllfdejxcpjqp.jpg,,,,,2.56,3.0,Novel,,,,,,1555439079.486643,1555439082.3998961,,
160,160,25.0,Memory,3.0,,,,,,,00086931230fa.jpg,,,,,1.834,3.0,Novel,,,,,,1555439599.622987,1555439602.137033,,
162,162,25.0,Memory,3.0,,,,,,,00961960627fa.jpg,,,,,2.367,2.0,Novel,,,,,,1555439607.8251119,1555439610.789951,,
163,163,25.0,Memory,3.0,,,,,,,00723941201fa.jpg,,,,,2.092,3.0,Novel,,,,,,1555439612.0600688,1555439614.9390929,,
165,165,25.0,Memory,3.0,,,,,,,sunadrmfzmstgdjdcod.jpg,,,,,2.6430000000000002,2.0,Novel,,,,,,1555439620.379651,1555439623.209397,,
167,167,25.0,Memory,3.0,,,,,,,00725941201fa.jpg,,,,,3.0189999999999997,2.0,Novel,,,,,,1555439628.465009,1555439631.695375,,
169,169,25.0,Memory,3.0,,,,,,,00804960530fa.jpg,,,,,1.8419999999999999,3.0,Novel,,,,,,1555439637.36853,1555439640.231905,,
173,173,25.0,Memory,3.0,,,,,,,sunaefgzwiramypjvtd.jpg,,,,,1.577,2.0,Novel,,,,,,1555439653.9398232,1555439656.721296,,
176,176,25.0,Memory,3.0,,,,,,,00097931230fa.jpg,,,,,1.5930000000000002,2.0,Novel,,,,,,1555439665.778162,1555439668.530993,,
179,179,25.0,Memory,3.0,,,,,,,sunaenwuebvlpdmntju.jpg,,,,,1.993,2.0,Novel,,,,,,1555439677.68179,1555439680.63534,,
181,181,25.0,Memory,3.0,,,,,,,sunaedtgwjvvziytspa.jpg,,,,,2.7910000000000004,2.0,Novel,,,,,,1555439685.96789,1555439689.253561,,
186,186,25.0,Memory,3.0,,,,,,,00892960530fa.jpg,,,,,0.809,2.0,Novel,,,,,,1555439707.207884,1555439709.625409,,
187,187,25.0,Memory,3.0,,,,,,,00979960627fa.jpg,,,,,1.641,2.0,Novel,,,,,,1555439710.9091651,1555439713.705475,,
189,189,25.0,Memory,3.0,,,,,,,sunaajayojuslbbnneg.jpg,,,,,2.11,4.0,Novel,,,,,,1555439719.578292,1555439722.5788631,,
192,192,25.0,Memory,3.0,,,,,,,sunawotxrevnqvamsfp.jpg,,,,,2.226,2.0,Novel,,,,,,1555439731.433269,1555439734.379506,,
193,193,25.0,Memory,3.0,,,,,,,sunaafynehyrzpsoaml.jpg,,,,,1.61,2.0,Novel,,,,,,1555439735.668247,1555439738.404122,,
194,194,25.0,Memory,3.0,,,,,,,sunbdycacjfaujxitbw.jpg,,,,,1.21,1.0,Novel,,,,,,1555439739.685257,1555439742.4986029,,
195,195,25.0,Memory,3.0,,,,,,,00694941121fa.jpg,,,,,1.8940000000000001,1.0,Novel,,,,,,1555439743.7855241,1555439746.753651,,
196,196,25.0,Memory,3.0,,,,,,,00742941201fa.jpg,,,,,2.26,1.0,Novel,,,,,,1555439748.037121,1555439751.135095,,
198,198,25.0,Memory,3.0,,,,,,,sunagwswhkvnsmuszlz.jpg,,,,,1.841,2.0,Novel,,,,,,1555439756.640477,1555439759.520065,,
199,199,25.0,Memory,3.0,,,,,,,sunalntxqqadigcletd.jpg,,,,,2.077,2.0,Novel,,,,,,1555439760.792384,1555439763.780758,,
325,265,25.0,Memory,5.0,,,,,,,sunawksfbacycuhbrsc.jpg,,,,,2.059,1.0,Novel,,,,,,1555440400.417386,1555440402.953953,,
326,266,25.0,Memory,5.0,,,,,,,sunaafvitpexrpvumsa.jpg,,,,,2.477,2.0,Novel,,,,,,1555440404.2517939,1555440406.752,,
327,267,25.0,Memory,5.0,,,,,,,00836940307fa.jpg,,,,,1.3419999999999999,2.0,Novel,,,,,,1555440408.019908,1555440410.5831301,,
329,269,25.0,Memory,5.0,,,,,,,sunacwggadqsfpovdjv.jpg,,,,,2.475,2.0,Novel,,,,,,1555440415.62234,1555440418.493144,,
331,271,25.0,Memory,5.0,,,,,,,00082931230fa.jpg,,,,,1.392,1.0,Novel,,,,,,1555440423.791297,1555440425.8979368,,
332,272,25.0,Memory,5.0,,,,,,,sunbmaiocftdtvnzgap.jpg,,,,,2.392,1.0,Novel,,,,,,1555440427.1599789,1555440429.807106,,
334,274,25.0,Memory,5.0,,,,,,,sunadfndyrtqqiasoig.jpg,,,,,2.303,2.0,Novel,,,,,,1555440434.595531,1555440437.0153859,,
336,276,25.0,Memory,5.0,,,,,,,00589940928fa.jpg,,,,,0.96,3.0,Novel,,,,,,1555440441.61372,1555440443.878485,,
338,278,25.0,Memory,5.0,,,,,,,00960960627fa.jpg,,,,,1.9509999999999998,3.0,Novel,,,,,,1555440448.849926,1555440451.364506,,
339,279,25.0,Memory,5.0,,,,,,,sunaaelotvjgibjtjhs.jpg,,,,,1.3090000000000002,2.0,Novel,,,,,,1555440452.6505618,1555440455.2211962,,
340,280,25.0,Memory,5.0,,,,,,,00971960627fa.jpg,,,,,1.5590000000000002,3.0,Novel,,,,,,1555440456.5027,1555440458.981363,,
342,282,25.0,Memory,5.0,,,,,,,sunadqmjrhfjyuzyvdd.jpg,,,,,1.482,4.0,Novel,,,,,,1555440463.887227,1555440466.353109,,
343,283,25.0,Memory,5.0,,,,,,,00681941121fa.jpg,,,,,1.742,3.0,Novel,,,,,,1555440467.62203,1555440470.272548,,
344,284,25.0,Memory,5.0,,,,,,,sunacepzfrmtkiqonpy.jpg,,,,,0.6920000000000001,2.0,Novel,,,,,,1555440471.539488,1555440473.886918,,
345,285,25.0,Memory,5.0,,,,,,,00648941031fa.jpg,,,,,0.0,,Novel,,,,,,1555440475.157666,1555440477.825751,,
346,286,25.0,Memory,5.0,,,,,,,00543940519fa.jpg,,,,,0.9079999999999999,1.0,Novel,,,,,,1555440479.142683,1555440481.507358,,
347,287,25.0,Memory,5.0,,,,,,,sunainqelldeebvxtcz.jpg,,,,,1.494,1.0,Novel,,,,,,1555440482.777327,1555440485.0908198,,
348,288,25.0,Memory,5.0,,,,,,,00062931230fb.jpg,,,,,1.3259999999999998,1.0,Novel,,,,,,1555440486.3785439,1555440488.931262,,
353,293,25.0,Memory,5.0,,,,,,,00988960627fa.jpg,,,,,1.9269999999999998,1.0,Novel,,,,,,1555440504.567149,1555440507.1665142,,
354,294,25.0,Memory,5.0,,,,,,,sunbbegcweqnetpdlrh.jpg,,,,,1.393,1.0,Novel,,,,,,1555440508.4687731,1555440510.817719,,
365,215,12.0,Memory,4.0,,,,,,,sunacuatpqpqhyjhjqk.jpg,Place,,Place,,1.004,2.0,Full,,,,,,1553715598.887044,1553715600.872086,,
381,231,12.0,Memory,4.0,,,,,,,00571940928fa.jpg,Face,,Place,,0.053,1.0,Side,,,,,,1553715650.7716439,1553715652.754714,,
388,238,12.0,Memory,4.0,,,,,,,sunaapllqyqlykszopd.jpg,Place,,Place,,1.254,2.0,Category,,,,,,1553715673.428165,1553715675.412007,,
389,239,12.0,Memory,4.0,,,,,,,00140931230fb.jpg,Face,,Place,,0.0,,None,,,,,,1553715676.6790712,1553715678.663143,,
360,210,12.0,Memory,4.0,,,,,,,00306940422fa.jpg,,,,,1.37,1.0,Novel,,,,,,1553715582.598744,1553715584.651097,,
364,214,12.0,Memory,4.0,,,,,,,sunadfktsqjthoglcsm.jpg,,,,,1.436,3.0,Novel,,,,,,1553715595.6367712,1553715597.620717,,
368,218,12.0,Memory,4.0,,,,,,,00145931230fb.jpg,,,,,1.77,1.0,Novel,,,,,,1553715608.623395,1553715610.608644,,
369,219,12.0,Memory,4.0,,,,,,,sunaaheqzstzxuadglu.jpg,,,,,1.403,2.0,Novel,,,,,,1553715611.8583949,1553715613.8416288,,
370,220,12.0,Memory,4.0,,,,,,,suncnkvbhypnivcohyx.jpg,,,,,1.3530000000000002,1.0,Novel,,,,,,1553715615.0928462,1553715617.077043,,
371,221,12.0,Memory,4.0,,,,,,,sunaatjesvdupctftmn.jpg,,,,,1.271,1.0,Novel,,,,,,1553715618.327762,1553715620.3111641,,
373,223,12.0,Memory,4.0,,,,,,,00638941031fa.jpg,,,,,0.903,2.0,Novel,,,,,,1553715624.796158,1553715626.779375,,
375,225,12.0,Memory,4.0,,,,,,,00092931230fa.jpg,,,,,0.986,1.0,Novel,,,,,,1553715631.281567,1553715633.265541,,
377,227,12.0,Memory,4.0,,,,,,,sunaajqmsaavkmgbsth.jpg,,,,,1.403,4.0,Novel,,,,,,1553715637.7670472,1553715639.751869,,
383,233,12.0,Memory,4.0,,,,,,,sunabjzyxcjnmztdonj.jpg,,,,,1.254,4.0,Novel,,,,,,1553715657.257131,1553715659.240925,,
384,234,12.0,Memory,4.0,,,,,,,00264940128fb.jpg,,,,,1.22,3.0,Novel,,,,,,1553715660.491184,1553715662.474504,,
385,235,12.0,Memory,4.0,,,,,,,sunabueyoajufbkraki.jpg,,,,,1.304,2.0,Novel,,,,,,1553715663.725262,1553715665.708669,,
387,237,12.0,Memory,4.0,,,,,,,00786941205fa.jpg,,,,,2.005,2.0,Novel,,,,,,1553715670.193917,1553715672.17874,,
390,240,12.0,Memory,4.0,,,,,,,00101931230fb.jpg,,,,,1.82,3.0,Novel,,,,,,1553715679.914193,1553715681.898234,,
391,241,12.0,Memory,4.0,,,,,,,sunagmhildamktmqjss.jpg,,,,,1.1540000000000001,3.0,Novel,,,,,,1553715683.147547,1553715685.132477,,
392,242,12.0,Memory,4.0,,,,,,,sunaalhlvzmjmitybdn.jpg,,,,,0.887,1.0,Novel,,,,,,1553715686.382777,1553715688.366713,,
394,244,12.0,Memory,4.0,,,,,,,01000960627fa.jpg,,,,,1.32,2.0,Novel,,,,,,1553715692.851136,1553715694.83605,,
397,247,12.0,Memory,4.0,,,,,,,sunbvzmgrdvaakxusbu.jpg,,,,,1.719,2.0,Novel,,,,,,1553715702.554707,1553715704.538572,,
398,248,12.0,Memory,4.0,,,,,,,00124931230fa.jpg,,,,,1.32,1.0,Novel,,,,,,1553715705.789511,1553715707.772764,,
399,249,12.0,Memory,4.0,,,,,,,01010960627fa.jpg,,,,,1.188,4.0,Novel,,,,,,1553715709.022765,1553715711.0739481,,
89,19,4.0,Memory,0.0,,,,,,,sunaavchcbptaerhcfy.jpg,Place,,Face,,1.05,3.0,None,,,,,,1550787677.582254,1550787679.5651321,,
95,25,4.0,Memory,0.0,,,,,,,sunaeouogqolxvggaoq.jpg,Place,,Face,,1.347,2.0,Side,,,,,,1550787697.118331,1550787699.1005561,,
96,26,4.0,Memory,0.0,,,,,,,00943960627fa.jpg,Face,,Face,,1.349,2.0,Category,,,,,,1550787700.357215,1550787702.335364,,
99,29,4.0,Memory,0.0,,,,,,,00158931230fb.jpg,Face,,Face,,0.982,3.0,Category,,,,,,1550787710.0545108,1550787712.038947,,
107,37,4.0,Memory,0.0,,,,,,,sunarpsxqkduedrrzyi.jpg,Place,,Face,,1.9669999999999999,1.0,None,,,,,,1550787736.046941,1550787738.0347211,,
111,41,4.0,Memory,0.0,,,,,,,00745941205fa.jpg,Face,,Face,,1.232,1.0,Full,,,,,,1550787749.0505278,1550787751.034914,,
114,44,4.0,Memory,0.0,,,,,,,00090931230fa.jpg,Face,,Face,,1.6030000000000002,2.0,Full,,,,,,1550787758.803825,1550787760.788707,,
116,46,4.0,Memory,0.0,,,,,,,sunaahedjlmtqekgyvj.jpg,Place,,Face,,1.055,2.0,Side,,,,,,1550787765.310563,1550787767.292935,,
89,19,4.0,Memory,0.0,,,,,,,sunaavchcbptaerhcfy.jpg,Place,,Face,,1.05,3.0,None,,,,,,1550787677.582254,1550787679.5651321,,
95,25,4.0,Memory,0.0,,,,,,,sunaeouogqolxvggaoq.jpg,Place,,Face,,1.347,2.0,Side,,,,,,1550787697.118331,1550787699.1005561,,
96,26,4.0,Memory,0.0,,,,,,,00943960627fa.jpg,Face,,Face,,1.349,2.0,Category,,,,,,1550787700.357215,1550787702.335364,,
99,29,4.0,Memory,0.0,,,,,,,00158931230fb.jpg,Face,,Face,,0.982,3.0,Category,,,,,,1550787710.0545108,1550787712.038947,,
107,37,4.0,Memory,0.0,,,,,,,sunarpsxqkduedrrzyi.jpg,Place,,Face,,1.9669999999999999,1.0,None,,,,,,1550787736.046941,1550787738.0347211,,
111,41,4.0,Memory,0.0,,,,,,,00745941205fa.jpg,Face,,Face,,1.232,1.0,Full,,,,,,1550787749.0505278,1550787751.034914,,
114,44,4.0,Memory,0.0,,,,,,,00090931230fa.jpg,Face,,Face,,1.6030000000000002,2.0,Full,,,,,,1550787758.803825,1550787760.788707,,
116,46,4.0,Memory,0.0,,,,,,,sunaahedjlmtqekgyvj.jpg,Place,,Face,,1.055,2.0,Side,,,,,,1550787765.310563,1550787767.292935,,
89,19,4.0,Memory,0.0,,,,,,,sunaavchcbptaerhcfy.jpg,Place,,Face,,1.05,3.0,None,,,,,,1550787677.582254,1550787679.5651321,,
95,25,4.0,Memory,0.0,,,,,,,sunaeouogqolxvggaoq.jpg,Place,,Face,,1.347,2.0,Side,,,,,,1550787697.118331,1550787699.1005561,,
96,26,4.0,Memory,0.0,,,,,,,00943960627fa.jpg,Face,,Face,,1.349,2.0,Category,,,,,,1550787700.357215,1550787702.335364,,
99,29,4.0,Memory,0.0,,,,,,,00158931230fb.jpg,Face,,Face,,0.982,3.0,Category,,,,,,1550787710.0545108,1550787712.038947,,
107,37,4.0,Memory,0.0,,,,,,,sunarpsxqkduedrrzyi.jpg,Place,,Face,,1.9669999999999999,1.0,None,,,,,,1550787736.046941,1550787738.0347211,,
111,41,4.0,Memory,0.0,,,,,,,00745941205fa.jpg,Face,,Face,,1.232,1.0,Full,,,,,,1550787749.0505278,1550787751.034914,,
114,44,4.0,Memory,0.0,,,,,,,00090931230fa.jpg,Face,,Face,,1.6030000000000002,2.0,Full,,,,,,1550787758.803825,1550787760.788707,,
116,46,4.0,Memory,0.0,,,,,,,sunaahedjlmtqekgyvj.jpg,Place,,Face,,1.055,2.0,Side,,,,,,1550787765.310563,1550787767.292935,,
89,19,4.0,Memory,0.0,,,,,,,sunaavchcbptaerhcfy.jpg,Place,,Face,,1.05,3.0,None,,,,,,1550787677.582254,1550787679.5651321,,
95,25,4.0,Memory,0.0,,,,,,,sunaeouogqolxvggaoq.jpg,Place,,Face,,1.347,2.0,Side,,,,,,1550787697.118331,1550787699.1005561,,
96,26,4.0,Memory,0.0,,,,,,,00943960627fa.jpg,Face,,Face,,1.349,2.0,Category,,,,,,1550787700.357215,1550787702.335364,,
99,29,4.0,Memory,0.0,,,,,,,00158931230fb.jpg,Face,,Face,,0.982,3.0,Category,,,,,,1550787710.0545108,1550787712.038947,,
107,37,4.0,Memory,0.0,,,,,,,sunarpsxqkduedrrzyi.jpg,Place,,Face,,1.9669999999999999,1.0,None,,,,,,1550787736.046941,1550787738.0347211,,
111,41,4.0,Memory,0.0,,,,,,,00745941205fa.jpg,Face,,Face,,1.232,1.0,Full,,,,,,1550787749.0505278,1550787751.034914,,
114,44,4.0,Memory,0.0,,,,,,,00090931230fa.jpg,Face,,Face,,1.6030000000000002,2.0,Full,,,,,,1550787758.803825,1550787760.788707,,
116,46,4.0,Memory,0.0,,,,,,,sunaahedjlmtqekgyvj.jpg,Place,,Face,,1.055,2.0,Side,,,,,,1550787765.310563,1550787767.292935,,
122,62,4.0,Memory,1.0,,,,,,,sunaazzyhbvqjpmazjq.jpg,Place,,Face,,1.516,1.0,Side,,,,,,1550788034.376617,1550788036.344624,,
138,78,4.0,Memory,1.0,,,,,,,00631940928fa.jpg,Face,,Face,,1.9040000000000001,1.0,Category,,,,,,1550788086.015079,1550788088.04442,,
145,85,4.0,Memory,1.0,,,,,,,sunaiwduelojtwaqeyh.jpg,Place,,Face,,0.0,,None,,,,,,1550788108.617524,1550788110.587781,,
146,86,4.0,Memory,1.0,,,,,,,00208940128fa.jpg,Face,,Face,,1.608,1.0,Full,,,,,,1550788111.835581,1550788113.822971,,
149,89,4.0,Memory,1.0,,,,,,,sunadbdqzigzwipuipr.jpg,Place,,Face,,1.535,1.0,None,,,,,,1550788121.509424,1550788123.491007,,
152,92,4.0,Memory,1.0,,,,,,,sunaapfaivxqoynnwwp.jpg,Place,,Face,,1.7590000000000001,2.0,None,,,,,,1550788131.329168,1550788133.342266,,
153,93,4.0,Memory,1.0,,,,,,,00785941205fa.jpg,Face,,Face,,1.058,1.0,Full,,,,,,1550788134.613994,1550788136.596441,,
154,94,4.0,Memory,1.0,,,,,,,sunaglqunwuycxydmyu.jpg,Place,,Face,,1.258,1.0,Side,,,,,,1550788137.948268,1550788139.994644,,
155,95,4.0,Memory,1.0,,,,,,,00138931230fa.jpg,Face,,Face,,0.9390000000000001,1.0,Category,,,,,,1550788141.248826,1550788143.21524,,
157,97,4.0,Memory,1.0,,,,,,,00854940307fa.jpg,Face,,Face,,0.905,1.0,Category,,,,,,1550788147.8001,1550788149.806553,,
122,62,4.0,Memory,1.0,,,,,,,sunaazzyhbvqjpmazjq.jpg,Place,,Face,,1.516,1.0,Side,,,,,,1550788034.376617,1550788036.344624,,
138,78,4.0,Memory,1.0,,,,,,,00631940928fa.jpg,Face,,Face,,1.9040000000000001,1.0,Category,,,,,,1550788086.015079,1550788088.04442,,
145,85,4.0,Memory,1.0,,,,,,,sunaiwduelojtwaqeyh.jpg,Place,,Face,,0.0,,None,,,,,,1550788108.617524,1550788110.587781,,
146,86,4.0,Memory,1.0,,,,,,,00208940128fa.jpg,Face,,Face,,1.608,1.0,Full,,,,,,1550788111.835581,1550788113.822971,,
149,89,4.0,Memory,1.0,,,,,,,sunadbdqzigzwipuipr.jpg,Place,,Face,,1.535,1.0,None,,,,,,1550788121.509424,1550788123.491007,,
152,92,4.0,Memory,1.0,,,,,,,sunaapfaivxqoynnwwp.jpg,Place,,Face,,1.7590000000000001,2.0,None,,,,,,1550788131.329168,1550788133.342266,,
153,93,4.0,Memory,1.0,,,,,,,00785941205fa.jpg,Face,,Face,,1.058,1.0,Full,,,,,,1550788134.613994,1550788136.596441,,
154,94,4.0,Memory,1.0,,,,,,,sunaglqunwuycxydmyu.jpg,Place,,Face,,1.258,1.0,Side,,,,,,1550788137.948268,1550788139.994644,,
155,95,4.0,Memory,1.0,,,,,,,00138931230fa.jpg,Face,,Face,,0.9390000000000001,1.0,Category,,,,,,1550788141.248826,1550788143.21524,,
157,97,4.0,Memory,1.0,,,,,,,00854940307fa.jpg,Face,,Face,,0.905,1.0,Category,,,,,,1550788147.8001,1550788149.806553,,
122,62,4.0,Memory,1.0,,,,,,,sunaazzyhbvqjpmazjq.jpg,Place,,Face,,1.516,1.0,Side,,,,,,1550788034.376617,1550788036.344624,,
138,78,4.0,Memory,1.0,,,,,,,00631940928fa.jpg,Face,,Face,,1.9040000000000001,1.0,Category,,,,,,1550788086.015079,1550788088.04442,,
145,85,4.0,Memory,1.0,,,,,,,sunaiwduelojtwaqeyh.jpg,Place,,Face,,0.0,,None,,,,,,1550788108.617524,1550788110.587781,,
146,86,4.0,Memory,1.0,,,,,,,00208940128fa.jpg,Face,,Face,,1.608,1.0,Full,,,,,,1550788111.835581,1550788113.822971,,
149,89,4.0,Memory,1.0,,,,,,,sunadbdqzigzwipuipr.jpg,Place,,Face,,1.535,1.0,None,,,,,,1550788121.509424,1550788123.491007,,
152,92,4.0,Memory,1.0,,,,,,,sunaapfaivxqoynnwwp.jpg,Place,,Face,,1.7590000000000001,2.0,None,,,,,,1550788131.329168,1550788133.342266,,
153,93,4.0,Memory,1.0,,,,,,,00785941205fa.jpg,Face,,Face,,1.058,1.0,Full,,,,,,1550788134.613994,1550788136.596441,,
154,94,4.0,Memory,1.0,,,,,,,sunaglqunwuycxydmyu.jpg,Place,,Face,,1.258,1.0,Side,,,,,,1550788137.948268,1550788139.994644,,
155,95,4.0,Memory,1.0,,,,,,,00138931230fa.jpg,Face,,Face,,0.9390000000000001,1.0,Category,,,,,,1550788141.248826,1550788143.21524,,
157,97,4.0,Memory,1.0,,,,,,,00854940307fa.jpg,Face,,Face,,0.905,1.0,Category,,,,,,1550788147.8001,1550788149.806553,,
122,62,4.0,Memory,1.0,,,,,,,sunaazzyhbvqjpmazjq.jpg,Place,,Face,,1.516,1.0,Side,,,,,,1550788034.376617,1550788036.344624,,
138,78,4.0,Memory,1.0,,,,,,,00631940928fa.jpg,Face,,Face,,1.9040000000000001,1.0,Category,,,,,,1550788086.015079,1550788088.04442,,
145,85,4.0,Memory,1.0,,,,,,,sunaiwduelojtwaqeyh.jpg,Place,,Face,,0.0,,None,,,,,,1550788108.617524,1550788110.587781,,
146,86,4.0,Memory,1.0,,,,,,,00208940128fa.jpg,Face,,Face,,1.608,1.0,Full,,,,,,1550788111.835581,1550788113.822971,,
149,89,4.0,Memory,1.0,,,,,,,sunadbdqzigzwipuipr.jpg,Place,,Face,,1.535,1.0,None,,,,,,1550788121.509424,1550788123.491007,,
152,92,4.0,Memory,1.0,,,,,,,sunaapfaivxqoynnwwp.jpg,Place,,Face,,1.7590000000000001,2.0,None,,,,,,1550788131.329168,1550788133.342266,,
153,93,4.0,Memory,1.0,,,,,,,00785941205fa.jpg,Face,,Face,,1.058,1.0,Full,,,,,,1550788134.613994,1550788136.596441,,
154,94,4.0,Memory,1.0,,,,,,,sunaglqunwuycxydmyu.jpg,Place,,Face,,1.258,1.0,Side,,,,,,1550788137.948268,1550788139.994644,,
155,95,4.0,Memory,1.0,,,,,,,00138931230fa.jpg,Face,,Face,,0.9390000000000001,1.0,Category,,,,,,1550788141.248826,1550788143.21524,,
157,97,4.0,Memory,1.0,,,,,,,00854940307fa.jpg,Face,,Face,,0.905,1.0,Category,,,,,,1550788147.8001,1550788149.806553,,
201,111,4.0,Memory,2.0,,,,,,,sunaauglwmctnkxyird.jpg,Place,,Place,,1.1079999999999999,4.0,Full,,,,,,1550788339.462755,1550788341.462156,,
227,137,4.0,Memory,2.0,,,,,,,00149931230fa.jpg,Face,,Place,,1.483,3.0,Side,,,,,,1550788425.007301,1550788427.054716,,
201,111,4.0,Memory,2.0,,,,,,,sunaauglwmctnkxyird.jpg,Place,,Place,,1.1079999999999999,4.0,Full,,,,,,1550788339.462755,1550788341.462156,,
227,137,4.0,Memory,2.0,,,,,,,00149931230fa.jpg,Face,,Place,,1.483,3.0,Side,,,,,,1550788425.007301,1550788427.054716,,
164,164,4.0,Memory,3.0,,,,,,,sunaafjszryxyavjzln.jpg,Place,,Place,,1.453,4.0,Full,,,,,,1550788682.242463,1550788684.141685,,
175,175,4.0,Memory,3.0,,,,,,,00080931230fb.jpg,Face,,Place,,1.399,2.0,Side,,,,,,1550788716.420438,1550788718.319299,,
181,181,4.0,Memory,3.0,,,,,,,00265940128fb.jpg,Face,,Place,,1.505,2.0,Side,,,,,,1550788735.088023,1550788736.993517,,
185,185,4.0,Memory,3.0,,,,,,,00609940928fa.jpg,Face,,Place,,1.382,1.0,None,,,,,,1550788747.5430741,1550788749.44382,,
195,195,4.0,Memory,3.0,,,,,,,sunabkmdplkdbvxriff.jpg,Place,,Place,,1.391,4.0,Full,,,,,,1550788778.5893788,1550788780.584728,,
196,196,4.0,Memory,3.0,,,,,,,sunacycdoztxoluxjyk.jpg,Place,,Place,,1.732,1.0,Category,,,,,,1550788781.787188,1550788783.6918788,,
164,164,4.0,Memory,3.0,,,,,,,sunaafjszryxyavjzln.jpg,Place,,Place,,1.453,4.0,Full,,,,,,1550788682.242463,1550788684.141685,,
175,175,4.0,Memory,3.0,,,,,,,00080931230fb.jpg,Face,,Place,,1.399,2.0,Side,,,,,,1550788716.420438,1550788718.319299,,
181,181,4.0,Memory,3.0,,,,,,,00265940128fb.jpg,Face,,Place,,1.505,2.0,Side,,,,,,1550788735.088023,1550788736.993517,,
185,185,4.0,Memory,3.0,,,,,,,00609940928fa.jpg,Face,,Place,,1.382,1.0,None,,,,,,1550788747.5430741,1550788749.44382,,
195,195,4.0,Memory,3.0,,,,,,,sunabkmdplkdbvxriff.jpg,Place,,Place,,1.391,4.0,Full,,,,,,1550788778.5893788,1550788780.584728,,
196,196,4.0,Memory,3.0,,,,,,,sunacycdoztxoluxjyk.jpg,Place,,Place,,1.732,1.0,Category,,,,,,1550788781.787188,1550788783.6918788,,
164,164,4.0,Memory,3.0,,,,,,,sunaafjszryxyavjzln.jpg,Place,,Place,,1.453,4.0,Full,,,,,,1550788682.242463,1550788684.141685,,
175,175,4.0,Memory,3.0,,,,,,,00080931230fb.jpg,Face,,Place,,1.399,2.0,Side,,,,,,1550788716.420438,1550788718.319299,,
181,181,4.0,Memory,3.0,,,,,,,00265940128fb.jpg,Face,,Place,,1.505,2.0,Side,,,,,,1550788735.088023,1550788736.993517,,
185,185,4.0,Memory,3.0,,,,,,,00609940928fa.jpg,Face,,Place,,1.382,1.0,None,,,,,,1550788747.5430741,1550788749.44382,,
195,195,4.0,Memory,3.0,,,,,,,sunabkmdplkdbvxriff.jpg,Place,,Place,,1.391,4.0,Full,,,,,,1550788778.5893788,1550788780.584728,,
196,196,4.0,Memory,3.0,,,,,,,sunacycdoztxoluxjyk.jpg,Place,,Place,,1.732,1.0,Category,,,,,,1550788781.787188,1550788783.6918788,,
164,164,4.0,Memory,3.0,,,,,,,sunaafjszryxyavjzln.jpg,Place,,Place,,1.453,4.0,Full,,,,,,1550788682.242463,1550788684.141685,,
175,175,4.0,Memory,3.0,,,,,,,00080931230fb.jpg,Face,,Place,,1.399,2.0,Side,,,,,,1550788716.420438,1550788718.319299,,
181,181,4.0,Memory,3.0,,,,,,,00265940128fb.jpg,Face,,Place,,1.505,2.0,Side,,,,,,1550788735.088023,1550788736.993517,,
185,185,4.0,Memory,3.0,,,,,,,00609940928fa.jpg,Face,,Place,,1.382,1.0,None,,,,,,1550788747.5430741,1550788749.44382,,
195,195,4.0,Memory,3.0,,,,,,,sunabkmdplkdbvxriff.jpg,Place,,Place,,1.391,4.0,Full,,,,,,1550788778.5893788,1550788780.584728,,
196,196,4.0,Memory,3.0,,,,,,,sunacycdoztxoluxjyk.jpg,Place,,Place,,1.732,1.0,Category,,,,,,1550788781.787188,1550788783.6918788,,
164,164,4.0,Memory,3.0,,,,,,,sunaafjszryxyavjzln.jpg,Place,,Place,,1.453,4.0,Full,,,,,,1550788682.242463,1550788684.141685,,
175,175,4.0,Memory,3.0,,,,,,,00080931230fb.jpg,Face,,Place,,1.399,2.0,Side,,,,,,1550788716.420438,1550788718.319299,,
181,181,4.0,Memory,3.0,,,,,,,00265940128fb.jpg,Face,,Place,,1.505,2.0,Side,,,,,,1550788735.088023,1550788736.993517,,
185,185,4.0,Memory,3.0,,,,,,,00609940928fa.jpg,Face,,Place,,1.382,1.0,None,,,,,,1550788747.5430741,1550788749.44382,,
195,195,4.0,Memory,3.0,,,,,,,sunabkmdplkdbvxriff.jpg,Place,,Place,,1.391,4.0,Full,,,,,,1550788778.5893788,1550788780.584728,,
196,196,4.0,Memory,3.0,,,,,,,sunacycdoztxoluxjyk.jpg,Place,,Place,,1.732,1.0,Category,,,,,,1550788781.787188,1550788783.6918788,,
164,164,4.0,Memory,3.0,,,,,,,sunaafjszryxyavjzln.jpg,Place,,Place,,1.453,4.0,Full,,,,,,1550788682.242463,1550788684.141685,,
175,175,4.0,Memory,3.0,,,,,,,00080931230fb.jpg,Face,,Place,,1.399,2.0,Side,,,,,,1550788716.420438,1550788718.319299,,
181,181,4.0,Memory,3.0,,,,,,,00265940128fb.jpg,Face,,Place,,1.505,2.0,Side,,,,,,1550788735.088023,1550788736.993517,,
185,185,4.0,Memory,3.0,,,,,,,00609940928fa.jpg,Face,,Place,,1.382,1.0,None,,,,,,1550788747.5430741,1550788749.44382,,
195,195,4.0,Memory,3.0,,,,,,,sunabkmdplkdbvxriff.jpg,Place,,Place,,1.391,4.0,Full,,,,,,1550788778.5893788,1550788780.584728,,
196,196,4.0,Memory,3.0,,,,,,,sunacycdoztxoluxjyk.jpg,Place,,Place,,1.732,1.0,Category,,,,,,1550788781.787188,1550788783.6918788,,
360,210,4.0,Memory,4.0,,,,,,,00987960627fa.jpg,Face,,Face,,1.933,3.0,Category,,,,,,1550789061.548346,1550789063.579009,,
370,220,4.0,Memory,4.0,,,,,,,sunafkmnlytenlsywia.jpg,Place,,Face,,1.153,4.0,Side,,,,,,1550789093.9424279,1550789095.90677,,
378,228,4.0,Memory,4.0,,,,,,,00576941031fa.jpg,Face,,Face,,1.47,3.0,Full,,,,,,1550789119.679095,1550789121.650214,,
381,231,4.0,Memory,4.0,,,,,,,sunacvjlsylseoghjup.jpg,Place,,Face,,0.0,,Side,,,,,,1550789129.348991,1550789131.318074,,
391,241,4.0,Memory,4.0,,,,,,,00768941205fa.jpg,Face,,Face,,1.052,3.0,Full,,,,,,1550789161.593756,1550789163.563618,,
399,249,4.0,Memory,4.0,,,,,,,sunbloeoiozwjjsiamp.jpg,Place,,Face,,1.115,3.0,None,,,,,,1550789187.3680189,1550789189.338413,,
360,210,4.0,Memory,4.0,,,,,,,00987960627fa.jpg,Face,,Face,,1.933,3.0,Category,,,,,,1550789061.548346,1550789063.579009,,
370,220,4.0,Memory,4.0,,,,,,,sunafkmnlytenlsywia.jpg,Place,,Face,,1.153,4.0,Side,,,,,,1550789093.9424279,1550789095.90677,,
378,228,4.0,Memory,4.0,,,,,,,00576941031fa.jpg,Face,,Face,,1.47,3.0,Full,,,,,,1550789119.679095,1550789121.650214,,
381,231,4.0,Memory,4.0,,,,,,,sunacvjlsylseoghjup.jpg,Place,,Face,,0.0,,Side,,,,,,1550789129.348991,1550789131.318074,,
391,241,4.0,Memory,4.0,,,,,,,00768941205fa.jpg,Face,,Face,,1.052,3.0,Full,,,,,,1550789161.593756,1550789163.563618,,
399,249,4.0,Memory,4.0,,,,,,,sunbloeoiozwjjsiamp.jpg,Place,,Face,,1.115,3.0,None,,,,,,1550789187.3680189,1550789189.338413,,
360,210,4.0,Memory,4.0,,,,,,,00987960627fa.jpg,Face,,Face,,1.933,3.0,Category,,,,,,1550789061.548346,1550789063.579009,,
370,220,4.0,Memory,4.0,,,,,,,sunafkmnlytenlsywia.jpg,Place,,Face,,1.153,4.0,Side,,,,,,1550789093.9424279,1550789095.90677,,
378,228,4.0,Memory,4.0,,,,,,,00576941031fa.jpg,Face,,Face,,1.47,3.0,Full,,,,,,1550789119.679095,1550789121.650214,,
381,231,4.0,Memory,4.0,,,,,,,sunacvjlsylseoghjup.jpg,Place,,Face,,0.0,,Side,,,,,,1550789129.348991,1550789131.318074,,
391,241,4.0,Memory,4.0,,,,,,,00768941205fa.jpg,Face,,Face,,1.052,3.0,Full,,,,,,1550789161.593756,1550789163.563618,,
399,249,4.0,Memory,4.0,,,,,,,sunbloeoiozwjjsiamp.jpg,Place,,Face,,1.115,3.0,None,,,,,,1550789187.3680189,1550789189.338413,,
320,260,4.0,Memory,5.0,,,,,,,sunahpblecxtmuzkmxb.jpg,Place,,Place,,1.3880000000000001,2.0,Category,,,,,,1550789350.4251769,1550789352.454577,,
321,261,4.0,Memory,5.0,,,,,,,00097931230fa.jpg,Face,,Place,,0.0,,None,,,,,,1550789353.709961,1550789355.673079,,
330,270,4.0,Memory,5.0,,,,,,,sunaixpqndlwhwjtjek.jpg,Place,,Place,,1.715,3.0,Full,,,,,,1550789382.616192,1550789384.582702,,
333,273,4.0,Memory,5.0,,,,,,,00858940307fa.jpg,Face,,Place,,1.315,1.0,Side,,,,,,1550789392.218676,1550789394.18522,,
334,274,4.0,Memory,5.0,,,,,,,00242940128fa.jpg,Face,,Place,,1.588,3.0,None,,,,,,1550789395.41999,1550789397.386587,,
335,275,4.0,Memory,5.0,,,,,,,00986960627fa.jpg,Face,,Place,,1.682,3.0,Side,,,,,,1550789398.6212552,1550789400.587236,,
337,277,4.0,Memory,5.0,,,,,,,01207940128fa.jpg,Face,,Place,,1.037,1.0,None,,,,,,1550789405.0428472,1550789407.008136,,
341,281,4.0,Memory,5.0,,,,,,,sunbgzjryivyczuvkvm.jpg,Place,,Place,,1.367,3.0,Full,,,,,,1550789417.860426,1550789419.830605,,
346,286,4.0,Memory,5.0,,,,,,,sunabkngeblodihjvbk.jpg,Place,,Place,,1.399,4.0,Full,,,,,,1550789434.448674,1550789436.418965,,
347,287,4.0,Memory,5.0,,,,,,,sunaakjaacuzulqckgl.jpg,Place,,Place,,1.348,2.0,Full,,,,,,1550789437.649958,1550789439.61999,,
348,288,4.0,Memory,5.0,,,,,,,00112931230fa.jpg,Face,,Place,,1.6869999999999998,2.0,Side,,,,,,1550789440.8709939,1550789442.835706,,
349,289,4.0,Memory,5.0,,,,,,,00818940307fa.jpg,Face,,Place,,1.85,3.0,None,,,,,,1550789444.073971,1550789446.038887,,
351,291,4.0,Memory,5.0,,,,,,,sundbixjudsgeuuehrn.jpg,Place,,Place,,1.584,1.0,Category,,,,,,1550789450.473985,1550789452.443063,,
354,294,4.0,Memory,5.0,,,,,,,sunabcuurugvxwparpk.jpg,Place,,Place,,1.099,3.0,Category,,,,,,1550789460.09451,1550789462.058368,,
355,295,4.0,Memory,5.0,,,,,,,00266940128fb.jpg,Face,,Place,,1.6369999999999998,2.0,Side,,,,,,1550789463.29639,1550789465.260983,,
358,298,4.0,Memory,5.0,,,,,,,sunaajayojuslbbnneg.jpg,Place,,Place,,1.3840000000000001,1.0,Category,,,,,,1550789472.899359,1550789474.862981,,
320,260,4.0,Memory,5.0,,,,,,,sunahpblecxtmuzkmxb.jpg,Place,,Place,,1.3880000000000001,2.0,Category,,,,,,1550789350.4251769,1550789352.454577,,
321,261,4.0,Memory,5.0,,,,,,,00097931230fa.jpg,Face,,Place,,0.0,,None,,,,,,1550789353.709961,1550789355.673079,,
330,270,4.0,Memory,5.0,,,,,,,sunaixpqndlwhwjtjek.jpg,Place,,Place,,1.715,3.0,Full,,,,,,1550789382.616192,1550789384.582702,,
333,273,4.0,Memory,5.0,,,,,,,00858940307fa.jpg,Face,,Place,,1.315,1.0,Side,,,,,,1550789392.218676,1550789394.18522,,
334,274,4.0,Memory,5.0,,,,,,,00242940128fa.jpg,Face,,Place,,1.588,3.0,None,,,,,,1550789395.41999,1550789397.386587,,
335,275,4.0,Memory,5.0,,,,,,,00986960627fa.jpg,Face,,Place,,1.682,3.0,Side,,,,,,1550789398.6212552,1550789400.587236,,
337,277,4.0,Memory,5.0,,,,,,,01207940128fa.jpg,Face,,Place,,1.037,1.0,None,,,,,,1550789405.0428472,1550789407.008136,,
341,281,4.0,Memory,5.0,,,,,,,sunbgzjryivyczuvkvm.jpg,Place,,Place,,1.367,3.0,Full,,,,,,1550789417.860426,1550789419.830605,,
346,286,4.0,Memory,5.0,,,,,,,sunabkngeblodihjvbk.jpg,Place,,Place,,1.399,4.0,Full,,,,,,1550789434.448674,1550789436.418965,,
347,287,4.0,Memory,5.0,,,,,,,sunaakjaacuzulqckgl.jpg,Place,,Place,,1.348,2.0,Full,,,,,,1550789437.649958,1550789439.61999,,
348,288,4.0,Memory,5.0,,,,,,,00112931230fa.jpg,Face,,Place,,1.6869999999999998,2.0,Side,,,,,,1550789440.8709939,1550789442.835706,,
349,289,4.0,Memory,5.0,,,,,,,00818940307fa.jpg,Face,,Place,,1.85,3.0,None,,,,,,1550789444.073971,1550789446.038887,,
351,291,4.0,Memory,5.0,,,,,,,sundbixjudsgeuuehrn.jpg,Place,,Place,,1.584,1.0,Category,,,,,,1550789450.473985,1550789452.443063,,
354,294,4.0,Memory,5.0,,,,,,,sunabcuurugvxwparpk.jpg,Place,,Place,,1.099,3.0,Category,,,,,,1550789460.09451,1550789462.058368,,
355,295,4.0,Memory,5.0,,,,,,,00266940128fb.jpg,Face,,Place,,1.6369999999999998,2.0,Side,,,,,,1550789463.29639,1550789465.260983,,
358,298,4.0,Memory,5.0,,,,,,,sunaajayojuslbbnneg.jpg,Place,,Place,,1.3840000000000001,1.0,Category,,,,,,1550789472.899359,1550789474.862981,,
320,260,4.0,Memory,5.0,,,,,,,sunahpblecxtmuzkmxb.jpg,Place,,Place,,1.3880000000000001,2.0,Category,,,,,,1550789350.4251769,1550789352.454577,,
321,261,4.0,Memory,5.0,,,,,,,00097931230fa.jpg,Face,,Place,,0.0,,None,,,,,,1550789353.709961,1550789355.673079,,
330,270,4.0,Memory,5.0,,,,,,,sunaixpqndlwhwjtjek.jpg,Place,,Place,,1.715,3.0,Full,,,,,,1550789382.616192,1550789384.582702,,
333,273,4.0,Memory,5.0,,,,,,,00858940307fa.jpg,Face,,Place,,1.315,1.0,Side,,,,,,1550789392.218676,1550789394.18522,,
334,274,4.0,Memory,5.0,,,,,,,00242940128fa.jpg,Face,,Place,,1.588,3.0,None,,,,,,1550789395.41999,1550789397.386587,,
335,275,4.0,Memory,5.0,,,,,,,00986960627fa.jpg,Face,,Place,,1.682,3.0,Side,,,,,,1550789398.6212552,1550789400.587236,,
337,277,4.0,Memory,5.0,,,,,,,01207940128fa.jpg,Face,,Place,,1.037,1.0,None,,,,,,1550789405.0428472,1550789407.008136,,
341,281,4.0,Memory,5.0,,,,,,,sunbgzjryivyczuvkvm.jpg,Place,,Place,,1.367,3.0,Full,,,,,,1550789417.860426,1550789419.830605,,
346,286,4.0,Memory,5.0,,,,,,,sunabkngeblodihjvbk.jpg,Place,,Place,,1.399,4.0,Full,,,,,,1550789434.448674,1550789436.418965,,
347,287,4.0,Memory,5.0,,,,,,,sunaakjaacuzulqckgl.jpg,Place,,Place,,1.348,2.0,Full,,,,,,1550789437.649958,1550789439.61999,,
348,288,4.0,Memory,5.0,,,,,,,00112931230fa.jpg,Face,,Place,,1.6869999999999998,2.0,Side,,,,,,1550789440.8709939,1550789442.835706,,
349,289,4.0,Memory,5.0,,,,,,,00818940307fa.jpg,Face,,Place,,1.85,3.0,None,,,,,,1550789444.073971,1550789446.038887,,
351,291,4.0,Memory,5.0,,,,,,,sundbixjudsgeuuehrn.jpg,Place,,Place,,1.584,1.0,Category,,,,,,1550789450.473985,1550789452.443063,,
354,294,4.0,Memory,5.0,,,,,,,sunabcuurugvxwparpk.jpg,Place,,Place,,1.099,3.0,Category,,,,,,1550789460.09451,1550789462.058368,,
355,295,4.0,Memory,5.0,,,,,,,00266940128fb.jpg,Face,,Place,,1.6369999999999998,2.0,Side,,,,,,1550789463.29639,1550789465.260983,,
358,298,4.0,Memory,5.0,,,,,,,sunaajayojuslbbnneg.jpg,Place,,Place,,1.3840000000000001,1.0,Category,,,,,,1550789472.899359,1550789474.862981,,
320,260,4.0,Memory,5.0,,,,,,,sunahpblecxtmuzkmxb.jpg,Place,,Place,,1.3880000000000001,2.0,Category,,,,,,1550789350.4251769,1550789352.454577,,
321,261,4.0,Memory,5.0,,,,,,,00097931230fa.jpg,Face,,Place,,0.0,,None,,,,,,1550789353.709961,1550789355.673079,,
330,270,4.0,Memory,5.0,,,,,,,sunaixpqndlwhwjtjek.jpg,Place,,Place,,1.715,3.0,Full,,,,,,1550789382.616192,1550789384.582702,,
333,273,4.0,Memory,5.0,,,,,,,00858940307fa.jpg,Face,,Place,,1.315,1.0,Side,,,,,,1550789392.218676,1550789394.18522,,
334,274,4.0,Memory,5.0,,,,,,,00242940128fa.jpg,Face,,Place,,1.588,3.0,None,,,,,,1550789395.41999,1550789397.386587,,
335,275,4.0,Memory,5.0,,,,,,,00986960627fa.jpg,Face,,Place,,1.682,3.0,Side,,,,,,1550789398.6212552,1550789400.587236,,
337,277,4.0,Memory,5.0,,,,,,,01207940128fa.jpg,Face,,Place,,1.037,1.0,None,,,,,,1550789405.0428472,1550789407.008136,,
341,281,4.0,Memory,5.0,,,,,,,sunbgzjryivyczuvkvm.jpg,Place,,Place,,1.367,3.0,Full,,,,,,1550789417.860426,1550789419.830605,,
346,286,4.0,Memory,5.0,,,,,,,sunabkngeblodihjvbk.jpg,Place,,Place,,1.399,4.0,Full,,,,,,1550789434.448674,1550789436.418965,,
347,287,4.0,Memory,5.0,,,,,,,sunaakjaacuzulqckgl.jpg,Place,,Place,,1.348,2.0,Full,,,,,,1550789437.649958,1550789439.61999,,
348,288,4.0,Memory,5.0,,,,,,,00112931230fa.jpg,Face,,Place,,1.6869999999999998,2.0,Side,,,,,,1550789440.8709939,1550789442.835706,,
349,289,4.0,Memory,5.0,,,,,,,00818940307fa.jpg,Face,,Place,,1.85,3.0,None,,,,,,1550789444.073971,1550789446.038887,,
351,291,4.0,Memory,5.0,,,,,,,sundbixjudsgeuuehrn.jpg,Place,,Place,,1.584,1.0,Category,,,,,,1550789450.473985,1550789452.443063,,
354,294,4.0,Memory,5.0,,,,,,,sunabcuurugvxwparpk.jpg,Place,,Place,,1.099,3.0,Category,,,,,,1550789460.09451,1550789462.058368,,
355,295,4.0,Memory,5.0,,,,,,,00266940128fb.jpg,Face,,Place,,1.6369999999999998,2.0,Side,,,,,,1550789463.29639,1550789465.260983,,
358,298,4.0,Memory,5.0,,,,,,,sunaajayojuslbbnneg.jpg,Place,,Place,,1.3840000000000001,1.0,Category,,,,,,1550789472.899359,1550789474.862981,,
320,260,4.0,Memory,5.0,,,,,,,sunahpblecxtmuzkmxb.jpg,Place,,Place,,1.3880000000000001,2.0,Category,,,,,,1550789350.4251769,1550789352.454577,,
321,261,4.0,Memory,5.0,,,,,,,00097931230fa.jpg,Face,,Place,,0.0,,None,,,,,,1550789353.709961,1550789355.673079,,
330,270,4.0,Memory,5.0,,,,,,,sunaixpqndlwhwjtjek.jpg,Place,,Place,,1.715,3.0,Full,,,,,,1550789382.616192,1550789384.582702,,
333,273,4.0,Memory,5.0,,,,,,,00858940307fa.jpg,Face,,Place,,1.315,1.0,Side,,,,,,1550789392.218676,1550789394.18522,,
334,274,4.0,Memory,5.0,,,,,,,00242940128fa.jpg,Face,,Place,,1.588,3.0,None,,,,,,1550789395.41999,1550789397.386587,,
335,275,4.0,Memory,5.0,,,,,,,00986960627fa.jpg,Face,,Place,,1.682,3.0,Side,,,,,,1550789398.6212552,1550789400.587236,,
337,277,4.0,Memory,5.0,,,,,,,01207940128fa.jpg,Face,,Place,,1.037,1.0,None,,,,,,1550789405.0428472,1550789407.008136,,
341,281,4.0,Memory,5.0,,,,,,,sunbgzjryivyczuvkvm.jpg,Place,,Place,,1.367,3.0,Full,,,,,,1550789417.860426,1550789419.830605,,
346,286,4.0,Memory,5.0,,,,,,,sunabkngeblodihjvbk.jpg,Place,,Place,,1.399,4.0,Full,,,,,,1550789434.448674,1550789436.418965,,
347,287,4.0,Memory,5.0,,,,,,,sunaakjaacuzulqckgl.jpg,Place,,Place,,1.348,2.0,Full,,,,,,1550789437.649958,1550789439.61999,,
348,288,4.0,Memory,5.0,,,,,,,00112931230fa.jpg,Face,,Place,,1.6869999999999998,2.0,Side,,,,,,1550789440.8709939,1550789442.835706,,
349,289,4.0,Memory,5.0,,,,,,,00818940307fa.jpg,Face,,Place,,1.85,3.0,None,,,,,,1550789444.073971,1550789446.038887,,
351,291,4.0,Memory,5.0,,,,,,,sundbixjudsgeuuehrn.jpg,Place,,Place,,1.584,1.0,Category,,,,,,1550789450.473985,1550789452.443063,,
354,294,4.0,Memory,5.0,,,,,,,sunabcuurugvxwparpk.jpg,Place,,Place,,1.099,3.0,Category,,,,,,1550789460.09451,1550789462.058368,,
355,295,4.0,Memory,5.0,,,,,,,00266940128fb.jpg,Face,,Place,,1.6369999999999998,2.0,Side,,,,,,1550789463.29639,1550789465.260983,,
358,298,4.0,Memory,5.0,,,,,,,sunaajayojuslbbnneg.jpg,Place,,Place,,1.3840000000000001,1.0,Category,,,,,,1550789472.899359,1550789474.862981,,
292,372,4.0,Memory,7.0,,,,,,,00870940307fa.jpg,Face,,Place,,0.308,3.0,None,,,,,,1550789976.613166,1550789978.6758401,,
297,377,4.0,Memory,7.0,,,,,,,sunabbafjowbzcvbucc.jpg,Place,,Place,,0.0,,Full,,,,,,1550789993.352427,1550789995.4183462,,
301,381,4.0,Memory,7.0,,,,,,,00214940128fa.jpg,Face,,Place,,1.538,2.0,Side,,,,,,1550790006.8728552,1550790008.854015,,
315,395,4.0,Memory,7.0,,,,,,,sunajrgtewnualfcerj.jpg,Place,,Place,,1.837,1.0,Category,,,,,,1550790053.316507,1550790055.450603,,
292,372,4.0,Memory,7.0,,,,,,,00870940307fa.jpg,Face,,Place,,0.308,3.0,None,,,,,,1550789976.613166,1550789978.6758401,,
297,377,4.0,Memory,7.0,,,,,,,sunabbafjowbzcvbucc.jpg,Place,,Place,,0.0,,Full,,,,,,1550789993.352427,1550789995.4183462,,
301,381,4.0,Memory,7.0,,,,,,,00214940128fa.jpg,Face,,Place,,1.538,2.0,Side,,,,,,1550790006.8728552,1550790008.854015,,
315,395,4.0,Memory,7.0,,,,,,,sunajrgtewnualfcerj.jpg,Place,,Place,,1.837,1.0,Category,,,,,,1550790053.316507,1550790055.450603,,
81,11,4.0,Memory,0.0,,,,,,,sunabctlikybqabezjv.jpg,,,,,1.6,2.0,Novel,,,,,,1550787651.586949,1550787653.5704029,,
83,13,4.0,Memory,0.0,,,,,,,00908960530fa.jpg,,,,,1.4669999999999999,2.0,Novel,,,,,,1550787658.055284,1550787660.04058,,
84,14,4.0,Memory,0.0,,,,,,,sunaafvitpexrpvumsa.jpg,,,,,1.416,3.0,Novel,,,,,,1550787661.3061821,1550787663.290253,,
85,15,4.0,Memory,0.0,,,,,,,sunabizydfotqddlnjp.jpg,,,,,1.538,2.0,Novel,,,,,,1550787664.5451891,1550787666.525357,,
86,16,4.0,Memory,0.0,,,,,,,sundahdxwmcdluscvot.jpg,,,,,1.415,3.0,Novel,,,,,,1550787667.8126109,1550787669.791803,,
87,17,4.0,Memory,0.0,,,,,,,00564940928fa.jpg,,,,,1.5190000000000001,3.0,Novel,,,,,,1550787671.047856,1550787673.028995,,
88,18,4.0,Memory,0.0,,,,,,,sunaqbmgkgqucajzrkp.jpg,,,,,1.636,3.0,Novel,,,,,,1550787674.3147929,1550787676.2977052,,
90,20,4.0,Memory,0.0,,,,,,,sunaofikylqtxphvdem.jpg,,,,,1.151,1.0,Novel,,,,,,1550787680.829145,1550787682.812614,,
92,22,4.0,Memory,0.0,,,,,,,00935960627fa.jpg,,,,,1.449,2.0,Novel,,,,,,1550787687.318879,1550787689.298354,,
93,23,4.0,Memory,0.0,,,,,,,00262940128fa.jpg,,,,,0.865,2.0,Novel,,,,,,1550787690.615631,1550787692.599218,,
98,28,4.0,Memory,0.0,,,,,,,01011960627fa.jpg,,,,,1.069,3.0,Novel,,,,,,1550787706.825825,1550787708.804301,,
101,31,4.0,Memory,0.0,,,,,,,00239940128fa.jpg,,,,,1.0190000000000001,2.0,Novel,,,,,,1550787716.524014,1550787718.509852,,
103,33,4.0,Memory,0.0,,,,,,,00082931230fa.jpg,,,,,1.085,2.0,Novel,,,,,,1550787723.026773,1550787725.0103981,,
105,35,4.0,Memory,0.0,,,,,,,00910960530fa.jpg,,,,,0.953,2.0,Novel,,,,,,1550787729.5481448,1550787731.528282,,
106,36,4.0,Memory,0.0,,,,,,,00803941205fa.jpg,,,,,1.567,2.0,Novel,,,,,,1550787732.7954051,1550787734.780058,,
108,38,4.0,Memory,0.0,,,,,,,sunacmpqqfbsvlzinzl.jpg,,,,,1.5530000000000002,1.0,Novel,,,,,,1550787739.3144732,1550787741.3008358,,
109,39,4.0,Memory,0.0,,,,,,,00144931230fb.jpg,,,,,1.0859999999999999,2.0,Novel,,,,,,1550787742.548948,1550787744.535729,,
110,40,4.0,Memory,0.0,,,,,,,sunagvxkjokqimstxpe.jpg,,,,,1.365,3.0,Novel,,,,,,1550787745.804896,1550787747.786234,,
113,43,4.0,Memory,0.0,,,,,,,sunanwjjyqqwzqrqagd.jpg,,,,,1.517,1.0,Novel,,,,,,1550787755.557503,1550787757.538676,,
119,49,4.0,Memory,0.0,,,,,,,sunaathajvxrgptwhoj.jpg,,,,,1.3659999999999999,1.0,Novel,,,,,,1550787775.0624301,1550787777.0430849,,
81,11,4.0,Memory,0.0,,,,,,,sunabctlikybqabezjv.jpg,,,,,1.6,2.0,Novel,,,,,,1550787651.586949,1550787653.5704029,,
83,13,4.0,Memory,0.0,,,,,,,00908960530fa.jpg,,,,,1.4669999999999999,2.0,Novel,,,,,,1550787658.055284,1550787660.04058,,
84,14,4.0,Memory,0.0,,,,,,,sunaafvitpexrpvumsa.jpg,,,,,1.416,3.0,Novel,,,,,,1550787661.3061821,1550787663.290253,,
85,15,4.0,Memory,0.0,,,,,,,sunabizydfotqddlnjp.jpg,,,,,1.538,2.0,Novel,,,,,,1550787664.5451891,1550787666.525357,,
86,16,4.0,Memory,0.0,,,,,,,sundahdxwmcdluscvot.jpg,,,,,1.415,3.0,Novel,,,,,,1550787667.8126109,1550787669.791803,,
87,17,4.0,Memory,0.0,,,,,,,00564940928fa.jpg,,,,,1.5190000000000001,3.0,Novel,,,,,,1550787671.047856,1550787673.028995,,
88,18,4.0,Memory,0.0,,,,,,,sunaqbmgkgqucajzrkp.jpg,,,,,1.636,3.0,Novel,,,,,,1550787674.3147929,1550787676.2977052,,
90,20,4.0,Memory,0.0,,,,,,,sunaofikylqtxphvdem.jpg,,,,,1.151,1.0,Novel,,,,,,1550787680.829145,1550787682.812614,,
92,22,4.0,Memory,0.0,,,,,,,00935960627fa.jpg,,,,,1.449,2.0,Novel,,,,,,1550787687.318879,1550787689.298354,,
93,23,4.0,Memory,0.0,,,,,,,00262940128fa.jpg,,,,,0.865,2.0,Novel,,,,,,1550787690.615631,1550787692.599218,,
98,28,4.0,Memory,0.0,,,,,,,01011960627fa.jpg,,,,,1.069,3.0,Novel,,,,,,1550787706.825825,1550787708.804301,,
101,31,4.0,Memory,0.0,,,,,,,00239940128fa.jpg,,,,,1.0190000000000001,2.0,Novel,,,,,,1550787716.524014,1550787718.509852,,
103,33,4.0,Memory,0.0,,,,,,,00082931230fa.jpg,,,,,1.085,2.0,Novel,,,,,,1550787723.026773,1550787725.0103981,,
105,35,4.0,Memory,0.0,,,,,,,00910960530fa.jpg,,,,,0.953,2.0,Novel,,,,,,1550787729.5481448,1550787731.528282,,
106,36,4.0,Memory,0.0,,,,,,,00803941205fa.jpg,,,,,1.567,2.0,Novel,,,,,,1550787732.7954051,1550787734.780058,,
108,38,4.0,Memory,0.0,,,,,,,sunacmpqqfbsvlzinzl.jpg,,,,,1.5530000000000002,1.0,Novel,,,,,,1550787739.3144732,1550787741.3008358,,
109,39,4.0,Memory,0.0,,,,,,,00144931230fb.jpg,,,,,1.0859999999999999,2.0,Novel,,,,,,1550787742.548948,1550787744.535729,,
110,40,4.0,Memory,0.0,,,,,,,sunagvxkjokqimstxpe.jpg,,,,,1.365,3.0,Novel,,,,,,1550787745.804896,1550787747.786234,,
113,43,4.0,Memory,0.0,,,,,,,sunanwjjyqqwzqrqagd.jpg,,,,,1.517,1.0,Novel,,,,,,1550787755.557503,1550787757.538676,,
119,49,4.0,Memory,0.0,,,,,,,sunaathajvxrgptwhoj.jpg,,,,,1.3659999999999999,1.0,Novel,,,,,,1550787775.0624301,1550787777.0430849,,
81,11,4.0,Memory,0.0,,,,,,,sunabctlikybqabezjv.jpg,,,,,1.6,2.0,Novel,,,,,,1550787651.586949,1550787653.5704029,,
83,13,4.0,Memory,0.0,,,,,,,00908960530fa.jpg,,,,,1.4669999999999999,2.0,Novel,,,,,,1550787658.055284,1550787660.04058,,
84,14,4.0,Memory,0.0,,,,,,,sunaafvitpexrpvumsa.jpg,,,,,1.416,3.0,Novel,,,,,,1550787661.3061821,1550787663.290253,,
85,15,4.0,Memory,0.0,,,,,,,sunabizydfotqddlnjp.jpg,,,,,1.538,2.0,Novel,,,,,,1550787664.5451891,1550787666.525357,,
86,16,4.0,Memory,0.0,,,,,,,sundahdxwmcdluscvot.jpg,,,,,1.415,3.0,Novel,,,,,,1550787667.8126109,1550787669.791803,,
87,17,4.0,Memory,0.0,,,,,,,00564940928fa.jpg,,,,,1.5190000000000001,3.0,Novel,,,,,,1550787671.047856,1550787673.028995,,
88,18,4.0,Memory,0.0,,,,,,,sunaqbmgkgqucajzrkp.jpg,,,,,1.636,3.0,Novel,,,,,,1550787674.3147929,1550787676.2977052,,
90,20,4.0,Memory,0.0,,,,,,,sunaofikylqtxphvdem.jpg,,,,,1.151,1.0,Novel,,,,,,1550787680.829145,1550787682.812614,,
92,22,4.0,Memory,0.0,,,,,,,00935960627fa.jpg,,,,,1.449,2.0,Novel,,,,,,1550787687.318879,1550787689.298354,,
93,23,4.0,Memory,0.0,,,,,,,00262940128fa.jpg,,,,,0.865,2.0,Novel,,,,,,1550787690.615631,1550787692.599218,,
98,28,4.0,Memory,0.0,,,,,,,01011960627fa.jpg,,,,,1.069,3.0,Novel,,,,,,1550787706.825825,1550787708.804301,,
101,31,4.0,Memory,0.0,,,,,,,00239940128fa.jpg,,,,,1.0190000000000001,2.0,Novel,,,,,,1550787716.524014,1550787718.509852,,
103,33,4.0,Memory,0.0,,,,,,,00082931230fa.jpg,,,,,1.085,2.0,Novel,,,,,,1550787723.026773,1550787725.0103981,,
105,35,4.0,Memory,0.0,,,,,,,00910960530fa.jpg,,,,,0.953,2.0,Novel,,,,,,1550787729.5481448,1550787731.528282,,
106,36,4.0,Memory,0.0,,,,,,,00803941205fa.jpg,,,,,1.567,2.0,Novel,,,,,,1550787732.7954051,1550787734.780058,,
108,38,4.0,Memory,0.0,,,,,,,sunacmpqqfbsvlzinzl.jpg,,,,,1.5530000000000002,1.0,Novel,,,,,,1550787739.3144732,1550787741.3008358,,
109,39,4.0,Memory,0.0,,,,,,,00144931230fb.jpg,,,,,1.0859999999999999,2.0,Novel,,,,,,1550787742.548948,1550787744.535729,,
110,40,4.0,Memory,0.0,,,,,,,sunagvxkjokqimstxpe.jpg,,,,,1.365,3.0,Novel,,,,,,1550787745.804896,1550787747.786234,,
113,43,4.0,Memory,0.0,,,,,,,sunanwjjyqqwzqrqagd.jpg,,,,,1.517,1.0,Novel,,,,,,1550787755.557503,1550787757.538676,,
119,49,4.0,Memory,0.0,,,,,,,sunaathajvxrgptwhoj.jpg,,,,,1.3659999999999999,1.0,Novel,,,,,,1550787775.0624301,1550787777.0430849,,
81,11,4.0,Memory,0.0,,,,,,,sunabctlikybqabezjv.jpg,,,,,1.6,2.0,Novel,,,,,,1550787651.586949,1550787653.5704029,,
83,13,4.0,Memory,0.0,,,,,,,00908960530fa.jpg,,,,,1.4669999999999999,2.0,Novel,,,,,,1550787658.055284,1550787660.04058,,
84,14,4.0,Memory,0.0,,,,,,,sunaafvitpexrpvumsa.jpg,,,,,1.416,3.0,Novel,,,,,,1550787661.3061821,1550787663.290253,,
85,15,4.0,Memory,0.0,,,,,,,sunabizydfotqddlnjp.jpg,,,,,1.538,2.0,Novel,,,,,,1550787664.5451891,1550787666.525357,,
86,16,4.0,Memory,0.0,,,,,,,sundahdxwmcdluscvot.jpg,,,,,1.415,3.0,Novel,,,,,,1550787667.8126109,1550787669.791803,,
87,17,4.0,Memory,0.0,,,,,,,00564940928fa.jpg,,,,,1.5190000000000001,3.0,Novel,,,,,,1550787671.047856,1550787673.028995,,
88,18,4.0,Memory,0.0,,,,,,,sunaqbmgkgqucajzrkp.jpg,,,,,1.636,3.0,Novel,,,,,,1550787674.3147929,1550787676.2977052,,
90,20,4.0,Memory,0.0,,,,,,,sunaofikylqtxphvdem.jpg,,,,,1.151,1.0,Novel,,,,,,1550787680.829145,1550787682.812614,,
92,22,4.0,Memory,0.0,,,,,,,00935960627fa.jpg,,,,,1.449,2.0,Novel,,,,,,1550787687.318879,1550787689.298354,,
93,23,4.0,Memory,0.0,,,,,,,00262940128fa.jpg,,,,,0.865,2.0,Novel,,,,,,1550787690.615631,1550787692.599218,,
98,28,4.0,Memory,0.0,,,,,,,01011960627fa.jpg,,,,,1.069,3.0,Novel,,,,,,1550787706.825825,1550787708.804301,,
101,31,4.0,Memory,0.0,,,,,,,00239940128fa.jpg,,,,,1.0190000000000001,2.0,Novel,,,,,,1550787716.524014,1550787718.509852,,
103,33,4.0,Memory,0.0,,,,,,,00082931230fa.jpg,,,,,1.085,2.0,Novel,,,,,,1550787723.026773,1550787725.0103981,,
105,35,4.0,Memory,0.0,,,,,,,00910960530fa.jpg,,,,,0.953,2.0,Novel,,,,,,1550787729.5481448,1550787731.528282,,
106,36,4.0,Memory,0.0,,,,,,,00803941205fa.jpg,,,,,1.567,2.0,Novel,,,,,,1550787732.7954051,1550787734.780058,,
108,38,4.0,Memory,0.0,,,,,,,sunacmpqqfbsvlzinzl.jpg,,,,,1.5530000000000002,1.0,Novel,,,,,,1550787739.3144732,1550787741.3008358,,
109,39,4.0,Memory,0.0,,,,,,,00144931230fb.jpg,,,,,1.0859999999999999,2.0,Novel,,,,,,1550787742.548948,1550787744.535729,,
110,40,4.0,Memory,0.0,,,,,,,sunagvxkjokqimstxpe.jpg,,,,,1.365,3.0,Novel,,,,,,1550787745.804896,1550787747.786234,,
113,43,4.0,Memory,0.0,,,,,,,sunanwjjyqqwzqrqagd.jpg,,,,,1.517,1.0,Novel,,,,,,1550787755.557503,1550787757.538676,,
119,49,4.0,Memory,0.0,,,,,,,sunaathajvxrgptwhoj.jpg,,,,,1.3659999999999999,1.0,Novel,,,,,,1550787775.0624301,1550787777.0430849,,
120,60,4.0,Memory,1.0,,,,,,,00306940422fa.jpg,,,,,1.474,2.0,Novel,,,,,,1550788027.7622359,1550788029.861644,,
121,61,4.0,Memory,1.0,,,,,,,00730960620fa.jpg,,,,,1.632,2.0,Novel,,,,,,1550788031.126345,1550788033.097497,,
124,64,4.0,Memory,1.0,,,,,,,sunachtuarilwyqnvjx.jpg,,,,,1.7819999999999998,2.0,Novel,,,,,,1550788040.833956,1550788042.7986119,,
126,66,4.0,Memory,1.0,,,,,,,00681941121fa.jpg,,,,,1.232,3.0,Novel,,,,,,1550788047.2691891,1550788049.2333028,,
128,68,4.0,Memory,1.0,,,,,,,sunaafgqutfaishsxyu.jpg,,,,,1.149,3.0,Novel,,,,,,1550788053.715831,1550788055.686191,,
129,69,4.0,Memory,1.0,,,,,,,sunaajuzribjrizdshh.jpg,,,,,1.135,3.0,Novel,,,,,,1550788056.939468,1550788058.900896,,
130,70,4.0,Memory,1.0,,,,,,,sunaloffvbvysigxent.jpg,,,,,1.2670000000000001,2.0,Novel,,,,,,1550788060.188997,1550788062.153178,,
132,72,4.0,Memory,1.0,,,,,,,sunaijsqpvodplbwxkf.jpg,,,,,1.7990000000000002,2.0,Novel,,,,,,1550788066.671177,1550788068.637462,,
133,73,4.0,Memory,1.0,,,,,,,sunabueyoajufbkraki.jpg,,,,,1.3330000000000002,1.0,Novel,,,,,,1550788069.891568,1550788071.8553052,,
136,76,4.0,Memory,1.0,,,,,,,00077931230fb.jpg,,,,,1.5030000000000001,2.0,Novel,,,,,,1550788079.557576,1550788081.526036,,
137,77,4.0,Memory,1.0,,,,,,,sunaatjesvdupctftmn.jpg,,,,,1.486,1.0,Novel,,,,,,1550788082.781006,1550788084.74609,,
140,80,4.0,Memory,1.0,,,,,,,00835940307fa.jpg,,,,,1.682,1.0,Novel,,,,,,1550788092.528837,1550788094.4994211,,
141,81,4.0,Memory,1.0,,,,,,,sunaekgzpfilgjxpeyq.jpg,,,,,1.62,3.0,Novel,,,,,,1550788095.7509642,1550788097.714396,,
142,82,4.0,Memory,1.0,,,,,,,00109931230fa.jpg,,,,,1.7169999999999999,2.0,Novel,,,,,,1550788098.964198,1550788100.935764,,
143,83,4.0,Memory,1.0,,,,,,,00557940519fa.jpg,,,,,1.588,2.0,Novel,,,,,,1550788102.186604,1550788104.1515439,,
150,90,4.0,Memory,1.0,,,,,,,sunagrmyoovzukhxmlo.jpg,,,,,0.898,1.0,Novel,,,,,,1550788124.7928462,1550788126.806868,,
151,91,4.0,Memory,1.0,,,,,,,sunadqmjrhfjyuzyvdd.jpg,,,,,0.883,2.0,Novel,,,,,,1550788128.078374,1550788130.0767288,,
156,96,4.0,Memory,1.0,,,,,,,00791941205fa.jpg,,,,,1.422,1.0,Novel,,,,,,1550788144.499557,1550788146.502553,,
158,98,4.0,Memory,1.0,,,,,,,00145931230fb.jpg,,,,,1.165,1.0,Novel,,,,,,1550788151.069076,1550788153.0385802,,
159,99,4.0,Memory,1.0,,,,,,,00893960530Fa.jpg,,,,,1.619,2.0,Novel,,,,,,1550788154.303952,1550788156.266448,,
120,60,4.0,Memory,1.0,,,,,,,00306940422fa.jpg,,,,,1.474,2.0,Novel,,,,,,1550788027.7622359,1550788029.861644,,
121,61,4.0,Memory,1.0,,,,,,,00730960620fa.jpg,,,,,1.632,2.0,Novel,,,,,,1550788031.126345,1550788033.097497,,
124,64,4.0,Memory,1.0,,,,,,,sunachtuarilwyqnvjx.jpg,,,,,1.7819999999999998,2.0,Novel,,,,,,1550788040.833956,1550788042.7986119,,
126,66,4.0,Memory,1.0,,,,,,,00681941121fa.jpg,,,,,1.232,3.0,Novel,,,,,,1550788047.2691891,1550788049.2333028,,
128,68,4.0,Memory,1.0,,,,,,,sunaafgqutfaishsxyu.jpg,,,,,1.149,3.0,Novel,,,,,,1550788053.715831,1550788055.686191,,
129,69,4.0,Memory,1.0,,,,,,,sunaajuzribjrizdshh.jpg,,,,,1.135,3.0,Novel,,,,,,1550788056.939468,1550788058.900896,,
130,70,4.0,Memory,1.0,,,,,,,sunaloffvbvysigxent.jpg,,,,,1.2670000000000001,2.0,Novel,,,,,,1550788060.188997,1550788062.153178,,
132,72,4.0,Memory,1.0,,,,,,,sunaijsqpvodplbwxkf.jpg,,,,,1.7990000000000002,2.0,Novel,,,,,,1550788066.671177,1550788068.637462,,
133,73,4.0,Memory,1.0,,,,,,,sunabueyoajufbkraki.jpg,,,,,1.3330000000000002,1.0,Novel,,,,,,1550788069.891568,1550788071.8553052,,
136,76,4.0,Memory,1.0,,,,,,,00077931230fb.jpg,,,,,1.5030000000000001,2.0,Novel,,,,,,1550788079.557576,1550788081.526036,,
137,77,4.0,Memory,1.0,,,,,,,sunaatjesvdupctftmn.jpg,,,,,1.486,1.0,Novel,,,,,,1550788082.781006,1550788084.74609,,
140,80,4.0,Memory,1.0,,,,,,,00835940307fa.jpg,,,,,1.682,1.0,Novel,,,,,,1550788092.528837,1550788094.4994211,,
141,81,4.0,Memory,1.0,,,,,,,sunaekgzpfilgjxpeyq.jpg,,,,,1.62,3.0,Novel,,,,,,1550788095.7509642,1550788097.714396,,
142,82,4.0,Memory,1.0,,,,,,,00109931230fa.jpg,,,,,1.7169999999999999,2.0,Novel,,,,,,1550788098.964198,1550788100.935764,,
143,83,4.0,Memory,1.0,,,,,,,00557940519fa.jpg,,,,,1.588,2.0,Novel,,,,,,1550788102.186604,1550788104.1515439,,
150,90,4.0,Memory,1.0,,,,,,,sunagrmyoovzukhxmlo.jpg,,,,,0.898,1.0,Novel,,,,,,1550788124.7928462,1550788126.806868,,
151,91,4.0,Memory,1.0,,,,,,,sunadqmjrhfjyuzyvdd.jpg,,,,,0.883,2.0,Novel,,,,,,1550788128.078374,1550788130.0767288,,
156,96,4.0,Memory,1.0,,,,,,,00791941205fa.jpg,,,,,1.422,1.0,Novel,,,,,,1550788144.499557,1550788146.502553,,
158,98,4.0,Memory,1.0,,,,,,,00145931230fb.jpg,,,,,1.165,1.0,Novel,,,,,,1550788151.069076,1550788153.0385802,,
159,99,4.0,Memory,1.0,,,,,,,00893960530Fa.jpg,,,,,1.619,2.0,Novel,,,,,,1550788154.303952,1550788156.266448,,
120,60,4.0,Memory,1.0,,,,,,,00306940422fa.jpg,,,,,1.474,2.0,Novel,,,,,,1550788027.7622359,1550788029.861644,,
121,61,4.0,Memory,1.0,,,,,,,00730960620fa.jpg,,,,,1.632,2.0,Novel,,,,,,1550788031.126345,1550788033.097497,,
124,64,4.0,Memory,1.0,,,,,,,sunachtuarilwyqnvjx.jpg,,,,,1.7819999999999998,2.0,Novel,,,,,,1550788040.833956,1550788042.7986119,,
126,66,4.0,Memory,1.0,,,,,,,00681941121fa.jpg,,,,,1.232,3.0,Novel,,,,,,1550788047.2691891,1550788049.2333028,,
128,68,4.0,Memory,1.0,,,,,,,sunaafgqutfaishsxyu.jpg,,,,,1.149,3.0,Novel,,,,,,1550788053.715831,1550788055.686191,,
129,69,4.0,Memory,1.0,,,,,,,sunaajuzribjrizdshh.jpg,,,,,1.135,3.0,Novel,,,,,,1550788056.939468,1550788058.900896,,
130,70,4.0,Memory,1.0,,,,,,,sunaloffvbvysigxent.jpg,,,,,1.2670000000000001,2.0,Novel,,,,,,1550788060.188997,1550788062.153178,,
132,72,4.0,Memory,1.0,,,,,,,sunaijsqpvodplbwxkf.jpg,,,,,1.7990000000000002,2.0,Novel,,,,,,1550788066.671177,1550788068.637462,,
133,73,4.0,Memory,1.0,,,,,,,sunabueyoajufbkraki.jpg,,,,,1.3330000000000002,1.0,Novel,,,,,,1550788069.891568,1550788071.8553052,,
136,76,4.0,Memory,1.0,,,,,,,00077931230fb.jpg,,,,,1.5030000000000001,2.0,Novel,,,,,,1550788079.557576,1550788081.526036,,
137,77,4.0,Memory,1.0,,,,,,,sunaatjesvdupctftmn.jpg,,,,,1.486,1.0,Novel,,,,,,1550788082.781006,1550788084.74609,,
140,80,4.0,Memory,1.0,,,,,,,00835940307fa.jpg,,,,,1.682,1.0,Novel,,,,,,1550788092.528837,1550788094.4994211,,
141,81,4.0,Memory,1.0,,,,,,,sunaekgzpfilgjxpeyq.jpg,,,,,1.62,3.0,Novel,,,,,,1550788095.7509642,1550788097.714396,,
142,82,4.0,Memory,1.0,,,,,,,00109931230fa.jpg,,,,,1.7169999999999999,2.0,Novel,,,,,,1550788098.964198,1550788100.935764,,
143,83,4.0,Memory,1.0,,,,,,,00557940519fa.jpg,,,,,1.588,2.0,Novel,,,,,,1550788102.186604,1550788104.1515439,,
150,90,4.0,Memory,1.0,,,,,,,sunagrmyoovzukhxmlo.jpg,,,,,0.898,1.0,Novel,,,,,,1550788124.7928462,1550788126.806868,,
151,91,4.0,Memory,1.0,,,,,,,sunadqmjrhfjyuzyvdd.jpg,,,,,0.883,2.0,Novel,,,,,,1550788128.078374,1550788130.0767288,,
156,96,4.0,Memory,1.0,,,,,,,00791941205fa.jpg,,,,,1.422,1.0,Novel,,,,,,1550788144.499557,1550788146.502553,,
158,98,4.0,Memory,1.0,,,,,,,00145931230fb.jpg,,,,,1.165,1.0,Novel,,,,,,1550788151.069076,1550788153.0385802,,
159,99,4.0,Memory,1.0,,,,,,,00893960530Fa.jpg,,,,,1.619,2.0,Novel,,,,,,1550788154.303952,1550788156.266448,,
120,60,4.0,Memory,1.0,,,,,,,00306940422fa.jpg,,,,,1.474,2.0,Novel,,,,,,1550788027.7622359,1550788029.861644,,
121,61,4.0,Memory,1.0,,,,,,,00730960620fa.jpg,,,,,1.632,2.0,Novel,,,,,,1550788031.126345,1550788033.097497,,
124,64,4.0,Memory,1.0,,,,,,,sunachtuarilwyqnvjx.jpg,,,,,1.7819999999999998,2.0,Novel,,,,,,1550788040.833956,1550788042.7986119,,
126,66,4.0,Memory,1.0,,,,,,,00681941121fa.jpg,,,,,1.232,3.0,Novel,,,,,,1550788047.2691891,1550788049.2333028,,
128,68,4.0,Memory,1.0,,,,,,,sunaafgqutfaishsxyu.jpg,,,,,1.149,3.0,Novel,,,,,,1550788053.715831,1550788055.686191,,
129,69,4.0,Memory,1.0,,,,,,,sunaajuzribjrizdshh.jpg,,,,,1.135,3.0,Novel,,,,,,1550788056.939468,1550788058.900896,,
130,70,4.0,Memory,1.0,,,,,,,sunaloffvbvysigxent.jpg,,,,,1.2670000000000001,2.0,Novel,,,,,,1550788060.188997,1550788062.153178,,
132,72,4.0,Memory,1.0,,,,,,,sunaijsqpvodplbwxkf.jpg,,,,,1.7990000000000002,2.0,Novel,,,,,,1550788066.671177,1550788068.637462,,
133,73,4.0,Memory,1.0,,,,,,,sunabueyoajufbkraki.jpg,,,,,1.3330000000000002,1.0,Novel,,,,,,1550788069.891568,1550788071.8553052,,
136,76,4.0,Memory,1.0,,,,,,,00077931230fb.jpg,,,,,1.5030000000000001,2.0,Novel,,,,,,1550788079.557576,1550788081.526036,,
137,77,4.0,Memory,1.0,,,,,,,sunaatjesvdupctftmn.jpg,,,,,1.486,1.0,Novel,,,,,,1550788082.781006,1550788084.74609,,
140,80,4.0,Memory,1.0,,,,,,,00835940307fa.jpg,,,,,1.682,1.0,Novel,,,,,,1550788092.528837,1550788094.4994211,,
141,81,4.0,Memory,1.0,,,,,,,sunaekgzpfilgjxpeyq.jpg,,,,,1.62,3.0,Novel,,,,,,1550788095.7509642,1550788097.714396,,
142,82,4.0,Memory,1.0,,,,,,,00109931230fa.jpg,,,,,1.7169999999999999,2.0,Novel,,,,,,1550788098.964198,1550788100.935764,,
143,83,4.0,Memory,1.0,,,,,,,00557940519fa.jpg,,,,,1.588,2.0,Novel,,,,,,1550788102.186604,1550788104.1515439,,
150,90,4.0,Memory,1.0,,,,,,,sunagrmyoovzukhxmlo.jpg,,,,,0.898,1.0,Novel,,,,,,1550788124.7928462,1550788126.806868,,
151,91,4.0,Memory,1.0,,,,,,,sunadqmjrhfjyuzyvdd.jpg,,,,,0.883,2.0,Novel,,,,,,1550788128.078374,1550788130.0767288,,
156,96,4.0,Memory,1.0,,,,,,,00791941205fa.jpg,,,,,1.422,1.0,Novel,,,,,,1550788144.499557,1550788146.502553,,
158,98,4.0,Memory,1.0,,,,,,,00145931230fb.jpg,,,,,1.165,1.0,Novel,,,,,,1550788151.069076,1550788153.0385802,,
159,99,4.0,Memory,1.0,,,,,,,00893960530Fa.jpg,,,,,1.619,2.0,Novel,,,,,,1550788154.303952,1550788156.266448,,
202,112,4.0,Memory,2.0,,,,,,,00988960627fa.jpg,,,,,1.735,2.0,Novel,,,,,,1550788342.730951,1550788344.776578,,
203,113,4.0,Memory,2.0,,,,,,,00955960627fb.jpg,,,,,1.756,1.0,Novel,,,,,,1550788346.049267,1550788348.111182,,
204,114,4.0,Memory,2.0,,,,,,,01005960627fa.jpg,,,,,1.276,3.0,Novel,,,,,,1550788349.383075,1550788351.43272,,
207,117,4.0,Memory,2.0,,,,,,,sunadbhmrgrrpyzglxs.jpg,,,,,1.558,1.0,Novel,,,,,,1550788359.252834,1550788361.253742,,
208,118,4.0,Memory,2.0,,,,,,,00562941031fa.jpg,,,,,1.9480000000000002,1.0,Novel,,,,,,1550788362.536975,1550788364.5348608,,
215,125,4.0,Memory,2.0,,,,,,,sunauburywlkjszngcq.jpg,,,,,1.641,1.0,Novel,,,,,,1550788385.494249,1550788387.5286632,,
216,126,4.0,Memory,2.0,,,,,,,sunaakvmbftkrgqhjun.jpg,,,,,1.825,1.0,Novel,,,,,,1550788388.795778,1550788390.843109,,
217,127,4.0,Memory,2.0,,,,,,,sunaaeowapdkwzqpgqr.jpg,,,,,1.659,1.0,Novel,,,,,,1550788392.1143029,1550788394.1465929,,
218,128,4.0,Memory,2.0,,,,,,,sunbwyuesflwdpqtgoy.jpg,,,,,1.6,1.0,Novel,,,,,,1550788395.430856,1550788397.478291,,
219,129,4.0,Memory,2.0,,,,,,,00914960620fa.jpg,,,,,1.8319999999999999,1.0,Novel,,,,,,1550788398.732354,1550788400.731303,,
222,132,4.0,Memory,2.0,,,,,,,00069931230fb.jpg,,,,,1.608,2.0,Novel,,,,,,1550788408.618599,1550788410.61978,,
223,133,4.0,Memory,2.0,,,,,,,sunaeoghzrjarigmwua.jpg,,,,,1.4369999999999998,3.0,Novel,,,,,,1550788411.8869722,1550788413.874769,,
224,134,4.0,Memory,2.0,,,,,,,00743941201fa.jpg,,,,,1.4709999999999999,1.0,Novel,,,,,,1550788415.1544619,1550788417.155775,,
229,139,4.0,Memory,2.0,,,,,,,sunaozisvwfbmlkfhzv.jpg,,,,,1.4169999999999998,1.0,Novel,,,,,,1550788431.622791,1550788433.695983,,
230,140,4.0,Memory,2.0,,,,,,,00119931230fb.jpg,,,,,1.699,1.0,Novel,,,,,,1550788434.994007,1550788436.9971821,,
232,142,4.0,Memory,2.0,,,,,,,sunahgtbwgsmtqeodwh.jpg,,,,,1.7,3.0,Novel,,,,,,1550788441.547441,1550788443.592243,,
233,143,4.0,Memory,2.0,,,,,,,00633940928fa.jpg,,,,,1.808,2.0,Novel,,,,,,1550788444.847245,1550788446.8818939,,
234,144,4.0,Memory,2.0,,,,,,,sunacjnahdmqfnjfwqx.jpg,,,,,1.67,1.0,Novel,,,,,,1550788448.232668,1550788450.3128018,,
238,148,4.0,Memory,2.0,,,,,,,00812941205fa.jpg,,,,,1.2690000000000001,1.0,Novel,,,,,,1550788461.469805,1550788463.457128,,
239,149,4.0,Memory,2.0,,,,,,,sunbmaiocftdtvnzgap.jpg,,,,,1.349,1.0,Novel,,,,,,1550788464.737433,1550788466.719772,,
202,112,4.0,Memory,2.0,,,,,,,00988960627fa.jpg,,,,,1.735,2.0,Novel,,,,,,1550788342.730951,1550788344.776578,,
203,113,4.0,Memory,2.0,,,,,,,00955960627fb.jpg,,,,,1.756,1.0,Novel,,,,,,1550788346.049267,1550788348.111182,,
204,114,4.0,Memory,2.0,,,,,,,01005960627fa.jpg,,,,,1.276,3.0,Novel,,,,,,1550788349.383075,1550788351.43272,,
207,117,4.0,Memory,2.0,,,,,,,sunadbhmrgrrpyzglxs.jpg,,,,,1.558,1.0,Novel,,,,,,1550788359.252834,1550788361.253742,,
208,118,4.0,Memory,2.0,,,,,,,00562941031fa.jpg,,,,,1.9480000000000002,1.0,Novel,,,,,,1550788362.536975,1550788364.5348608,,
215,125,4.0,Memory,2.0,,,,,,,sunauburywlkjszngcq.jpg,,,,,1.641,1.0,Novel,,,,,,1550788385.494249,1550788387.5286632,,
216,126,4.0,Memory,2.0,,,,,,,sunaakvmbftkrgqhjun.jpg,,,,,1.825,1.0,Novel,,,,,,1550788388.795778,1550788390.843109,,
217,127,4.0,Memory,2.0,,,,,,,sunaaeowapdkwzqpgqr.jpg,,,,,1.659,1.0,Novel,,,,,,1550788392.1143029,1550788394.1465929,,
218,128,4.0,Memory,2.0,,,,,,,sunbwyuesflwdpqtgoy.jpg,,,,,1.6,1.0,Novel,,,,,,1550788395.430856,1550788397.478291,,
219,129,4.0,Memory,2.0,,,,,,,00914960620fa.jpg,,,,,1.8319999999999999,1.0,Novel,,,,,,1550788398.732354,1550788400.731303,,
222,132,4.0,Memory,2.0,,,,,,,00069931230fb.jpg,,,,,1.608,2.0,Novel,,,,,,1550788408.618599,1550788410.61978,,
223,133,4.0,Memory,2.0,,,,,,,sunaeoghzrjarigmwua.jpg,,,,,1.4369999999999998,3.0,Novel,,,,,,1550788411.8869722,1550788413.874769,,
224,134,4.0,Memory,2.0,,,,,,,00743941201fa.jpg,,,,,1.4709999999999999,1.0,Novel,,,,,,1550788415.1544619,1550788417.155775,,
229,139,4.0,Memory,2.0,,,,,,,sunaozisvwfbmlkfhzv.jpg,,,,,1.4169999999999998,1.0,Novel,,,,,,1550788431.622791,1550788433.695983,,
230,140,4.0,Memory,2.0,,,,,,,00119931230fb.jpg,,,,,1.699,1.0,Novel,,,,,,1550788434.994007,1550788436.9971821,,
232,142,4.0,Memory,2.0,,,,,,,sunahgtbwgsmtqeodwh.jpg,,,,,1.7,3.0,Novel,,,,,,1550788441.547441,1550788443.592243,,
233,143,4.0,Memory,2.0,,,,,,,00633940928fa.jpg,,,,,1.808,2.0,Novel,,,,,,1550788444.847245,1550788446.8818939,,
234,144,4.0,Memory,2.0,,,,,,,sunacjnahdmqfnjfwqx.jpg,,,,,1.67,1.0,Novel,,,,,,1550788448.232668,1550788450.3128018,,
238,148,4.0,Memory,2.0,,,,,,,00812941205fa.jpg,,,,,1.2690000000000001,1.0,Novel,,,,,,1550788461.469805,1550788463.457128,,
239,149,4.0,Memory,2.0,,,,,,,sunbmaiocftdtvnzgap.jpg,,,,,1.349,1.0,Novel,,,,,,1550788464.737433,1550788466.719772,,
160,160,4.0,Memory,3.0,,,,,,,sunaeomlfaabhpswasy.jpg,,,,,1.3840000000000001,3.0,Novel,,,,,,1550788669.70383,1550788671.6675699,,
161,161,4.0,Memory,3.0,,,,,,,sunaccdtpgenvcbcbcf.jpg,,,,,0.9640000000000001,2.0,Novel,,,,,,1550788672.872426,1550788674.767477,,
162,162,4.0,Memory,3.0,,,,,,,00965960627fa.jpg,,,,,1.169,2.0,Novel,,,,,,1550788676.01911,1550788677.918977,,
165,165,4.0,Memory,3.0,,,,,,,00744941201fa.jpg,,,,,1.054,3.0,Novel,,,,,,1550788685.3553169,1550788687.256225,,
166,166,4.0,Memory,3.0,,,,,,,00630941031fa.jpg,,,,,1.1320000000000001,2.0,Novel,,,,,,1550788688.473027,1550788690.372999,,
168,168,4.0,Memory,3.0,,,,,,,sunafxokyavhgptyfye.jpg,,,,,1.3330000000000002,2.0,Novel,,,,,,1550788694.674711,1550788696.5782301,,
169,169,4.0,Memory,3.0,,,,,,,sunacuatpqpqhyjhjqk.jpg,,,,,1.018,2.0,Novel,,,,,,1550788697.779619,1550788699.6754491,,
171,171,4.0,Memory,3.0,,,,,,,sunaydywdmvlfddbxbk.jpg,,,,,1.386,1.0,Novel,,,,,,1550788704.015816,1550788705.917693,,
172,172,4.0,Memory,3.0,,,,,,,sunaaehaikpckyjsety.jpg,,,,,1.5030000000000001,1.0,Novel,,,,,,1550788707.11657,1550788709.014358,,
174,174,4.0,Memory,3.0,,,,,,,sunagmhildamktmqjss.jpg,,,,,0.968,1.0,Novel,,,,,,1550788713.317769,1550788715.216691,,
178,178,4.0,Memory,3.0,,,,,,,00060931230fa.jpg,,,,,1.266,2.0,Novel,,,,,,1550788725.752741,1550788727.652117,,
179,179,4.0,Memory,3.0,,,,,,,00931960627fa.jpg,,,,,1.714,2.0,Novel,,,,,,1550788728.852776,1550788730.754766,,
180,180,4.0,Memory,3.0,,,,,,,sunabrlndkruqokhury.jpg,,,,,1.486,3.0,Novel,,,,,,1550788731.974714,1550788733.8910642,,
182,182,4.0,Memory,3.0,,,,,,,sunaptrqvaooxfvktvw.jpg,,,,,1.5859999999999999,1.0,Novel,,,,,,1550788738.206589,1550788740.1095212,,
183,183,4.0,Memory,3.0,,,,,,,sunadakkdovnuzlycvp.jpg,,,,,1.103,2.0,Novel,,,,,,1550788741.324798,1550788743.224108,,
186,186,4.0,Memory,3.0,,,,,,,00532960627fa.jpg,,,,,1.571,1.0,Novel,,,,,,1550788750.647443,1550788752.548407,,
192,192,4.0,Memory,3.0,,,,,,,00571940928fa.jpg,,,,,1.6840000000000002,1.0,Novel,,,,,,1550788769.266473,1550788771.16707,,
194,194,4.0,Memory,3.0,,,,,,,00294940422fb.jpg,,,,,1.919,3.0,Novel,,,,,,1550788775.471586,1550788777.371066,,
198,198,4.0,Memory,3.0,,,,,,,00776941205fa.jpg,,,,,1.486,2.0,Novel,,,,,,1550788787.992846,1550788789.892967,,
199,199,4.0,Memory,3.0,,,,,,,00786941205fa.jpg,,,,,1.848,2.0,Novel,,,,,,1550788791.094152,1550788792.98948,,
160,160,4.0,Memory,3.0,,,,,,,sunaeomlfaabhpswasy.jpg,,,,,1.3840000000000001,3.0,Novel,,,,,,1550788669.70383,1550788671.6675699,,
161,161,4.0,Memory,3.0,,,,,,,sunaccdtpgenvcbcbcf.jpg,,,,,0.9640000000000001,2.0,Novel,,,,,,1550788672.872426,1550788674.767477,,
162,162,4.0,Memory,3.0,,,,,,,00965960627fa.jpg,,,,,1.169,2.0,Novel,,,,,,1550788676.01911,1550788677.918977,,
165,165,4.0,Memory,3.0,,,,,,,00744941201fa.jpg,,,,,1.054,3.0,Novel,,,,,,1550788685.3553169,1550788687.256225,,
166,166,4.0,Memory,3.0,,,,,,,00630941031fa.jpg,,,,,1.1320000000000001,2.0,Novel,,,,,,1550788688.473027,1550788690.372999,,
168,168,4.0,Memory,3.0,,,,,,,sunafxokyavhgptyfye.jpg,,,,,1.3330000000000002,2.0,Novel,,,,,,1550788694.674711,1550788696.5782301,,
169,169,4.0,Memory,3.0,,,,,,,sunacuatpqpqhyjhjqk.jpg,,,,,1.018,2.0,Novel,,,,,,1550788697.779619,1550788699.6754491,,
171,171,4.0,Memory,3.0,,,,,,,sunaydywdmvlfddbxbk.jpg,,,,,1.386,1.0,Novel,,,,,,1550788704.015816,1550788705.917693,,
172,172,4.0,Memory,3.0,,,,,,,sunaaehaikpckyjsety.jpg,,,,,1.5030000000000001,1.0,Novel,,,,,,1550788707.11657,1550788709.014358,,
174,174,4.0,Memory,3.0,,,,,,,sunagmhildamktmqjss.jpg,,,,,0.968,1.0,Novel,,,,,,1550788713.317769,1550788715.216691,,
178,178,4.0,Memory,3.0,,,,,,,00060931230fa.jpg,,,,,1.266,2.0,Novel,,,,,,1550788725.752741,1550788727.652117,,
179,179,4.0,Memory,3.0,,,,,,,00931960627fa.jpg,,,,,1.714,2.0,Novel,,,,,,1550788728.852776,1550788730.754766,,
180,180,4.0,Memory,3.0,,,,,,,sunabrlndkruqokhury.jpg,,,,,1.486,3.0,Novel,,,,,,1550788731.974714,1550788733.8910642,,
182,182,4.0,Memory,3.0,,,,,,,sunaptrqvaooxfvktvw.jpg,,,,,1.5859999999999999,1.0,Novel,,,,,,1550788738.206589,1550788740.1095212,,
183,183,4.0,Memory,3.0,,,,,,,sunadakkdovnuzlycvp.jpg,,,,,1.103,2.0,Novel,,,,,,1550788741.324798,1550788743.224108,,
186,186,4.0,Memory,3.0,,,,,,,00532960627fa.jpg,,,,,1.571,1.0,Novel,,,,,,1550788750.647443,1550788752.548407,,
192,192,4.0,Memory,3.0,,,,,,,00571940928fa.jpg,,,,,1.6840000000000002,1.0,Novel,,,,,,1550788769.266473,1550788771.16707,,
194,194,4.0,Memory,3.0,,,,,,,00294940422fb.jpg,,,,,1.919,3.0,Novel,,,,,,1550788775.471586,1550788777.371066,,
198,198,4.0,Memory,3.0,,,,,,,00776941205fa.jpg,,,,,1.486,2.0,Novel,,,,,,1550788787.992846,1550788789.892967,,
199,199,4.0,Memory,3.0,,,,,,,00786941205fa.jpg,,,,,1.848,2.0,Novel,,,,,,1550788791.094152,1550788792.98948,,
160,160,4.0,Memory,3.0,,,,,,,sunaeomlfaabhpswasy.jpg,,,,,1.3840000000000001,3.0,Novel,,,,,,1550788669.70383,1550788671.6675699,,
161,161,4.0,Memory,3.0,,,,,,,sunaccdtpgenvcbcbcf.jpg,,,,,0.9640000000000001,2.0,Novel,,,,,,1550788672.872426,1550788674.767477,,
162,162,4.0,Memory,3.0,,,,,,,00965960627fa.jpg,,,,,1.169,2.0,Novel,,,,,,1550788676.01911,1550788677.918977,,
165,165,4.0,Memory,3.0,,,,,,,00744941201fa.jpg,,,,,1.054,3.0,Novel,,,,,,1550788685.3553169,1550788687.256225,,
166,166,4.0,Memory,3.0,,,,,,,00630941031fa.jpg,,,,,1.1320000000000001,2.0,Novel,,,,,,1550788688.473027,1550788690.372999,,
168,168,4.0,Memory,3.0,,,,,,,sunafxokyavhgptyfye.jpg,,,,,1.3330000000000002,2.0,Novel,,,,,,1550788694.674711,1550788696.5782301,,
169,169,4.0,Memory,3.0,,,,,,,sunacuatpqpqhyjhjqk.jpg,,,,,1.018,2.0,Novel,,,,,,1550788697.779619,1550788699.6754491,,
171,171,4.0,Memory,3.0,,,,,,,sunaydywdmvlfddbxbk.jpg,,,,,1.386,1.0,Novel,,,,,,1550788704.015816,1550788705.917693,,
172,172,4.0,Memory,3.0,,,,,,,sunaaehaikpckyjsety.jpg,,,,,1.5030000000000001,1.0,Novel,,,,,,1550788707.11657,1550788709.014358,,
174,174,4.0,Memory,3.0,,,,,,,sunagmhildamktmqjss.jpg,,,,,0.968,1.0,Novel,,,,,,1550788713.317769,1550788715.216691,,
178,178,4.0,Memory,3.0,,,,,,,00060931230fa.jpg,,,,,1.266,2.0,Novel,,,,,,1550788725.752741,1550788727.652117,,
179,179,4.0,Memory,3.0,,,,,,,00931960627fa.jpg,,,,,1.714,2.0,Novel,,,,,,1550788728.852776,1550788730.754766,,
180,180,4.0,Memory,3.0,,,,,,,sunabrlndkruqokhury.jpg,,,,,1.486,3.0,Novel,,,,,,1550788731.974714,1550788733.8910642,,
182,182,4.0,Memory,3.0,,,,,,,sunaptrqvaooxfvktvw.jpg,,,,,1.5859999999999999,1.0,Novel,,,,,,1550788738.206589,1550788740.1095212,,
183,183,4.0,Memory,3.0,,,,,,,sunadakkdovnuzlycvp.jpg,,,,,1.103,2.0,Novel,,,,,,1550788741.324798,1550788743.224108,,
186,186,4.0,Memory,3.0,,,,,,,00532960627fa.jpg,,,,,1.571,1.0,Novel,,,,,,1550788750.647443,1550788752.548407,,
192,192,4.0,Memory,3.0,,,,,,,00571940928fa.jpg,,,,,1.6840000000000002,1.0,Novel,,,,,,1550788769.266473,1550788771.16707,,
194,194,4.0,Memory,3.0,,,,,,,00294940422fb.jpg,,,,,1.919,3.0,Novel,,,,,,1550788775.471586,1550788777.371066,,
198,198,4.0,Memory,3.0,,,,,,,00776941205fa.jpg,,,,,1.486,2.0,Novel,,,,,,1550788787.992846,1550788789.892967,,
199,199,4.0,Memory,3.0,,,,,,,00786941205fa.jpg,,,,,1.848,2.0,Novel,,,,,,1550788791.094152,1550788792.98948,,
160,160,4.0,Memory,3.0,,,,,,,sunaeomlfaabhpswasy.jpg,,,,,1.3840000000000001,3.0,Novel,,,,,,1550788669.70383,1550788671.6675699,,
161,161,4.0,Memory,3.0,,,,,,,sunaccdtpgenvcbcbcf.jpg,,,,,0.9640000000000001,2.0,Novel,,,,,,1550788672.872426,1550788674.767477,,
162,162,4.0,Memory,3.0,,,,,,,00965960627fa.jpg,,,,,1.169,2.0,Novel,,,,,,1550788676.01911,1550788677.918977,,
165,165,4.0,Memory,3.0,,,,,,,00744941201fa.jpg,,,,,1.054,3.0,Novel,,,,,,1550788685.3553169,1550788687.256225,,
166,166,4.0,Memory,3.0,,,,,,,00630941031fa.jpg,,,,,1.1320000000000001,2.0,Novel,,,,,,1550788688.473027,1550788690.372999,,
168,168,4.0,Memory,3.0,,,,,,,sunafxokyavhgptyfye.jpg,,,,,1.3330000000000002,2.0,Novel,,,,,,1550788694.674711,1550788696.5782301,,
169,169,4.0,Memory,3.0,,,,,,,sunacuatpqpqhyjhjqk.jpg,,,,,1.018,2.0,Novel,,,,,,1550788697.779619,1550788699.6754491,,
171,171,4.0,Memory,3.0,,,,,,,sunaydywdmvlfddbxbk.jpg,,,,,1.386,1.0,Novel,,,,,,1550788704.015816,1550788705.917693,,
172,172,4.0,Memory,3.0,,,,,,,sunaaehaikpckyjsety.jpg,,,,,1.5030000000000001,1.0,Novel,,,,,,1550788707.11657,1550788709.014358,,
174,174,4.0,Memory,3.0,,,,,,,sunagmhildamktmqjss.jpg,,,,,0.968,1.0,Novel,,,,,,1550788713.317769,1550788715.216691,,
178,178,4.0,Memory,3.0,,,,,,,00060931230fa.jpg,,,,,1.266,2.0,Novel,,,,,,1550788725.752741,1550788727.652117,,
179,179,4.0,Memory,3.0,,,,,,,00931960627fa.jpg,,,,,1.714,2.0,Novel,,,,,,1550788728.852776,1550788730.754766,,
180,180,4.0,Memory,3.0,,,,,,,sunabrlndkruqokhury.jpg,,,,,1.486,3.0,Novel,,,,,,1550788731.974714,1550788733.8910642,,
182,182,4.0,Memory,3.0,,,,,,,sunaptrqvaooxfvktvw.jpg,,,,,1.5859999999999999,1.0,Novel,,,,,,1550788738.206589,1550788740.1095212,,
183,183,4.0,Memory,3.0,,,,,,,sunadakkdovnuzlycvp.jpg,,,,,1.103,2.0,Novel,,,,,,1550788741.324798,1550788743.224108,,
186,186,4.0,Memory,3.0,,,,,,,00532960627fa.jpg,,,,,1.571,1.0,Novel,,,,,,1550788750.647443,1550788752.548407,,
192,192,4.0,Memory,3.0,,,,,,,00571940928fa.jpg,,,,,1.6840000000000002,1.0,Novel,,,,,,1550788769.266473,1550788771.16707,,
194,194,4.0,Memory,3.0,,,,,,,00294940422fb.jpg,,,,,1.919,3.0,Novel,,,,,,1550788775.471586,1550788777.371066,,
198,198,4.0,Memory,3.0,,,,,,,00776941205fa.jpg,,,,,1.486,2.0,Novel,,,,,,1550788787.992846,1550788789.892967,,
199,199,4.0,Memory,3.0,,,,,,,00786941205fa.jpg,,,,,1.848,2.0,Novel,,,,,,1550788791.094152,1550788792.98948,,
160,160,4.0,Memory,3.0,,,,,,,sunaeomlfaabhpswasy.jpg,,,,,1.3840000000000001,3.0,Novel,,,,,,1550788669.70383,1550788671.6675699,,
161,161,4.0,Memory,3.0,,,,,,,sunaccdtpgenvcbcbcf.jpg,,,,,0.9640000000000001,2.0,Novel,,,,,,1550788672.872426,1550788674.767477,,
162,162,4.0,Memory,3.0,,,,,,,00965960627fa.jpg,,,,,1.169,2.0,Novel,,,,,,1550788676.01911,1550788677.918977,,
165,165,4.0,Memory,3.0,,,,,,,00744941201fa.jpg,,,,,1.054,3.0,Novel,,,,,,1550788685.3553169,1550788687.256225,,
166,166,4.0,Memory,3.0,,,,,,,00630941031fa.jpg,,,,,1.1320000000000001,2.0,Novel,,,,,,1550788688.473027,1550788690.372999,,
168,168,4.0,Memory,3.0,,,,,,,sunafxokyavhgptyfye.jpg,,,,,1.3330000000000002,2.0,Novel,,,,,,1550788694.674711,1550788696.5782301,,
169,169,4.0,Memory,3.0,,,,,,,sunacuatpqpqhyjhjqk.jpg,,,,,1.018,2.0,Novel,,,,,,1550788697.779619,1550788699.6754491,,
171,171,4.0,Memory,3.0,,,,,,,sunaydywdmvlfddbxbk.jpg,,,,,1.386,1.0,Novel,,,,,,1550788704.015816,1550788705.917693,,
172,172,4.0,Memory,3.0,,,,,,,sunaaehaikpckyjsety.jpg,,,,,1.5030000000000001,1.0,Novel,,,,,,1550788707.11657,1550788709.014358,,
174,174,4.0,Memory,3.0,,,,,,,sunagmhildamktmqjss.jpg,,,,,0.968,1.0,Novel,,,,,,1550788713.317769,1550788715.216691,,
178,178,4.0,Memory,3.0,,,,,,,00060931230fa.jpg,,,,,1.266,2.0,Novel,,,,,,1550788725.752741,1550788727.652117,,
179,179,4.0,Memory,3.0,,,,,,,00931960627fa.jpg,,,,,1.714,2.0,Novel,,,,,,1550788728.852776,1550788730.754766,,
180,180,4.0,Memory,3.0,,,,,,,sunabrlndkruqokhury.jpg,,,,,1.486,3.0,Novel,,,,,,1550788731.974714,1550788733.8910642,,
182,182,4.0,Memory,3.0,,,,,,,sunaptrqvaooxfvktvw.jpg,,,,,1.5859999999999999,1.0,Novel,,,,,,1550788738.206589,1550788740.1095212,,
183,183,4.0,Memory,3.0,,,,,,,sunadakkdovnuzlycvp.jpg,,,,,1.103,2.0,Novel,,,,,,1550788741.324798,1550788743.224108,,
186,186,4.0,Memory,3.0,,,,,,,00532960627fa.jpg,,,,,1.571,1.0,Novel,,,,,,1550788750.647443,1550788752.548407,,
192,192,4.0,Memory,3.0,,,,,,,00571940928fa.jpg,,,,,1.6840000000000002,1.0,Novel,,,,,,1550788769.266473,1550788771.16707,,
194,194,4.0,Memory,3.0,,,,,,,00294940422fb.jpg,,,,,1.919,3.0,Novel,,,,,,1550788775.471586,1550788777.371066,,
198,198,4.0,Memory,3.0,,,,,,,00776941205fa.jpg,,,,,1.486,2.0,Novel,,,,,,1550788787.992846,1550788789.892967,,
199,199,4.0,Memory,3.0,,,,,,,00786941205fa.jpg,,,,,1.848,2.0,Novel,,,,,,1550788791.094152,1550788792.98948,,
160,160,4.0,Memory,3.0,,,,,,,sunaeomlfaabhpswasy.jpg,,,,,1.3840000000000001,3.0,Novel,,,,,,1550788669.70383,1550788671.6675699,,
161,161,4.0,Memory,3.0,,,,,,,sunaccdtpgenvcbcbcf.jpg,,,,,0.9640000000000001,2.0,Novel,,,,,,1550788672.872426,1550788674.767477,,
162,162,4.0,Memory,3.0,,,,,,,00965960627fa.jpg,,,,,1.169,2.0,Novel,,,,,,1550788676.01911,1550788677.918977,,
165,165,4.0,Memory,3.0,,,,,,,00744941201fa.jpg,,,,,1.054,3.0,Novel,,,,,,1550788685.3553169,1550788687.256225,,
166,166,4.0,Memory,3.0,,,,,,,00630941031fa.jpg,,,,,1.1320000000000001,2.0,Novel,,,,,,1550788688.473027,1550788690.372999,,
168,168,4.0,Memory,3.0,,,,,,,sunafxokyavhgptyfye.jpg,,,,,1.3330000000000002,2.0,Novel,,,,,,1550788694.674711,1550788696.5782301,,
169,169,4.0,Memory,3.0,,,,,,,sunacuatpqpqhyjhjqk.jpg,,,,,1.018,2.0,Novel,,,,,,1550788697.779619,1550788699.6754491,,
171,171,4.0,Memory,3.0,,,,,,,sunaydywdmvlfddbxbk.jpg,,,,,1.386,1.0,Novel,,,,,,1550788704.015816,1550788705.917693,,
172,172,4.0,Memory,3.0,,,,,,,sunaaehaikpckyjsety.jpg,,,,,1.5030000000000001,1.0,Novel,,,,,,1550788707.11657,1550788709.014358,,
174,174,4.0,Memory,3.0,,,,,,,sunagmhildamktmqjss.jpg,,,,,0.968,1.0,Novel,,,,,,1550788713.317769,1550788715.216691,,
178,178,4.0,Memory,3.0,,,,,,,00060931230fa.jpg,,,,,1.266,2.0,Novel,,,,,,1550788725.752741,1550788727.652117,,
179,179,4.0,Memory,3.0,,,,,,,00931960627fa.jpg,,,,,1.714,2.0,Novel,,,,,,1550788728.852776,1550788730.754766,,
180,180,4.0,Memory,3.0,,,,,,,sunabrlndkruqokhury.jpg,,,,,1.486,3.0,Novel,,,,,,1550788731.974714,1550788733.8910642,,
182,182,4.0,Memory,3.0,,,,,,,sunaptrqvaooxfvktvw.jpg,,,,,1.5859999999999999,1.0,Novel,,,,,,1550788738.206589,1550788740.1095212,,
183,183,4.0,Memory,3.0,,,,,,,sunadakkdovnuzlycvp.jpg,,,,,1.103,2.0,Novel,,,,,,1550788741.324798,1550788743.224108,,
186,186,4.0,Memory,3.0,,,,,,,00532960627fa.jpg,,,,,1.571,1.0,Novel,,,,,,1550788750.647443,1550788752.548407,,
192,192,4.0,Memory,3.0,,,,,,,00571940928fa.jpg,,,,,1.6840000000000002,1.0,Novel,,,,,,1550788769.266473,1550788771.16707,,
194,194,4.0,Memory,3.0,,,,,,,00294940422fb.jpg,,,,,1.919,3.0,Novel,,,,,,1550788775.471586,1550788777.371066,,
198,198,4.0,Memory,3.0,,,,,,,00776941205fa.jpg,,,,,1.486,2.0,Novel,,,,,,1550788787.992846,1550788789.892967,,
199,199,4.0,Memory,3.0,,,,,,,00786941205fa.jpg,,,,,1.848,2.0,Novel,,,,,,1550788791.094152,1550788792.98948,,
362,212,4.0,Memory,4.0,,,,,,,00825940307fa.jpg,,,,,1.465,1.0,Novel,,,,,,1550789068.079647,1550789070.049283,,
365,215,4.0,Memory,4.0,,,,,,,00772941201fa.jpg,,,,,1.932,1.0,Novel,,,,,,1550789077.748844,1550789079.715618,,
367,217,4.0,Memory,4.0,,,,,,,00982960627fa.jpg,,,,,1.436,1.0,Novel,,,,,,1550789084.268121,1550789086.23909,,
368,218,4.0,Memory,4.0,,,,,,,sunaivdjruhkrfywfed.jpg,,,,,1.499,1.0,Novel,,,,,,1550789087.486272,1550789089.452464,,
371,221,4.0,Memory,4.0,,,,,,,sunahrltmuwbiehihpe.jpg,,,,,0.9490000000000001,4.0,Novel,,,,,,1550789097.160406,1550789099.123818,,
372,222,4.0,Memory,4.0,,,,,,,00847940307fa.jpg,,,,,1.2830000000000001,2.0,Novel,,,,,,1550789100.376952,1550789102.3421938,,
374,224,4.0,Memory,4.0,,,,,,,00936960627fa.jpg,,,,,1.715,2.0,Novel,,,,,,1550789106.8098269,1550789108.779402,,
376,226,4.0,Memory,4.0,,,,,,,sunakgbnzxmfohgehnu.jpg,,,,,1.036,2.0,Novel,,,,,,1550789113.248281,1550789115.211842,,
377,227,4.0,Memory,4.0,,,,,,,sunafpfpiiujzoesnqg.jpg,,,,,1.7480000000000002,1.0,Novel,,,,,,1550789116.466627,1550789118.430043,,
380,230,4.0,Memory,4.0,,,,,,,00101931230fb.jpg,,,,,1.817,2.0,Novel,,,,,,1550789126.115386,1550789128.081619,,
382,232,4.0,Memory,4.0,,,,,,,00754941201fa.jpg,,,,,1.569,1.0,Novel,,,,,,1550789132.58838,1550789134.550867,,
383,233,4.0,Memory,4.0,,,,,,,sunaajqmsaavkmgbsth.jpg,,,,,1.8659999999999999,3.0,Novel,,,,,,1550789135.805568,1550789137.769594,,
384,234,4.0,Memory,4.0,,,,,,,00777941205fa.jpg,,,,,1.6869999999999998,2.0,Novel,,,,,,1550789139.023566,1550789140.986729,,
385,235,4.0,Memory,4.0,,,,,,,sunbesrwkdsffeogeqq.jpg,,,,,1.484,2.0,Novel,,,,,,1550789142.236443,1550789144.2098632,,
386,236,4.0,Memory,4.0,,,,,,,sunaqgjuuwvdcyiccjt.jpg,,,,,1.6030000000000002,2.0,Novel,,,,,,1550789145.470593,1550789147.460294,,
388,238,4.0,Memory,4.0,,,,,,,sunasnqkkyhilqkxiqm.jpg,,,,,1.499,2.0,Novel,,,,,,1550789151.927766,1550789153.890162,,
389,239,4.0,Memory,4.0,,,,,,,sunagcinxkccdtrjmlv.jpg,,,,,1.25,1.0,Novel,,,,,,1550789155.14488,1550789157.10826,,
392,242,4.0,Memory,4.0,,,,,,,sunaffgsyyvoqdlkmnk.jpg,,,,,1.204,3.0,Novel,,,,,,1550789164.81034,1550789166.7786882,,
393,243,4.0,Memory,4.0,,,,,,,00878960530fa.jpg,,,,,1.147,2.0,Novel,,,,,,1550789168.028317,1550789169.996635,,
398,248,4.0,Memory,4.0,,,,,,,00949960627fb.jpg,,,,,0.0,,Novel,,,,,,1550789184.1541991,1550789186.118048,,
362,212,4.0,Memory,4.0,,,,,,,00825940307fa.jpg,,,,,1.465,1.0,Novel,,,,,,1550789068.079647,1550789070.049283,,
365,215,4.0,Memory,4.0,,,,,,,00772941201fa.jpg,,,,,1.932,1.0,Novel,,,,,,1550789077.748844,1550789079.715618,,
367,217,4.0,Memory,4.0,,,,,,,00982960627fa.jpg,,,,,1.436,1.0,Novel,,,,,,1550789084.268121,1550789086.23909,,
368,218,4.0,Memory,4.0,,,,,,,sunaivdjruhkrfywfed.jpg,,,,,1.499,1.0,Novel,,,,,,1550789087.486272,1550789089.452464,,
371,221,4.0,Memory,4.0,,,,,,,sunahrltmuwbiehihpe.jpg,,,,,0.9490000000000001,4.0,Novel,,,,,,1550789097.160406,1550789099.123818,,
372,222,4.0,Memory,4.0,,,,,,,00847940307fa.jpg,,,,,1.2830000000000001,2.0,Novel,,,,,,1550789100.376952,1550789102.3421938,,
374,224,4.0,Memory,4.0,,,,,,,00936960627fa.jpg,,,,,1.715,2.0,Novel,,,,,,1550789106.8098269,1550789108.779402,,
376,226,4.0,Memory,4.0,,,,,,,sunakgbnzxmfohgehnu.jpg,,,,,1.036,2.0,Novel,,,,,,1550789113.248281,1550789115.211842,,
377,227,4.0,Memory,4.0,,,,,,,sunafpfpiiujzoesnqg.jpg,,,,,1.7480000000000002,1.0,Novel,,,,,,1550789116.466627,1550789118.430043,,
380,230,4.0,Memory,4.0,,,,,,,00101931230fb.jpg,,,,,1.817,2.0,Novel,,,,,,1550789126.115386,1550789128.081619,,
382,232,4.0,Memory,4.0,,,,,,,00754941201fa.jpg,,,,,1.569,1.0,Novel,,,,,,1550789132.58838,1550789134.550867,,
383,233,4.0,Memory,4.0,,,,,,,sunaajqmsaavkmgbsth.jpg,,,,,1.8659999999999999,3.0,Novel,,,,,,1550789135.805568,1550789137.769594,,
384,234,4.0,Memory,4.0,,,,,,,00777941205fa.jpg,,,,,1.6869999999999998,2.0,Novel,,,,,,1550789139.023566,1550789140.986729,,
385,235,4.0,Memory,4.0,,,,,,,sunbesrwkdsffeogeqq.jpg,,,,,1.484,2.0,Novel,,,,,,1550789142.236443,1550789144.2098632,,
386,236,4.0,Memory,4.0,,,,,,,sunaqgjuuwvdcyiccjt.jpg,,,,,1.6030000000000002,2.0,Novel,,,,,,1550789145.470593,1550789147.460294,,
388,238,4.0,Memory,4.0,,,,,,,sunasnqkkyhilqkxiqm.jpg,,,,,1.499,2.0,Novel,,,,,,1550789151.927766,1550789153.890162,,
389,239,4.0,Memory,4.0,,,,,,,sunagcinxkccdtrjmlv.jpg,,,,,1.25,1.0,Novel,,,,,,1550789155.14488,1550789157.10826,,
392,242,4.0,Memory,4.0,,,,,,,sunaffgsyyvoqdlkmnk.jpg,,,,,1.204,3.0,Novel,,,,,,1550789164.81034,1550789166.7786882,,
393,243,4.0,Memory,4.0,,,,,,,00878960530fa.jpg,,,,,1.147,2.0,Novel,,,,,,1550789168.028317,1550789169.996635,,
398,248,4.0,Memory,4.0,,,,,,,00949960627fb.jpg,,,,,0.0,,Novel,,,,,,1550789184.1541991,1550789186.118048,,
362,212,4.0,Memory,4.0,,,,,,,00825940307fa.jpg,,,,,1.465,1.0,Novel,,,,,,1550789068.079647,1550789070.049283,,
365,215,4.0,Memory,4.0,,,,,,,00772941201fa.jpg,,,,,1.932,1.0,Novel,,,,,,1550789077.748844,1550789079.715618,,
367,217,4.0,Memory,4.0,,,,,,,00982960627fa.jpg,,,,,1.436,1.0,Novel,,,,,,1550789084.268121,1550789086.23909,,
368,218,4.0,Memory,4.0,,,,,,,sunaivdjruhkrfywfed.jpg,,,,,1.499,1.0,Novel,,,,,,1550789087.486272,1550789089.452464,,
371,221,4.0,Memory,4.0,,,,,,,sunahrltmuwbiehihpe.jpg,,,,,0.9490000000000001,4.0,Novel,,,,,,1550789097.160406,1550789099.123818,,
372,222,4.0,Memory,4.0,,,,,,,00847940307fa.jpg,,,,,1.2830000000000001,2.0,Novel,,,,,,1550789100.376952,1550789102.3421938,,
374,224,4.0,Memory,4.0,,,,,,,00936960627fa.jpg,,,,,1.715,2.0,Novel,,,,,,1550789106.8098269,1550789108.779402,,
376,226,4.0,Memory,4.0,,,,,,,sunakgbnzxmfohgehnu.jpg,,,,,1.036,2.0,Novel,,,,,,1550789113.248281,1550789115.211842,,
377,227,4.0,Memory,4.0,,,,,,,sunafpfpiiujzoesnqg.jpg,,,,,1.7480000000000002,1.0,Novel,,,,,,1550789116.466627,1550789118.430043,,
380,230,4.0,Memory,4.0,,,,,,,00101931230fb.jpg,,,,,1.817,2.0,Novel,,,,,,1550789126.115386,1550789128.081619,,
382,232,4.0,Memory,4.0,,,,,,,00754941201fa.jpg,,,,,1.569,1.0,Novel,,,,,,1550789132.58838,1550789134.550867,,
383,233,4.0,Memory,4.0,,,,,,,sunaajqmsaavkmgbsth.jpg,,,,,1.8659999999999999,3.0,Novel,,,,,,1550789135.805568,1550789137.769594,,
384,234,4.0,Memory,4.0,,,,,,,00777941205fa.jpg,,,,,1.6869999999999998,2.0,Novel,,,,,,1550789139.023566,1550789140.986729,,
385,235,4.0,Memory,4.0,,,,,,,sunbesrwkdsffeogeqq.jpg,,,,,1.484,2.0,Novel,,,,,,1550789142.236443,1550789144.2098632,,
386,236,4.0,Memory,4.0,,,,,,,sunaqgjuuwvdcyiccjt.jpg,,,,,1.6030000000000002,2.0,Novel,,,,,,1550789145.470593,1550789147.460294,,
388,238,4.0,Memory,4.0,,,,,,,sunasnqkkyhilqkxiqm.jpg,,,,,1.499,2.0,Novel,,,,,,1550789151.927766,1550789153.890162,,
389,239,4.0,Memory,4.0,,,,,,,sunagcinxkccdtrjmlv.jpg,,,,,1.25,1.0,Novel,,,,,,1550789155.14488,1550789157.10826,,
392,242,4.0,Memory,4.0,,,,,,,sunaffgsyyvoqdlkmnk.jpg,,,,,1.204,3.0,Novel,,,,,,1550789164.81034,1550789166.7786882,,
393,243,4.0,Memory,4.0,,,,,,,00878960530fa.jpg,,,,,1.147,2.0,Novel,,,,,,1550789168.028317,1550789169.996635,,
398,248,4.0,Memory,4.0,,,,,,,00949960627fb.jpg,,,,,0.0,,Novel,,,,,,1550789184.1541991,1550789186.118048,,
322,262,4.0,Memory,5.0,,,,,,,sunaflojskatpeqyzqp.jpg,,,,,1.8330000000000002,3.0,Novel,,,,,,1550789356.927794,1550789358.892427,,
323,263,4.0,Memory,5.0,,,,,,,sunaalhlvzmjmitybdn.jpg,,,,,1.821,3.0,Novel,,,,,,1550789360.1417642,1550789362.10855,,
324,264,4.0,Memory,5.0,,,,,,,00969960627fa.jpg,,,,,1.1540000000000001,4.0,Novel,,,,,,1550789363.363647,1550789365.329905,,
325,265,4.0,Memory,5.0,,,,,,,00929960627fa.jpg,,,,,0.9490000000000001,1.0,Novel,,,,,,1550789366.581767,1550789368.543228,,
326,266,4.0,Memory,5.0,,,,,,,00727941205fa.jpg,,,,,1.204,1.0,Novel,,,,,,1550789369.797212,1550789371.7615972,,
