,Unnamed: 0.1,Subject,Trial Type,Run,Cued Composite,Uncued Composite,Cued Face,Cued Place,Uncued Face,Uncued Place,Memory Image,Category,Cued Side,Cued Category,Attention Reaction Time (s),Familiarity Reaction Time (s),Familiarity Rating,Attention Level,Cue Validity,Post Invalid Cue,Pre Invalid Cue,Attention Button,Rating History,Stimulus Onset,Stimulus End,Attention Probe,Trial,fix,state,time,timestamp,xRaw_righteye,yRaw_righteye,xRaw_lefteye,yRaw_lefteye,av_x_coord,av_y_coord
0,150,8.0,Presentation,3.0,00532960627fa_sunaccdtpgenvcbcbcf.jpg,00288940422fa_sunabppokiyglaxpcha.jpg,00532960627fa.jpg,sunaccdtpgenvcbcbcf.jpg,00288940422fa.jpg,sunabppokiyglaxpcha.jpg,,Face,>,Face,1.025055170059204,,,,1.0,,,1.0,,1551380629.031952,1551380632.078045,x,0.0,0.9390243902439024,7.0,897437643.5853659,1551380631.012195,1050.3439158536582,709.2727170731708,957.8845878048783,811.4643890243902,29.319351689155404,22.17741613058943
1,151,8.0,Presentation,3.0,00787960620fa_sunagoufulkpsxrmklt.jpg,00857940307fa_sunaiwfobocrruqznsv.jpg,00787960620fa.jpg,sunagoufulkpsxrmklt.jpg,00857940307fa.jpg,sunaiwfobocrruqznsv.jpg,,Face,<,Face,1.840541124343872,,,,1.0,,,3.0,,1551380636.901223,1551380639.890176,o,1.0,1.0,7.0,897444513.8412699,1551380637.857143,1057.1649285714284,734.1835095238097,963.396473015873,816.5775317460315,29.499407181377112,22.61526518518518
2,152,8.0,Presentation,3.0,00130931230fa_sunaamvxnvouicstkjb.jpg,00568940928fa_sunacsdhbbsybcyxnel.jpg,00130931230fa.jpg,sunaamvxnvouicstkjb.jpg,00568940928fa.jpg,sunacsdhbbsybcyxnel.jpg,,Face,<,Face,1.0865249633789062,,,,1.0,,,1.0,,1551380645.504407,1551380648.4931462,x,2.0,1.0,7.0,897453649.8395061,1551380647.0,1078.7552456790124,725.9934049382715,932.8915197530865,821.6038,29.369256975790897,22.569125905349797
3,153,8.0,Presentation,3.0,00967960627fa_sunbaejotfklekvpxcz.jpg,00929960627fa_sunaprnrbmgkomdbchr.jpg,00967960627fa.jpg,sunbaejotfklekvpxcz.jpg,00929960627fa.jpg,sunaprnrbmgkomdbchr.jpg,,Face,>,Place,0.9232819080352784,,,,1.0,,,1.0,,1551380653.353514,1551380656.336956,x,3.0,0.8717948717948718,7.0,897461697.051282,1551380655.0384614,1094.221956410257,751.6313846153847,956.4481166666665,835.2436743589743,29.938982023925792,23.141927943376064
4,154,8.0,Presentation,3.0,00062931230fb_sunaaelotvjgibjtjhs.jpg,00663941121fa_sunadnjjzohjhbohlwq.jpg,00062931230fb.jpg,sunaaelotvjgibjtjhs.jpg,00663941121fa.jpg,sunadnjjzohjhbohlwq.jpg,,Face,<,Place,1.0681018829345703,,,,1.0,,,3.0,,1551380661.071869,1551380664.056226,o,4.0,1.0,7.0,897469628.5316455,1551380663.0,1099.04405443038,733.3653329113922,941.6554379746837,816.2505772151898,29.79341544087471,22.598565356012656
5,155,8.0,Presentation,3.0,00829940307fa_sunahwgbqkqcrwprgvh.jpg,00108960530fa_sunaajtnvzzpsjdzres.jpg,00829940307fa.jpg,sunahwgbqkqcrwprgvh.jpg,00108960530fa.jpg,sunaajtnvzzpsjdzres.jpg,,Face,>,Face,0.8728280067443848,,,,1.0,,,1.0,,1551380668.9282384,1551380671.9086778,x,5.0,0.6911764705882353,7.0,897476687.3382353,1551380670.0441177,1151.735992647059,746.2891705882356,893.6822676470588,828.1921073529409,29.86230760878619,22.961185303308824
6,156,8.0,Presentation,3.0,00893960530Fa_sunaloffvbvysigxent.jpg,00071941031fa_sunaaexqbtdswxrqjvz.jpg,00893960530Fa.jpg,sunaloffvbvysigxent.jpg,00071941031fa.jpg,sunaaexqbtdswxrqjvz.jpg,,Face,<,Place,0.6679098606109619,,,,1.0,,,3.0,,1551380676.592798,1551380679.5837688,o,6.0,0.7014925373134329,7.0,897484716.6716418,1551380678.074627,1157.0976835820898,735.4410194029851,931.5770761194027,798.9433373134327,30.493835603063783,22.376438535447765
7,157,8.0,Presentation,3.0,00131931230fb_sunaangbuylfvckqqoo.jpg,00126931230fb_sunaamdjwemxpmmtypi.jpg,00131931230fb.jpg,sunaangbuylfvckqqoo.jpg,00126931230fb.jpg,sunaamdjwemxpmmtypi.jpg,,Face,>,Face,1.918532133102417,,,,1.0,,,3.0,,1551380684.050168,1551380687.029362,o,7.0,1.0,7.0,897492839.4411764,1551380686.1617646,1104.458964705882,726.7588602941178,932.6043,811.5252029411763,29.7403279368681,22.43330925551471
8,158,8.0,Presentation,3.0,00096931230fa_sunaaiqiqcggrskoqgy.jpg,00953960627fa_sunatstrpjxhvtbaczf.jpg,00096931230fa.jpg,sunaaiqiqcggrskoqgy.jpg,00953960627fa.jpg,sunatstrpjxhvtbaczf.jpg,,Face,<,Place,1.8258039951324463,,,,1.0,,,1.0,,1551380692.71953,1551380695.703554,x,8.0,0.8939393939393939,7.0,897500828.3333334,1551380694.1666667,1089.2010409090908,746.5598681818179,922.6253954545455,799.2355227272728,29.371880101207385,22.542849450757576
9,159,8.0,Presentation,3.0,00960960627fa_sunawksfbacycuhbrsc.jpg,00952960627fa_sunathzzbcwjykldrem.jpg,00960960627fa.jpg,sunawksfbacycuhbrsc.jpg,00952960627fa.jpg,sunathzzbcwjykldrem.jpg,,Face,>,Place,1.3931658267974854,,,,1.0,,,3.0,,1551380701.317678,1551380704.307806,o,9.0,1.0,7.0,897509624.4050633,1551380702.9746835,1091.5282556962025,714.6802405063289,921.7017848101267,798.825216455696,29.392372173407832,22.071954580696197
10,100,8.0,Presentation,2.0,00805941205fa_sunagwzdbtlixdhgolm.jpg,00935960627fa_sunaqbmgkgqucajzrkp.jpg,00805941205fa.jpg,sunagwzdbtlixdhgolm.jpg,00935960627fa.jpg,sunaqbmgkgqucajzrkp.jpg,,Face,<,Face,0.9502880573272704,,,,1.0,,,1.0,,1551380245.323469,1551380248.371041,x,0.0,0.3684210526315789,7.0,897054227.2894737,1551380247.5,1093.250439473684,740.6906236842107,912.8325605263157,667.4268210526317,29.28802817382812,20.535046069078945
11,101,8.0,Presentation,2.0,00793941205fa_sunagtjwilqjvxohypn.jpg,00921960627fa_sunapqkpqdfvxlbqwyo.jpg,00793941205fa.jpg,sunagtjwilqjvxohypn.jpg,00921960627fa.jpg,sunapqkpqdfvxlbqwyo.jpg,,Face,>,Place,1.288696050643921,,,,1.0,,,1.0,,1551380253.1225278,1551380256.10608,x,1.0,0.7341772151898734,7.0,897061627.4556962,1551380254.987342,1134.9872405063288,743.3174101265824,932.0622240506328,675.2630050632912,30.17811474133454,20.687631054852318
12,102,8.0,Presentation,2.0,00869940307fa_sunajoveqhiprwqgoco.jpg,00266940128fb_sunabkngeblodihjvbk.jpg,00869940307fa.jpg,sunajoveqhiprwqgoco.jpg,00266940128fb.jpg,sunabkngeblodihjvbk.jpg,,Face,>,Place,1.2975201606750488,,,,0.0,,,3.0,,1551380261.2117221,1551380264.195034,o,2.0,0.8734177215189873,7.0,897069641.0253165,1551380263.0,1097.8037531645566,731.8525632911393,947.6684594936711,668.383659493671,29.86309529222706,20.420111582278476
13,103,8.0,Presentation,2.0,00636941031fa_sunaddtdkycxbqlpfqa.jpg,00773941201fa_sunafvcflzhlqloapyo.jpg,00636941031fa.jpg,sunaddtdkycxbqlpfqa.jpg,00773941201fa.jpg,sunafvcflzhlqloapyo.jpg,,Face,>,Place,0.7640919685363771,,,,1.0,,,1.0,,1551380269.2606616,1551380272.249003,x,3.0,0.8947368421052632,7.0,897077556.6578947,1551380270.9342105,1098.6629407894732,739.6166460526315,930.2251263157895,673.1808065789472,29.620973245335623,20.603296184210524
14,104,8.0,Presentation,2.0,00909960530_sunaobtizabegtwfwul.jpg,00969960627fa_sunbaoizrfijvhpnnjn.jpg,00909960530.jpg,sunaobtizabegtwfwul.jpg,00969960627fa.jpg,sunbaoizrfijvhpnnjn.jpg,,Face,>,Face,0.9303379058837892,,,,1.0,,,3.0,,1551380276.78391,1551380279.772927,o,4.0,1.0,7.0,897084640.1891892,1551380278.0,1093.5394999999999,772.259154054054,936.7740905405404,678.1639945945947,29.641785330645597,21.15200425112613
15,105,8.0,Presentation,2.0,00771941205fa_sunafowswglhxcsufpo.jpg,00790941205fa_sunagpjzsbltchlwvou.jpg,00771941205fa.jpg,sunafowswglhxcsufpo.jpg,00790941205fa.jpg,sunagpjzsbltchlwvou.jpg,,Face,<,Place,0.7388329505920409,,,,1.0,,,3.0,,1551380284.485769,1551380287.467279,o,5.0,0.7903225806451613,7.0,897092565.9193548,1551380285.919355,1091.9188258064512,754.016979032258,956.4290419354842,682.7330048387095,29.90507873314642,20.95260393145161
16,106,8.0,Presentation,2.0,00720960620fa_sunaecpkgfewqqreqwe.jpg,00773960620fa_sunafvsxtzaizojicxx.jpg,00720960620fa.jpg,sunaecpkgfewqqreqwe.jpg,00773960620fa.jpg,sunafvsxtzaizojicxx.jpg,,Face,<,Place,1.0198969841003418,,,,1.0,,,3.0,,1551380291.970768,1551380294.959321,o,6.0,0.8533333333333334,7.0,897099720.9733334,1551380293.0666666,1124.7410933333335,765.0997920000004,921.0796999999998,687.6142319999998,29.868184433919257,21.18541285
17,107,8.0,Presentation,2.0,00127931230fa_sunaampvucecsfbdafn.jpg,00296940422fa_sunabrwnslxalcohfre.jpg,00127931230fa.jpg,sunaampvucecsfbdafn.jpg,00296940422fa.jpg,sunabrwnslxalcohfre.jpg,,Face,<,Face,1.0647649765014648,,,,1.0,,,3.0,,1551380299.753562,1551380302.744223,x,7.0,0.8888888888888888,7.0,897107644.1111112,1551380301.0,1118.8741000000002,744.704512345679,917.5009975308645,671.3193283950616,29.73028096492814,20.65034767746914
18,108,8.0,Presentation,2.0,00955960627fb_sunauburywlkjszngcq.jpg,00819940307fa_sunahqldjibofgsfdgb.jpg,00955960627fb.jpg,sunauburywlkjszngcq.jpg,00819940307fa.jpg,sunahqldjibofgsfdgb.jpg,,Face,>,Face,0.7480578422546387,,,,1.0,,,1.0,,1551380307.611113,1551380310.597311,x,8.0,0.6621621621621622,7.0,897115661.3243244,1551380309.0135136,1123.8366391891893,789.8348932432434,868.8349378378377,684.7400027027024,29.092226637259827,21.504217232545038
19,109,8.0,Presentation,2.0,00835940307fa_sunaijsqpvodplbwxkf.jpg,00162931230fb_sunaavjinpnkappuonm.jpg,00835940307fa.jpg,sunaijsqpvodplbwxkf.jpg,00162931230fb.jpg,sunaavjinpnkappuonm.jpg,,Face,<,Face,0.7940549850463867,,,,1.0,,,1.0,,1551380315.109017,1551380318.101136,x,9.0,0.85,7.0,897123650.85,1551380317.0125,1114.9417337500001,828.67410125,931.21987375,703.5857587500001,29.87316018762207,22.345456291666665
20,0,8.0,Presentation,0.0,00841940307fa_sunaisiwfgppimtnmxl.jpg,00895960530fa_sunamczizlzavhzhpay.jpg,00841940307fa.jpg,sunaisiwfgppimtnmxl.jpg,00895960530fa.jpg,sunamczizlzavhzhpay.jpg,,Face,<,Face,1.401508092880249,,,,1.0,,,1.0,,1551379352.950548,1551379356.035916,x,0.0,0.3979591836734694,7.0,896161095.9795918,1551379354.4795918,1510.7744163265309,575.81715,1180.175336734693,640.5291704081634,39.28681524244658,17.738383839285717
21,1,8.0,Presentation,0.0,00089931230fa_sunaagcpoejbuzyvddd.jpg,00776941205fa_sunafxokyavhgptyfye.jpg,00089931230fa.jpg,sunaagcpoejbuzyvddd.jpg,00776941205fa.jpg,sunafxokyavhgptyfye.jpg,,Face,>,Face,0.6851649284362793,,,,1.0,,,3.0,,1551379361.499738,1551379364.501492,x,1.0,0.47297297297297297,7.0,896169754.3783784,1551379363.0810812,1500.4342432432436,536.9755135135136,1204.6694000000005,631.5610608108109,39.493456510240705,17.041158375563064
22,2,8.0,Presentation,0.0,00750941201fa_sunaeuzwggvibufclwf.jpg,00926960627Fa_sunapqwoeotxshkukbh.jpg,00750941201fa.jpg,sunaeuzwggvibufclwf.jpg,00926960627Fa.jpg,sunapqwoeotxshkukbh.jpg,,Face,>,Place,0.7818620204925537,,,,1.0,,,1.0,,1551379369.82226,1551379372.823343,x,2.0,0.30985915492957744,7.0,896177727.5211267,1551379371.0704226,1529.5968718309862,560.0903450704225,1184.3525436619718,656.4384577464788,39.622601329706754,17.74104504107981
23,3,8.0,Presentation,0.0,00675941121fa_sunadoxcchtmsxewsau.jpg,00125931230fa_sunaalltyvjhbzhkmvg.jpg,00675941121fa.jpg,sunadoxcchtmsxewsau.jpg,00125931230fa.jpg,sunaalltyvjhbzhkmvg.jpg,,Face,<,Place,0.7370731830596924,,,,1.0,,,3.0,,1551379377.97578,1551379380.9886699,o,3.0,0.18666666666666668,7.0,896185673.5733334,1551379379.0266666,1521.4400933333332,572.5155146666667,1122.9446853333327,655.3254919999999,38.60698480572916,17.90601468055555
24,4,8.0,Presentation,0.0,00978960627fa_sunbddbivbptlrlauhy.jpg,00957960627fa_sunavhxgmgrqsaptynb.jpg,00978960627fa.jpg,sunbddbivbptlrlauhy.jpg,00957960627fa.jpg,sunavhxgmgrqsaptynb.jpg,,Face,>,Place,0.6550858020782471,,,,1.0,,,1.0,,1551379385.894836,1551379388.8852198,x,4.0,0.36486486486486486,7.0,896193598.4324324,1551379386.9594595,1505.7786999999998,573.2198378378379,1169.8850175675675,689.9808945945947,39.0636450953468,18.42167734797297
25,5,8.0,Presentation,0.0,00742941201fa_sunaenwuebvlpdmntju.jpg,01005960627fa_sunbwyuesflwdpqtgoy.jpg,00742941201fa.jpg,sunaenwuebvlpdmntju.jpg,01005960627fa.jpg,sunbwyuesflwdpqtgoy.jpg,,Face,<,Face,1.9301109313964844,,,,0.0,,,1.0,,1551379394.060003,1551379397.0821779,x,5.0,0.45569620253164556,7.0,896202632.9746835,1551379396.0,1521.8856278481014,554.256749367089,1174.9909772151896,716.7069632911392,39.3733449665002,18.53488747626582
26,6,8.0,Presentation,0.0,00965960627fa_sunaydywdmvlfddbxbk.jpg,00681941121fa_sunadqmjrhfjyuzyvdd.jpg,00965960627fa.jpg,sunaydywdmvlfddbxbk.jpg,00681941121fa.jpg,sunadqmjrhfjyuzyvdd.jpg,,Face,>,Place,0.7889301776885986,,,,1.0,,,1.0,,1551379403.462513,1551379406.463964,x,6.0,0.24,7.0,896211628.3733333,1551379405.0133333,1516.2202133333333,547.847965333333,1165.3195413333335,653.988576,39.14943294166667,17.526782894444445
27,7,8.0,Presentation,0.0,00574940928fa_sunacvbrcejzwmcgnoq.jpg,00158931230fb_sunaavchcbptaerhcfy.jpg,00574940928fa.jpg,sunacvbrcejzwmcgnoq.jpg,00158931230fb.jpg,sunaavchcbptaerhcfy.jpg,,Face,<,Face,0.6717600822448729,,,,1.0,,,3.0,,1551379411.481873,1551379414.484935,o,7.0,0.6883116883116883,7.0,896219616.1948051,1551379412.987013,1479.4943766233769,561.5157,1177.5913506493507,666.4743285714287,38.792413694069616,17.908187916666666
28,8,8.0,Presentation,0.0,00984960627fa_sunbfzchmomnvzhbxdg.jpg,00839940307fa_sunaipyohrqlwngaqif.jpg,00984960627fa.jpg,sunbfzchmomnvzhbxdg.jpg,00839940307fa.jpg,sunaipyohrqlwngaqif.jpg,,Face,>,Face,1.6215970516204834,,,,1.0,,,1.0,,1551379420.037766,1551379423.0356786,o,8.0,0.5866666666666667,7.0,896228734.8533334,1551379422.08,1502.0246520000003,548.9615400000001,1182.2062506666664,676.5688880000001,39.18872265123696,17.872318741666668
29,9,8.0,Presentation,0.0,00306940422fa_sunabueyoajufbkraki.jpg,00796941205fa_sunaguchqqnrtodtezq.jpg,00306940422fa.jpg,sunabueyoajufbkraki.jpg,00796941205fa.jpg,sunaguchqqnrtodtezq.jpg,,Face,<,Place,0.9721739292144777,,,,1.0,,,3.0,,1551379429.341422,1551379432.3559651,o,9.0,0.34615384615384615,7.0,896237858.1153846,1551379431.1538463,1478.1856730769227,577.7346500000001,1167.9867192307693,669.3526942307694,38.63308326660157,18.186690436698715
30,50,8.0,Presentation,1.0,00939960627fa_sunarceibpcyacbmfga.jpg,00825940307fa_sunahrltmuwbiehihpe.jpg,00939960627fa.jpg,sunarceibpcyacbmfga.jpg,00825940307fa.jpg,sunahrltmuwbiehihpe.jpg,,Face,>,Place,1.5149650573730469,,,,1.0,,,1.0,,1551379846.644051,1551379849.661869,x,0.0,0.1111111111111111,7.0,896654856.4222223,1551379848.2444444,1460.082571111111,872.7263066666668,967.7238377777777,735.4257866666668,35.445025207899306,23.452218027777775
31,51,8.0,Presentation,1.0,00725941201fa_sunaefgzwiramypjvtd.jpg,00101931230fb_sunaajqmsaavkmgbsth.jpg,00725941201fa.jpg,sunaefgzwiramypjvtd.jpg,00101931230fb.jpg,sunaajqmsaavkmgbsth.jpg,,Face,<,Face,0.8675379753112793,,,,1.0,,,3.0,,1551379854.9922528,1551379857.9608948,o,1.0,0.967741935483871,7.0,896662624.1612903,1551379855.967742,1081.4486935483872,765.1629903225806,960.3116580645161,683.6293322580648,29.80890357091104,21.128221370967747
32,52,8.0,Presentation,1.0,00082931230fa_sunaafvitpexrpvumsa.jpg,00077931230fb_sunaafgqutfaishsxyu.jpg,00082931230fa.jpg,sunaafvitpexrpvumsa.jpg,00077931230fb.jpg,sunaafgqutfaishsxyu.jpg,,Face,>,Face,1.5218479633331299,,,,1.0,,,3.0,,1551379862.6325474,1551379865.595784,o,2.0,0.7857142857142857,7.0,896670645.5571429,1551379863.9857142,1089.7462628571432,774.8920585714286,998.8469642857144,696.2209371428571,30.492645259556365,21.453731187499997
33,53,8.0,Presentation,1.0,00576941031fa_sunacvjlsylseoghjup.jpg,00242940128fa_sunabcuurugvxwparpk.jpg,00576941031fa.jpg,sunacvjlsylseoghjup.jpg,00242940128fa.jpg,sunabcuurugvxwparpk.jpg,,Face,<,Face,0.7646260261535645,,,,1.0,,,1.0,,1551379870.914662,1551379873.885713,x,3.0,0.875,7.0,896678653.825,1551379872.0,1123.2489775000001,760.05713875,973.3844625000002,693.0210287499998,30.6100292265625,21.19072327604166
34,54,8.0,Presentation,1.0,00950960627fa_sunasrjlmglmjzbmqxb.jpg,00828940307fa_sunahuynahneraqftyz.jpg,00950960627fa.jpg,sunasrjlmglmjzbmqxb.jpg,00828940307fa.jpg,sunahuynahneraqftyz.jpg,,Face,<,Place,0.6186399459838867,,,,1.0,,,3.0,,1551379878.421559,1551379881.384042,o,4.0,0.8846153846153846,7.0,896686613.551282,1551379879.9615386,1098.723182051282,769.5909474358973,968.1819782051282,680.814026923077,30.17600795491536,21.151739209401715
35,55,8.0,Presentation,1.0,00280940422fb_sunabohxbskznglnrhv.jpg,00124931230fa_sunaalhlvzmjmitybdn.jpg,00280940422fb.jpg,sunabohxbskznglnrhv.jpg,00124931230fa.jpg,sunaalhlvzmjmitybdn.jpg,,Face,<,Place,1.550936937332153,,,,1.0,,,3.0,,1551379885.7688394,1551379888.737627,o,5.0,0.6933333333333334,7.0,896693711.2,1551379887.0533333,1086.4831706666664,791.8838586666667,965.5814560000005,693.2015759999999,29.959341961588542,21.657495922222225
36,56,8.0,Presentation,1.0,00894960620fa_sunalqmfgeadpqsyzpd.jpg,00540940519fa_sunacdnquypmsshhsbk.jpg,00894960620fa.jpg,sunalqmfgeadpqsyzpd.jpg,00540940519fa.jpg,sunacdnquypmsshhsbk.jpg,,Face,<,Place,0.7612679004669191,,,,1.0,,,1.0,,1551379894.072065,1551379897.046295,x,6.0,0.7671232876712328,7.0,896702729.0958904,1551379896.0547945,1084.547502739726,806.7234534246576,999.1422602739723,704.0215726027401,30.421056598686324,22.031698296232875
37,57,8.0,Presentation,1.0,00860940307fa_sunaizeyhvjzknwjudw.jpg,00163931230fb_sunaavodbcpygkggnfp.jpg,00860940307fa.jpg,sunaizeyhvjzknwjudw.jpg,00163931230fb.jpg,sunaavodbcpygkggnfp.jpg,,Face,>,Face,0.9314661026000975,,,,1.0,,,3.0,,1551379901.595209,1551379904.566679,o,7.0,0.7272727272727273,7.0,896709691.5974026,1551379903.051948,1079.6866454545452,768.7326688311691,1000.0258818181818,693.4797441558443,30.362990510475846,21.32393102272728
38,58,8.0,Presentation,1.0,00868960307fa_sunajjxttslobudoqbv.jpg,00705960530fa_sunaduslxfzlbxlllnz.jpg,00868960307fa.jpg,sunajjxttslobudoqbv.jpg,00705960530fa.jpg,sunaduslxfzlbxlllnz.jpg,,Face,>,Face,0.8929049968719482,,,,0.0,,,1.0,,1551379909.2939231,1551379912.269272,x,8.0,0.8701298701298701,7.0,896717688.1428572,1551379911.051948,1087.6102285714285,799.2030558441562,993.0273454545454,706.0215324675329,30.376495831726864,21.95119191287879
39,59,8.0,Presentation,1.0,00146960620fb_sunaatpeezlljqaxlhj.jpg,00290940422fa_sunabqowuarvqqcnipn.jpg,00146960620fb.jpg,sunaatpeezlljqaxlhj.jpg,00290940422fa.jpg,sunabqowuarvqqcnipn.jpg,,Face,>,Place,1.3051650524139404,,,,1.0,,,1.0,,1551379916.932808,1551379919.896818,x,9.0,0.8133333333333334,7.0,896724685.6,1551379918.08,1104.7824013333334,786.4604866666667,1012.9248946666665,697.8506573333334,30.9176992921875,21.646204183333325
40,250,8.0,Presentation,5.0,00999960627fa_sunbvbrvgbpanfrawft.jpg,00977960627fa_sunbbxkanhzjgbwyxqs.jpg,00999960627fa.jpg,sunbvbrvgbpanfrawft.jpg,00977960627fa.jpg,sunbbxkanhzjgbwyxqs.jpg,,Face,>,Place,1.1771540641784668,,,,1.0,,,3.0,,1551381891.943466,1551381894.994576,o,0.0,0.6666666666666666,7.0,898699726.7866666,1551381893.08,1129.1265160000003,796.8460746666664,1001.0396413333335,761.8474933333335,31.099593800911457,22.73094786666666
41,251,8.0,Presentation,5.0,00943960627fa_sunarpsxqkduedrrzyi.jpg,00794960620fa_sunagtqhhwxjeuxdebe.jpg,00943960627fa.jpg,sunarpsxqkduedrrzyi.jpg,00794960620fa.jpg,sunagtqhhwxjeuxdebe.jpg,,Face,>,Face,0.7527890205383301,,,,1.0,,,3.0,,1551381899.991326,1551381902.991857,o,1.0,0.8405797101449275,7.0,898707645.5362319,1551381900.9855072,1142.2320521739127,788.1544724637679,978.1761826086955,743.8990898550726,30.957131943359375,22.34244778381642
42,252,8.0,Presentation,5.0,00751960620fa_sunaezuszgtxnmsxdbk.jpg,00149931230fa_sunaauglwmctnkxyird.jpg,00751960620fa.jpg,sunaezuszgtxnmsxdbk.jpg,00149931230fa.jpg,sunaauglwmctnkxyird.jpg,,Face,<,Place,0.9656858444213868,,,,1.0,,,1.0,,1551381907.560312,1551381910.562096,x,2.0,0.46511627906976744,7.0,898715253.6279069,1551381908.6511629,1145.4734511627905,797.1486465116278,884.2528116279071,785.1557674418607,29.63321057492278,23.075272703488373
43,253,8.0,Presentation,5.0,00903960620fa_sunanainkqdvktzoxyl.jpg,00958960627fa_sunavspxmxubqaeidjt.jpg,00903960620fa.jpg,sunanainkqdvktzoxyl.jpg,00958960627fa.jpg,sunavspxmxubqaeidjt.jpg,,Face,<,Place,0.9199380874633788,,,,1.0,,,3.0,,1551381915.329735,1551381918.34004,x,3.0,0.6071428571428571,7.0,898723345.6071428,1551381916.7142856,1235.132110714286,816.9214714285715,966.5527250000001,721.0618214285713,32.14373856828961,22.42892302083333
44,254,8.0,Presentation,5.0,00670941121fa_sunadochqcucscehsgk.jpg,00858940307fa_sunaixpqndlwhwjtjek.jpg,00670941121fa.jpg,sunadochqcucscehsgk.jpg,00858940307fa.jpg,sunaixpqndlwhwjtjek.jpg,,Face,<,Face,2.4409639835357666,,,,1.0,,,1.0,,1551381923.0320606,1551381926.043279,x,4.0,0.3333333333333333,7.0,898731518.625,1551381924.9166667,1131.7771458333332,776.6217999999999,867.9255395833333,808.1557437499997,29.194878073221844,23.1113391796875
45,255,8.0,Presentation,5.0,00775941205fa_sunafvwfsmqkjrutjta.jpg,00154931230fa_sunaauueuhhvklldjik.jpg,00775941205fa.jpg,sunafvwfsmqkjrutjta.jpg,00154931230fa.jpg,sunaauueuhhvklldjik.jpg,,Face,>,Place,0.8557338714599609,,,,1.0,,,3.0,,1551381932.284583,1551381935.2867026,o,5.0,0.8421052631578947,7.0,898740635.7763158,1551381934.0,1122.9581421052637,772.1445486842103,971.0007000000002,721.8568605263157,30.570981142064145,21.787520550986848
46,256,8.0,Presentation,5.0,00851940307fa_sunaivflshbyfrfzhqb.jpg,00292940422fb_sunabrjdpmoedcdjbpo.jpg,00851940307fa.jpg,sunaivflshbyfrfzhqb.jpg,00292940422fb.jpg,sunabrjdpmoedcdjbpo.jpg,,Face,>,Face,2.524375915527344,,,,1.0,,,3.0,,1551381939.955257,1551381942.955416,o,6.0,0.8513513513513513,7.0,898747719.5135136,1551381941.0810812,1127.1974202702704,784.6350945945946,937.0541959459458,751.7431986486488,30.137267248469175,22.40551677646396
47,257,8.0,Presentation,5.0,00060931230fa_sunaaehaikpckyjsety.jpg,00482940519fa_sunabyfxcxhdebvdyfd.jpg,00060931230fa.jpg,sunaaehaikpckyjsety.jpg,00482940519fa.jpg,sunabyfxcxhdebvdyfd.jpg,,Face,>,Place,1.4479680061340332,,,,1.0,,,3.0,,1551381949.312357,1551381952.310342,o,7.0,0.881578947368421,7.0,898757745.9342105,1551381951.0789473,1134.6186302631577,770.0022736842108,969.5277394736838,748.8137802631583,30.719715065982225,22.149400786732457
48,258,8.0,Presentation,5.0,00847940307fa_sunaivdjruhkrfywfed.jpg,00870940307fa_sunajrgtewnualfcerj.jpg,00847940307fa.jpg,sunaivdjruhkrfywfed.jpg,00870940307fa.jpg,sunajrgtewnualfcerj.jpg,,Face,<,Face,1.5853230953216553,,,,1.0,,,3.0,,1551381957.5429552,1551381960.544461,o,8.0,0.8289473684210527,7.0,898765728.3684211,1551381959.0657895,1120.3867973684212,840.0347539473684,978.6387802631588,792.136289473684,30.644953501554795,23.802494383223692
49,259,8.0,Presentation,5.0,00746941201fa_sunaetydippjxikifsb.jpg,00479940519fa_sunabxsbfwjccqxxzxq.jpg,00746941201fa.jpg,sunaetydippjxikifsb.jpg,00479940519fa.jpg,sunabxsbfwjccqxxzxq.jpg,,Face,<,Face,0.9978680610656738,,,,0.0,,,3.0,,1551381965.945818,1551381968.948074,o,9.0,0.8387096774193549,7.0,898773753.3387097,1551381967.1290324,1112.866491935484,809.5897290322579,954.4888758064517,756.10525,30.18258080834173,22.833051777553766
50,200,8.0,Presentation,4.0,00694941121fa_sunadrmfzmstgdjdcod.jpg,00635941031fa_sunaddsaeicthrfbkhe.jpg,00694941121fa.jpg,sunadrmfzmstgdjdcod.jpg,00635941031fa.jpg,sunaddsaeicthrfbkhe.jpg,,Face,>,Face,1.000849962234497,,,,1.0,,,3.0,,1551381569.268835,1551381572.3017359,o,0.0,0.16666666666666666,7.0,898377756.3636364,1551381571.090909,1443.5360924242423,817.2992015151516,1011.5675045454545,668.6616393939395,35.84355349091501,21.670262263257577
51,201,8.0,Presentation,4.0,00719941201fa_sunadvithllcgmfxsrn.jpg,00878960530fa_sunakgbnzxmfohgehnu.jpg,00719941201fa.jpg,sunadvithllcgmfxsrn.jpg,00878960530fa.jpg,sunakgbnzxmfohgehnu.jpg,,Face,>,Face,0.91658616065979,,,,1.0,,,3.0,,1551381577.140218,1551381580.1213,o,1.0,0.9452054794520548,7.0,898385725.4383562,1551381579.109589,1087.3428794520546,711.4476821917805,1044.3209068493147,657.8577123287671,31.121458598833478,19.96903700342466
52,202,8.0,Presentation,4.0,00638941031fa_sunadfktsqjthoglcsm.jpg,00961960627fa_sunawotxrevnqvamsfp.jpg,00638941031fa.jpg,sunadfktsqjthoglcsm.jpg,00961960627fa.jpg,sunawotxrevnqvamsfp.jpg,,Face,<,Place,1.100783109664917,,,,0.0,,,1.0,,1551381584.8262599,1551381587.807004,x,2.0,0.8831168831168831,7.0,898392659.5324675,1551381586.038961,1071.9972363636364,679.8749376623379,1000.2638584415582,631.5799142857142,30.25420250716569,19.12538325757576
53,203,8.0,Presentation,4.0,00931960627fa_sunaptrqvaooxfvktvw.jpg,00990960627fa_sunbpflsdaxnddnwcqi.jpg,00931960627fa.jpg,sunaptrqvaooxfvktvw.jpg,00990960627fa.jpg,sunbpflsdaxnddnwcqi.jpg,,Face,<,Face,0.7884070873260498,,,,1.0,,,3.0,,1551381592.729289,1551381595.70929,o,3.0,0.9390243902439024,7.0,898400640.8780488,1551381593.987805,1078.6073024390246,701.1120341463416,998.8717560975612,651.2686073170734,30.330382739376905,19.722217688008122
54,204,8.0,Presentation,4.0,00885960530fa_sunakwlvxjpddialozd.jpg,01000960627fa_sunbvzmgrdvaakxusbu.jpg,00885960530fa.jpg,sunakwlvxjpddialozd.jpg,01000960627fa.jpg,sunbvzmgrdvaakxusbu.jpg,,Face,<,Face,1.5677180290222168,,,,1.0,,,1.0,,1551381600.315347,1551381603.301168,x,4.0,0.868421052631579,7.0,898408601.9605263,1551381601.9342105,1065.7574526315789,715.6064710526316,1000.1107381578947,667.4644447368421,30.160868605764293,20.169784188596488
55,205,8.0,Presentation,4.0,01003960627fb_sunbwdrdvsweerwsdrj.jpg,00944960627fa_sunasbbntuiheekqyaq.jpg,01003960627fb.jpg,sunbwdrdvsweerwsdrj.jpg,00944960627fa.jpg,sunasbbntuiheekqyaq.jpg,,Face,>,Place,1.586967945098877,,,,1.0,,,3.0,,1551381608.701363,1551381611.680597,o,5.0,0.8947368421052632,7.0,898416734.6578947,1551381610.0657895,1084.9902236842104,723.0380763157893,1011.9752631578947,669.235107894737,30.61487698075144,20.303983936403505
56,206,8.0,Presentation,4.0,00985960627fa_sunbgklxeqjhdbyfhhy.jpg,00778941205fa_sunagcthdfirrcawoic.jpg,00985960627fa.jpg,sunbgklxeqjhdbyfhhy.jpg,00778941205fa.jpg,sunagcthdfirrcawoic.jpg,,Face,<,Place,0.8296008110046387,,,,1.0,,,3.0,,1551381617.099641,1551381620.1027641,o,6.0,0.9375,7.0,898425634.3375,1551381618.9875,1082.67447875,708.19282125,992.8747824999997,676.4292137500004,30.30220845281982,20.19240467708334
57,207,8.0,Presentation,4.0,00972960627fa_sunbbfqwjpdxniyhies.jpg,00763941205fa_sunafhmnhsdurlvddpw.jpg,00972960627fa.jpg,sunbbfqwjpdxniyhies.jpg,00763941205fa.jpg,sunafhmnhsdurlvddpw.jpg,,Face,>,Place,1.3069288730621338,,,,0.0,,,3.0,,1551381624.7563221,1551381627.7367759,o,7.0,0.881578947368421,7.0,898432702.6184211,1551381626.0657895,1082.1068855263154,722.730202631579,1001.4788092105267,675.3917223684209,30.41953724249589,20.389278072916664
58,208,8.0,Presentation,4.0,00949960627fb_sunasnqkkyhilqkxiqm.jpg,00562941031fa_sunacjnahdmqfnjfwqx.jpg,00949960627fb.jpg,sunasnqkkyhilqkxiqm.jpg,00562941031fa.jpg,sunacjnahdmqfnjfwqx.jpg,,Face,>,Place,1.7009990215301514,,,,1.0,,,3.0,,1551381632.887275,1551381635.87238,o,8.0,0.8970588235294118,7.0,898440624.7941177,1551381633.9558823,1113.3466647058824,731.2978735294116,1019.8599720588238,682.5972279411768,31.143983612922224,20.619303563112744
59,209,8.0,Presentation,4.0,00959960627fa_sunavxokzybtomhbmvm.jpg,00097931230fa_sunaajayojuslbbnneg.jpg,00959960627fa.jpg,sunavxokzybtomhbmvm.jpg,00097931230fa.jpg,sunaajayojuslbbnneg.jpg,,Face,<,Face,1.9722559452056885,,,,1.0,,,3.0,,1551381641.373812,1551381644.3586519,o,9.0,1.0,7.0,898449644.5875,1551381643.0,1112.2526624999998,737.5109137500002,997.5015037499998,666.4222649999999,30.801586704528795,20.474025523437497
60,300,8.0,Presentation,6.0,00564940928fa_sunacmpqqfbsvlzinzl.jpg,01010960627fa_suncnkvbhypnivcohyx.jpg,00564940928fa.jpg,sunacmpqqfbsvlzinzl.jpg,01010960627fa.jpg,suncnkvbhypnivcohyx.jpg,,Face,<,Place,1.2507658004760742,,,,1.0,,,1.0,,1551382211.130356,1551382214.084933,x,0.0,0.7575757575757576,7.0,899019570.6969697,1551382212.9545455,1142.823406060606,687.0442257575758,947.1279106060606,705.0804469696968,30.51247283610026,20.301818143939396
61,301,8.0,Presentation,6.0,00741941201fa_sunaemcowdozyphwknd.jpg,00913960530fa_sunaooffzffbhcpirmm.jpg,00741941201fa.jpg,sunaemcowdozyphwknd.jpg,00913960530fa.jpg,sunaooffzffbhcpirmm.jpg,,Face,>,Place,0.9396638870239258,,,,1.0,,,1.0,,1551382219.029619,1551382221.934345,x,1.0,0.72,7.0,899027169.7,1551382220.54,1071.11059,639.7493139999999,919.3956160000001,698.613104,29.060613066113277,19.5177852625
62,302,8.0,Presentation,6.0,00925960627fa_sunapqwnqzxlsfvgsjm.jpg,00795941205fa_sunagtumacdlmciqamz.jpg,00925960627fa.jpg,sunapqwnqzxlsfvgsjm.jpg,00795941205fa.jpg,sunagtumacdlmciqamz.jpg,,Face,<,Face,1.095541000366211,,,,1.0,,,1.0,,1551382226.530875,1551382229.441583,x,2.0,0.935064935064935,7.0,899034593.4545455,1551382227.948052,1054.3288142857143,716.337577922078,891.2478636363635,749.9755844155846,28.40465950677252,21.38373361742424
63,303,8.0,Presentation,6.0,00782941205fa_sunagfvluwixdsozaql.jpg,00633940928fa_sunadbhmrgrrpyzglxs.jpg,00782941205fa.jpg,sunagfvluwixdsozaql.jpg,00633940928fa.jpg,sunadbhmrgrrpyzglxs.jpg,,Face,>,Face,1.199573040008545,,,,0.0,,,1.0,,1551382234.204776,1551382237.102849,x,3.0,0.810126582278481,7.0,899042633.2025317,1551382236.0,1115.6348253164554,672.5909822784813,897.9680759493672,745.6488303797469,29.397815794847695,20.68266393459916
64,304,8.0,Presentation,6.0,00129931230fb_sunaamsdyakblkfoydx.jpg,00609940928fa_sunacycdoztxoluxjyk.jpg,00129931230fb.jpg,sunaamsdyakblkfoydx.jpg,00609940928fa.jpg,sunacycdoztxoluxjyk.jpg,,Face,>,Face,0.5794911384582521,,,,1.0,,,3.0,,1551382241.990412,1551382244.89123,o,4.0,0.8333333333333334,7.0,899049631.55,1551382243.0166667,1065.2037766666667,699.8314633333332,867.2817249999999,755.6277866666666,28.213533447184243,21.225447395833342
65,305,8.0,Presentation,6.0,00276940422fa_sunabmytpyhsgigllxu.jpg,00800941205fb_sunagvjurcwdbixvnyi.jpg,00276940422fa.jpg,sunabmytpyhsgigllxu.jpg,00800941205fb.jpg,sunagvjurcwdbixvnyi.jpg,,Face,<,Face,0.7837839126586914,,,,1.0,,,3.0,,1551382249.13895,1551382252.04759,o,5.0,1.0,7.0,899057661.1234568,1551382251.0123458,1034.6189086419758,699.9084345679012,879.9066839506172,751.6780950617281,27.95132579029224,21.168970223765434
66,306,8.0,Presentation,6.0,00598941031fa_sunacxtcahkymosigud.jpg,00123931230fb_sunaalcrrdbjgdztbiz.jpg,00598941031fa.jpg,sunacxtcahkymosigud.jpg,00123931230fb.jpg,sunaalcrrdbjgdztbiz.jpg,,Face,>,Face,1.2236039638519287,,,,1.0,,,1.0,,1551382256.5074642,1551382259.409481,x,6.0,0.881578947368421,7.0,899064690.0131578,1551382258.0394738,1072.9048657894741,733.2633592105263,898.8882118421052,756.7924592105264,28.787408701750117,21.729980685307027
67,307,8.0,Presentation,6.0,00818940307fa_sunahpblecxtmuzkmxb.jpg,00214940128fa_sunabbafjowbzcvbucc.jpg,00818940307fa.jpg,sunahpblecxtmuzkmxb.jpg,00214940128fa.jpg,sunabbafjowbzcvbucc.jpg,,Face,>,Place,0.992685079574585,,,,1.0,,,1.0,,1551382264.315347,1551382267.2107608,x,7.0,0.9459459459459459,7.0,899072692.0675676,1551382266.0270271,1067.9496364864863,729.6745743243246,874.3126216216216,766.4339851351349,28.356270272183817,21.818249825450447
68,308,8.0,Presentation,6.0,00745941205fa_sunaeouogqolxvggaoq.jpg,00648941031fa_sunadfndyrtqqiasoig.jpg,00745941205fa.jpg,sunaeouogqolxvggaoq.jpg,00648941031fa.jpg,sunadfndyrtqqiasoig.jpg,,Face,<,Place,0.8423230648040771,,,,1.0,,,1.0,,1551382271.879097,1551382274.780628,x,8.0,0.821917808219178,7.0,899079723.9178082,1551382273.0958905,1079.4144945205478,736.9484753424658,884.6286356164386,742.2900767123289,28.674262495652304,21.572228884132432
69,309,8.0,Presentation,6.0,00809960620fa_sunahbvlpavurqoxdeq.jpg,00874940307fa_sunajtrfunvzdfticna.jpg,00809960620fa.jpg,sunahbvlpavurqoxdeq.jpg,00874940307fa.jpg,sunajtrfunvzdfticna.jpg,,Face,<,Place,0.5834031105041504,,,,1.0,,,1.0,,1551382279.303189,1551382282.2088661,x,9.0,0.8518518518518519,7.0,899087639.0864197,1551382281.0,1093.4941999999999,723.0209950617284,879.3810740740739,771.7048283950617,28.80320834707755,21.79808492541152
70,350,8.0,Presentation,7.0,00098931230fa_sunaajpqmulidejvjsr.jpg,00071940128fa_sunaaexpnawiehinlpy.jpg,00098931230fa.jpg,sunaajpqmulidejvjsr.jpg,00071940128fa.jpg,sunaaexpnawiehinlpy.jpg,,Face,>,Face,0.9785370826721193,,,,1.0,,,1.0,,1551382561.390415,1551382564.298779,x,0.0,0.8717948717948718,7.0,899369694.8589743,1551382563.0384614,1148.6500282051284,751.5277858974358,1041.9303461538464,680.1743179487182,31.981617770182293,20.87898901442308
71,351,8.0,Presentation,7.0,00132931230fb_sunaanjcbzdvtvblsdy.jpg,00871940307_sunajrujcsdxmfbssmc.jpg,00132931230fb.jpg,sunaanjcbzdvtvblsdy.jpg,00871940307.jpg,sunajrujcsdxmfbssmc.jpg,,Face,>,Face,0.6683268547058105,,,,1.0,,,3.0,,1551382568.926973,1551382571.779842,o,1.0,0.7123287671232876,7.0,899376724.1095891,1551382570.0684931,1140.195876712329,704.7021109589043,981.7286780821921,703.3825095890412,30.97926962322078,20.534567382990872
72,352,8.0,Presentation,7.0,00136931230fb_sunaanptmsknhirrzed.jpg,01009960627fa_sunbxzweleltykebgan.jpg,00136931230fb.jpg,sunaanptmsknhirrzed.jpg,01009960627fa.jpg,sunbxzweleltykebgan.jpg,,Face,<,Place,0.8630199432373047,,,,1.0,,,1.0,,1551382576.095208,1551382578.950818,x,2.0,0.5471698113207547,7.0,899384153.490566,1551382577.509434,1163.338271698113,772.2437188679244,998.2213660377357,728.6098698113208,31.557926351709902,21.887448168238997
73,353,8.0,Presentation,7.0,00848940307fa_sunaivdylrawbmhryfp.jpg,00294940422fb_sunabrlndkruqokhury.jpg,00848940307fa.jpg,sunaivdylrawbmhryfp.jpg,00294940422fb.jpg,sunabrlndkruqokhury.jpg,,Face,<,Place,0.9563379287719728,,,,1.0,,,3.0,,1551382583.486836,1551382586.3403866,o,3.0,0.7313432835820896,7.0,899391565.7761194,1551382584.925373,1174.613698507463,750.4557373134328,1011.630119402985,701.885025373134,31.918305740001156,21.179969455845765
74,354,8.0,Presentation,7.0,00235940128fb_sunabclssnoeuigtawp.jpg,00807941205fa_sunahawfngukizslzsd.jpg,00235940128fb.jpg,sunabclssnoeuigtawp.jpg,00807941205fa.jpg,sunahawfngukizslzsd.jpg,,Face,>,Place,1.4799778461456299,,,,1.0,,,3.0,,1551382590.954766,1551382593.806464,o,4.0,0.8831168831168831,7.0,899398673.0,1551382592.051948,1110.1364441558437,733.1824766233765,990.8296649350648,733.4669311688311,30.673284502840918,21.388637196969707
75,355,8.0,Presentation,7.0,00198940128fb_sunaazezcsunmhttzxz.jpg,00968960627fa_sunbagfpovqwbuexqdn.jpg,00198940128fb.jpg,sunaazezcsunmhttzxz.jpg,00968960627fa.jpg,sunbagfpovqwbuexqdn.jpg,,Face,<,Face,0.6193420886993408,,,,1.0,,,3.0,,1551382598.975026,1551382601.8205972,o,5.0,1.0,7.0,899406646.5853659,1551382600.012195,1143.8697012195123,769.6708146341465,1002.1005878048783,739.7720792682927,31.33032795011194,22.01270886941057
76,356,8.0,Presentation,7.0,00543940519fa_sunacepzfrmtkiqonpy.jpg,00700941121fa_sunadsgmtznewzyasnk.jpg,00543940519fa.jpg,sunacepzfrmtkiqonpy.jpg,00700941121fa.jpg,sunadsgmtznewzyasnk.jpg,,Face,<,Face,0.6921401023864746,,,,1.0,,,3.0,,1551382606.343991,1551382609.197698,o,6.0,0.8734177215189873,7.0,899414692.3797468,1551382608.0379746,1104.4419810126583,763.070405063291,982.142106329114,751.815734177215,30.463312603280755,22.092089530590716
77,357,8.0,Presentation,7.0,00947960627fa_sunasmmcxdddtmtazwx.jpg,00260940128fa_sunabgfhvifeijihhjw.jpg,00947960627fa.jpg,sunasmmcxdddtmtazwx.jpg,00260940128fa.jpg,sunabgfhvifeijihhjw.jpg,,Face,>,Face,1.6777029037475586,,,,1.0,,,3.0,,1551382613.607784,1551382616.463868,x,7.0,0.8717948717948718,7.0,899421682.2948718,1551382615.0384614,1093.385991025641,790.8225076923078,987.6781294871796,733.5582474358974,30.382723243815096,22.23055267895299
78,358,8.0,Presentation,7.0,00313940422fa_sunabwjvmoaddlyxfjr.jpg,00631940928fa_sunadbdqzigzwipuipr.jpg,00313940422fa.jpg,sunabwjvmoaddlyxfjr.jpg,00631940928fa.jpg,sunadbdqzigzwipuipr.jpg,,Face,<,Place,0.5849308967590332,,,,1.0,,,1.0,,1551382621.763993,1551382624.611111,x,8.0,0.36363636363636365,7.0,899429687.3636364,1551382622.909091,1143.1938272727273,763.722790909091,792.2659363636362,821.1958545454545,28.25695651012074,23.113396912878788
79,359,8.0,Presentation,7.0,00507940519fa_sunacacflqoyxhsqzhe.jpg,00812941205fa_sunahgtbwgsmtqeodwh.jpg,00507940519fa.jpg,sunacacflqoyxhsqzhe.jpg,00812941205fa.jpg,sunahgtbwgsmtqeodwh.jpg,,Face,>,Place,1.3529372215270996,,,,0.0,,,1.0,,1551382628.867344,1551382631.712962,x,9.0,0.7922077922077922,7.0,899436652.6623377,1551382630.0,1123.3952857142854,743.577944155844,950.0010415584419,741.569407792208,30.270776457741473,21.658398882575764
80,150,15.0,Presentation,3.0,01009960627fa_sunbxzweleltykebgan.jpg,00630940928fa_sunaczwgyukesaajxnx.jpg,01009960627fa.jpg,sunbxzweleltykebgan.jpg,00630940928fa.jpg,sunaczwgyukesaajxnx.jpg,,Face,>,Place,1.0002751350402832,,,,1.0,,,3.0,,1554129300.694103,1554129303.6942382,o,0.0,0.8026315789473685,7.0,424883232.34210527,1554129302.0394738,1043.4663657894732,511.9398671052633,1114.2853013157896,522.0973039473683,31.502331467991887,15.079708744517541
81,151,15.0,Presentation,3.0,00060931230fa_sunaaehaikpckyjsety.jpg,00741941201fa_sunaemcowdozyphwknd.jpg,00060931230fa.jpg,sunaaehaikpckyjsety.jpg,00741941201fa.jpg,sunaemcowdozyphwknd.jpg,,Face,<,Face,0.9498751163482666,,,,1.0,,,1.0,,1554129308.4665804,1554129311.4151,x,1.0,0.8571428571428571,7.0,424891282.4,1554129310.142857,992.7684528571423,533.5230071428572,1103.3585042857142,635.4364599999999,30.602634774693083,17.047325562499996
82,152,15.0,Presentation,3.0,00913960530fa_sunaooffzffbhcpirmm.jpg,00093931230fa_sunaahwnmtqsrhocysw.jpg,00913960530fa.jpg,sunaooffzffbhcpirmm.jpg,00093931230fa.jpg,sunaahwnmtqsrhocysw.jpg,,Face,>,Face,0.6927189826965332,,,,1.0,,,3.0,,1554129316.153763,1554129319.100013,o,2.0,1.0,7.0,424899353.89705884,1554129318.1617646,1003.8969220588234,520.9667779411764,1092.936298529412,583.0778411764705,30.612945945111438,16.10065069546569
83,153,15.0,Presentation,3.0,00636941031fa_sunaddtdkycxbqlpfqa.jpg,00564941031fa_sunacsaovnjezqwbykf.jpg,00636941031fa.jpg,sunaddtdkycxbqlpfqa.jpg,00564941031fa.jpg,sunacsaovnjezqwbykf.jpg,,Face,>,Face,0.8129830360412598,,,,1.0,,,3.0,,1554129323.522177,1554129326.474393,o,3.0,0.9753086419753086,7.0,424906184.72839504,1554129325.0,1001.6550814814813,503.7771592592592,1099.5317530864202,578.9906074074074,30.676507008584096,15.790363263888892
84,154,15.0,Presentation,3.0,01010960627fa_suncnkvbhypnivcohyx.jpg,00124931230fa_sunaalhlvzmjmitybdn.jpg,01010960627fa.jpg,suncnkvbhypnivcohyx.jpg,00124931230fa.jpg,sunaalhlvzmjmitybdn.jpg,,Face,>,Face,0.8169069290161133,,,,1.0,,,3.0,,1554129331.053918,1554129334.004535,o,4.0,0.35714285714285715,7.0,424914330.9,1554129333.1285715,1009.2552885714287,499.9088371428573,1093.3972499999998,667.5351042857145,30.69790571449499,17.025224145833334
85,155,15.0,Presentation,3.0,00133931230fa_sunaanlwnpqndclffxt.jpg,00968960627fa_sunbagfpovqwbuexqdn.jpg,00133931230fa.jpg,sunaanlwnpqndclffxt.jpg,00968960627fa.jpg,sunbagfpovqwbuexqdn.jpg,,Face,<,Place,0.9491121768951416,,,,1.0,,,3.0,,1554129338.560011,1554129341.508591,o,5.0,0.9014084507042254,7.0,424920990.85915494,1554129339.859155,1009.7957915492959,466.9184422535211,1085.8443845070422,547.7133915492957,30.595527960978767,14.796714242957744
86,156,15.0,Presentation,3.0,00884960530fa_sunakodkcslgqhqlgwl.jpg,00574940928fa_sunacvbrcejzwmcgnoq.jpg,00884960530fa.jpg,sunakodkcslgqhqlgwl.jpg,00574940928fa.jpg,sunacvbrcejzwmcgnoq.jpg,,Face,<,Place,0.7669978141784668,,,,1.0,,,1.0,,1554129346.197743,1554129349.1425061,x,6.0,0.8148148148148148,7.0,424929168.0740741,1554129348.0,1012.9497901234569,504.44724567901227,1085.138995061729,599.6731148148149,30.63127669777199,16.101755257201642
87,157,15.0,Presentation,3.0,00073931230fa_sunaafbmtoniaasysgu.jpg,00966960627fa_sunaygrtwrwfezqjizr.jpg,00073931230fa.jpg,sunaafbmtoniaasysgu.jpg,00966960627fa.jpg,sunaygrtwrwfezqjizr.jpg,,Face,<,Face,0.8692111968994141,,,,1.0,,,3.0,,1554129353.660533,1554129356.61301,o,7.0,0.9672131147540983,7.0,424936384.3278689,1554129355.2459016,991.6359262295082,494.2733508196722,1095.080163934426,564.5754901639345,30.46523979292073,15.441545597677596
88,158,15.0,Presentation,3.0,00123931230fb_sunaalcrrdbjgdztbiz.jpg,00505960627fa_sunabzuqsrgcsonqlkz.jpg,00123931230fb.jpg,sunaalcrrdbjgdztbiz.jpg,00505960627fa.jpg,sunabzuqsrgcsonqlkz.jpg,,Face,<,Place,1.126711130142212,,,,1.0,,,1.0,,1554129361.229907,1554129364.1806939,x,8.0,0.851063829787234,7.0,424944470.34042555,1554129363.319149,992.3953106382982,496.22910638297867,1084.4440531914893,585.755625531915,30.321043446538397,15.778944007092198
89,159,15.0,Presentation,3.0,00142931230fb_sunaapxkpvrhpjplsok.jpg,00949960627fb_sunasnqkkyhilqkxiqm.jpg,00142931230fb.jpg,sunaapxkpvrhpjplsok.jpg,00949960627fb.jpg,sunasnqkkyhilqkxiqm.jpg,,Face,>,Place,1.0017290115356443,,,,1.0,,,1.0,,1554129369.103408,1554129372.054602,x,9.0,0.7894736842105263,7.0,424952239.8552632,1554129371.0394738,1008.2073407894736,506.4146657894737,1103.852193421053,597.8033631578949,30.835244176218136,16.10317958881579
90,100,15.0,Presentation,2.0,00857940307fa_sunaiwfobocrruqznsv.jpg,00978960627fa_sunbddbivbptlrlauhy.jpg,00857940307fa.jpg,sunaiwfobocrruqznsv.jpg,00978960627fa.jpg,sunbddbivbptlrlauhy.jpg,,Face,>,Face,1.3336148262023926,,,,1.0,,,3.0,,1554128979.67285,1554128982.723674,o,0.0,0.7592592592592593,7.0,424562298.2962963,1554128981.148148,1080.1310666666666,651.1854351851854,1015.9166222222221,611.7335703703703,30.60147748914931,18.417568831018517
91,101,15.0,Presentation,2.0,00589940928fa_sunacwggadqsfpovdjv.jpg,00746941201fa_sunaetydippjxikifsb.jpg,00589940928fa.jpg,sunacwggadqsfpovdjv.jpg,00746941201fa.jpg,sunaetydippjxikifsb.jpg,,Face,>,Place,0.8314058780670166,,,,1.0,,,1.0,,1554128987.9245946,1554128990.92832,x,1.0,0.8666666666666667,7.0,424570341.55,1554128989.1166666,1056.3771966666666,658.0679916666666,1025.13022,648.1987133333333,30.389195194498697,19.049722781250004
92,102,15.0,Presentation,2.0,00953960627fa_sunatstrpjxhvtbaczf.jpg,00788941205fa_sunagountlxpzkytsmp.jpg,00953960627fa.jpg,sunatstrpjxhvtbaczf.jpg,00788941205fa.jpg,sunagountlxpzkytsmp.jpg,,Face,<,Face,0.739116907119751,,,,1.0,,,3.0,,1554128995.59916,1554128998.59456,o,2.0,0.8275862068965517,7.0,424578202.36206895,1554128997.0172415,1031.8338862068965,652.1586258620689,1007.7323155172414,657.6950706896554,29.77686983962486,19.102033074712644
93,103,15.0,Presentation,2.0,00749941201fa_sunaeuvjbmdpknaqqaj.jpg,00138931230fa_sunaapfaivxqoynnwwp.jpg,00749941201fa.jpg,sunaeuvjbmdpknaqqaj.jpg,00138931230fa.jpg,sunaapfaivxqoynnwwp.jpg,,Face,>,Place,0.8331508636474609,,,,1.0,,,1.0,,1554129003.296612,1554129006.298362,x,3.0,1.0,7.0,424586191.2692308,1554129005.025641,1041.736198717949,629.078564102564,1014.3178102564101,619.2419538461537,30.01758538492838,18.204674220085472
94,104,15.0,Presentation,2.0,00922960627fa_sunapqkyghktgtosuuk.jpg,00239940128fa_sunabctlikybqabezjv.jpg,00922960627fa.jpg,sunapqkyghktgtosuuk.jpg,00239940128fa.jpg,sunabctlikybqabezjv.jpg,,Face,<,Place,2.58784818649292,,,,1.0,,,3.0,,1554129011.0333538,1554129014.036603,o,4.0,1.0,7.0,424594205.6233766,1554129013.051948,1033.7902441558447,633.1435116883116,1014.731109090909,641.0046701298704,29.907611553748968,18.581327651515146
95,105,15.0,Presentation,2.0,00805941205fa_sunagwzdbtlixdhgolm.jpg,00938960627fa_sunaqyylsngywqzwfmx.jpg,00805941205fa.jpg,sunagwzdbtlixdhgolm.jpg,00938960627fa.jpg,sunaqyylsngywqzwfmx.jpg,,Face,>,Place,0.9094419479370116,,,,1.0,,,3.0,,1554129020.440365,1554129023.442557,o,5.0,0.8793103448275862,7.0,424603529.82758623,1554129022.362069,1045.676793103448,622.3808310344828,1034.3835827586204,668.0703551724138,30.368068964001893,18.819079798850577
96,106,15.0,Presentation,2.0,00081941031fa_sunaaftlyfudyzuhqzf.jpg,00871940307_sunajrujcsdxmfbssmc.jpg,00081941031fa.jpg,sunaaftlyfudyzuhqzf.jpg,00871940307.jpg,sunajrujcsdxmfbssmc.jpg,,Face,<,Face,0.8683969974517822,,,,1.0,,,1.0,,1554129028.1709714,1554129031.173268,x,6.0,0.9384615384615385,7.0,424611283.1076923,1554129030.1384616,1001.3948599999995,619.2005615384614,993.3661723076922,615.4672184615384,29.122731868164063,18.005571791666668
97,107,15.0,Presentation,2.0,00598940928fa_sunacxeheuiigkcgquf.jpg,00184940128fa_sunaavtbadenwnzeutj.jpg,00598940928fa.jpg,sunacxeheuiigkcgquf.jpg,00184940128fa.jpg,sunaavtbadenwnzeutj.jpg,,Face,>,Face,0.7980358600616455,,,,1.0,,,3.0,,1554129035.84054,1554129038.847881,o,7.0,0.9523809523809523,7.0,424618414.7777778,1554129037.2063491,1050.6312380952377,609.03653015873,1040.5319507936506,660.501731746032,30.530165697157113,18.514099652777773
98,108,15.0,Presentation,2.0,00906960530fa_sunantryfbloeaomfta.jpg,00950960627fa_sunasrjlmglmjzbmqxb.jpg,00906960530fa.jpg,sunantryfbloeaomfta.jpg,00950960627fa.jpg,sunasrjlmglmjzbmqxb.jpg,,Face,<,Face,1.1234700679779053,,,,1.0,,,3.0,,1554129043.480526,1554129046.477421,o,8.0,0.9577464788732394,7.0,424626232.4507042,1554129045.056338,1034.3339408450706,630.070076056338,1011.9197690140845,659.4738338028171,29.874504846088243,18.805848685446012
99,109,15.0,Presentation,2.0,00214940128fa_sunabbafjowbzcvbucc.jpg,00965960627fa_sunaydywdmvlfddbxbk.jpg,00214940128fa.jpg,sunabbafjowbzcvbucc.jpg,00965960627fa.jpg,sunaydywdmvlfddbxbk.jpg,,Face,<,Place,1.0485541820526123,,,,1.0,,,3.0,,1554129051.433827,1554129054.436286,x,9.0,0.9402985074626866,7.0,424633971.8208955,1554129052.7910447,1017.8718791044779,627.1005223880597,1000.7891432835821,652.3199716417912,29.47166238740379,18.658215537935327
100,0,15.0,Presentation,0.0,00063931230fa_sunaaelyvurpntclgau.jpg,00245940128fa_sunabeyhmxodahoieyk.jpg,00063931230fa.jpg,sunaaelyvurpntclgau.jpg,00245940128fa.jpg,sunabeyhmxodahoieyk.jpg,,Face,<,Place,1.4835419654846191,,,,0.0,,,3.0,,1554128279.895303,1554128282.995805,o,0.0,0.7258064516129032,7.0,423862480.5483871,1554128281.2580645,1025.3456903225808,609.0608112903222,1025.408706451613,662.9173129032258,29.94021311696698,18.54968097782258
101,1,15.0,Presentation,0.0,00921960627fa_sunapqkpqdfvxlbqwyo.jpg,00306940422fa_sunabueyoajufbkraki.jpg,00921960627fa.jpg,sunapqkpqdfvxlbqwyo.jpg,00306940422fa.jpg,sunabueyoajufbkraki.jpg,,Face,>,Place,0.5506200790405273,,,,0.0,,,1.0,,1554128288.3030634,1554128291.300237,x,1.0,1.0,7.0,423871094.3818182,1554128289.8909092,1032.0557927272725,614.0269709090909,1031.796158181818,666.8460036363637,30.131432291104403,18.679397545454552
102,2,15.0,Presentation,0.0,00069931230fb_sunaaeowapdkwzqpgqr.jpg,00979960627fa_sunbdycacjfaujxitbw.jpg,00069931230fb.jpg,sunaaeowapdkwzqpgqr.jpg,00979960627fa.jpg,sunbdycacjfaujxitbw.jpg,,Face,<,Place,1.2855939865112305,,,,1.0,,,3.0,,1554128295.617225,1554128298.602039,o,2.0,0.875,7.0,423878103.65,1554128296.975,1026.0087299999998,633.8553274999999,1026.3066874999997,639.8050500000002,29.96300340979004,18.574213838541674
103,3,15.0,Presentation,0.0,00720960620fa_sunaecpkgfewqqreqwe.jpg,00763941205fa_sunafhmnhsdurlvddpw.jpg,00720960620fa.jpg,sunaecpkgfewqqreqwe.jpg,00763941205fa.jpg,sunafhmnhsdurlvddpw.jpg,,Face,>,Face,1.2499001026153564,,,,1.0,,,1.0,,1554128303.652271,1554128306.6384132,x,3.0,1.0,7.0,423886015.1690141,1554128304.8450704,1028.7271985915497,617.0441957746477,1041.0095239436619,634.5022056338026,30.217347658106846,18.25171835387324
104,4,15.0,Presentation,0.0,00198940128fb_sunaazezcsunmhttzxz.jpg,00111931230fb_sunaakgekhjklxmvulj.jpg,00198940128fb.jpg,sunaazezcsunmhttzxz.jpg,00111931230fb.jpg,sunaakgekhjklxmvulj.jpg,,Face,>,Face,1.1252338886260986,,,,1.0,,,1.0,,1554128311.710001,1554128314.694531,x,4.0,1.0,7.0,423894585.82222223,1554128313.288889,1041.6285866666667,604.3053222222223,1063.1818222222225,678.215037777778,30.729409778211796,18.703421916666663
105,5,15.0,Presentation,0.0,00242940128fa_sunabcuurugvxwparpk.jpg,00163931230fb_sunaavodbcpygkggnfp.jpg,00242940128fa.jpg,sunabcuurugvxwparpk.jpg,00163931230fb.jpg,sunaavodbcpygkggnfp.jpg,,Face,<,Face,1.251270055770874,,,,1.0,,,3.0,,1554128319.595997,1554128322.579036,x,5.0,0.7380952380952381,7.0,423902094.02380955,1554128320.857143,1009.4636357142858,603.7527642857143,1041.3019285714286,693.134276190476,29.94037615827288,18.91293600694444
106,6,15.0,Presentation,0.0,00483940519fa_sunabyvpwkgsjtijdwj.jpg,00136931230fb_sunaanptmsknhirrzed.jpg,00483940519fa.jpg,sunabyvpwkgsjtijdwj.jpg,00136931230fb.jpg,sunaanptmsknhirrzed.jpg,,Face,>,Place,1.2015349864959717,,,,1.0,,,3.0,,1554128327.614715,1554128330.601021,o,6.0,0.6818181818181818,7.0,423910181.1818182,1554128328.909091,1034.1824000000001,663.5689454545455,1040.771081818182,653.6502272727274,30.293510305841618,19.20944626893939
107,7,15.0,Presentation,0.0,00109931230fa_sunaajuzribjrizdshh.jpg,00753941201fa_sunafcofuuzebuadceo.jpg,00109931230fa.jpg,sunaajuzribjrizdshh.jpg,00753941201fa.jpg,sunafcofuuzebuadceo.jpg,,Face,>,Place,0.7838149070739746,,,,1.0,,,3.0,,1554128335.5670712,1554128338.546705,o,7.0,0.8837209302325582,7.0,423918741.76744187,1554128337.511628,1009.5785767441859,647.7644558139534,1065.1763627906978,705.2514279069767,30.290611666061054,19.731481637596897
108,8,15.0,Presentation,0.0,00969960627fa_sunbaoizrfijvhpnnjn.jpg,01207940128fa_sundbixjudsgeuuehrn.jpg,00969960627fa.jpg,sunbaoizrfijvhpnnjn.jpg,01207940128fa.jpg,sundbixjudsgeuuehrn.jpg,,Face,<,Face,1.0975821018218994,,,,1.0,,,3.0,,1554128343.169706,1554128346.1509962,o,8.0,0.65625,7.0,423926611.71875,1554128345.4375,1017.6199093749999,629.4621812500001,1041.2034531250001,667.1090999999998,30.058016864624022,18.90833118489583
109,9,15.0,Presentation,0.0,00609940928fa_sunacycdoztxoluxjyk.jpg,00801941205fa_sunagvprlbprarvgdvj.jpg,00609940928fa.jpg,sunacycdoztxoluxjyk.jpg,00801941205fa.jpg,sunagvprlbprarvgdvj.jpg,,Face,<,Face,0.7688798904418945,,,,1.0,,,3.0,,1554128351.034937,1554128354.018997,o,9.0,0.7441860465116279,7.0,423934543.0232558,1554128353.3488371,1017.154034883721,622.9118744186047,1049.4823767441865,726.7956999999998,30.172084329919148,19.68323546027132
110,50,15.0,Presentation,1.0,00089931230fa_sunaagcpoejbuzyvddd.jpg,00787941205fa_sunagmwxxwymwojbvgi.jpg,00089931230fa.jpg,sunaagcpoejbuzyvddd.jpg,00787941205fa.jpg,sunagmwxxwymwojbvgi.jpg,,Face,<,Face,7.349050045013428,,,,1.0,,,1.0,,1554128609.635813,1554128612.675075,x,0.0,0.07042253521126761,7.0,424192170.8450704,1554128610.9859154,902.0813802816905,523.6947352112674,758.0776619718314,172.67859718309856,24.23767351727554,10.155444430751169
111,51,15.0,Presentation,1.0,00270940422fb_sunabllobxadqcyttej.jpg,00648941031fa_sunadfndyrtqqiasoig.jpg,00270940422fb.jpg,sunabllobxadqcyttej.jpg,00648941031fa.jpg,sunadfndyrtqqiasoig.jpg,,Face,>,Place,1.068984031677246,,,,1.0,,,1.0,,1554128623.9557161,1554128626.940438,x,1.0,0.17647058823529413,7.0,424206321.5735294,1554128625.1470587,944.8347926470589,570.6759602941181,716.1784808823529,199.58374264705876,24.250144960219437,11.232954001225494
112,52,15.0,Presentation,1.0,00071940128fa_sunaaexpnawiehinlpy.jpg,00102931230fa_sunaajspcoepticvplv.jpg,00071940128fa.jpg,sunaaexpnawiehinlpy.jpg,00102931230fa.jpg,sunaajspcoepticvplv.jpg,,Face,<,Place,0.742095947265625,,,,1.0,,,1.0,,1554128631.780184,1554128634.744005,x,2.0,0.4444444444444444,7.0,424214247.52380955,1554128633.0952382,919.4099730158734,516.8894079365083,827.9246555555552,316.4050634920635,25.51040302455355,12.152211041666666
113,53,15.0,Presentation,1.0,00942960627fa_sunarfdklgdnjgeqfjg.jpg,00719941201fa_sunadvithllcgmfxsrn.jpg,00942960627fa.jpg,sunarfdklgdnjgeqfjg.jpg,00719941201fa.jpg,sunadvithllcgmfxsrn.jpg,,Face,>,Face,1.017108917236328,,,,1.0,,,3.0,,1554128639.298218,1554128642.262969,x,3.0,0.05970149253731343,7.0,424222078.98507464,1554128640.9104478,936.250226865672,522.9969402985076,766.4297029850742,222.5148999999998,24.858461866473306,10.872047671019903
114,54,15.0,Presentation,1.0,00532960627fa_sunaccdtpgenvcbcbcf.jpg,00140931230fb_sunaapllqyqlykszopd.jpg,00532960627fa.jpg,sunaccdtpgenvcbcbcf.jpg,00140931230fb.jpg,sunaapllqyqlykszopd.jpg,,Face,<,Place,0.8335778713226318,,,,1.0,,,1.0,,1554128647.134834,1554128650.0991971,x,4.0,0.3382352941176471,7.0,424230120.0441176,1554128649.0,927.2581544117646,532.5504852941181,756.4649779411765,144.86375441176472,24.581700028004352,9.878957662377449
115,55,15.0,Presentation,1.0,00790941205fa_sunagpjzsbltchlwvou.jpg,00647941031fa_sunadflbrkckmepztql.jpg,00790941205fa.jpg,sunagpjzsbltchlwvou.jpg,00647941031fa.jpg,sunadflbrkckmepztql.jpg,,Face,>,Face,0.9341599941253662,,,,1.0,,,1.0,,1554128654.821517,1554128657.7904284,x,5.0,0.273972602739726,7.0,424237212.2191781,1554128656.0136986,954.5767109589043,541.5619150684931,879.9920328767125,392.959783561644,26.78398703158445,13.628441438356171
116,56,15.0,Presentation,1.0,00481940519fa_sunabxsuqbleluwczoy.jpg,00728941205fa_sunaejnvnpltdmhbcsi.jpg,00481940519fa.jpg,sunabxsuqbleluwczoy.jpg,00728941205fa.jpg,sunaejnvnpltdmhbcsi.jpg,,Face,>,Face,0.9345848560333252,,,,0.0,,,1.0,,1554128662.502094,1554128665.469989,o,6.0,0.2047244094488189,7.0,424245077.37007874,1554128663.9133859,925.6640937007869,545.5004196850391,838.9241716535436,296.96566929133843,25.762299381882084,12.28596379757218
117,57,15.0,Presentation,1.0,00804960530fa_sunagwswhkvnsmuszlz.jpg,00705941205fa_sunadtlxenqqxsyjvix.jpg,00804960530fa.jpg,sunagwswhkvnsmuszlz.jpg,00705941205fa.jpg,sunadtlxenqqxsyjvix.jpg,,Face,<,Face,0.8004331588745117,,,,1.0,,,3.0,,1554128670.221433,1554128673.189291,o,7.0,0.016129032258064516,7.0,424253347.6451613,1554128672.1935484,902.4316274193546,535.0951161290324,747.2774612903231,194.3605967741936,24.085108277548503,10.637895813172042
118,58,15.0,Presentation,1.0,00999960627fa_sunbvbrvgbpanfrawft.jpg,00700941121fa_sunadsgmtznewzyasnk.jpg,00999960627fa.jpg,sunbvbrvgbpanfrawft.jpg,00700941121fa.jpg,sunadsgmtznewzyasnk.jpg,,Face,>,Place,1.164626121520996,,,,1.0,,,1.0,,1554128677.777725,1554128680.742833,x,8.0,0.37209302325581395,7.0,424260264.60465115,1554128679.0232558,948.5762767441865,539.1225790697678,799.6065418604655,289.6667558139534,25.522786267714388,12.086511133720933
119,59,15.0,Presentation,1.0,00092931230fa_sunaaheqzstzxuadglu.jpg,00115931230fa_sunaakmxzhuceuiryah.jpg,00092931230fa.jpg,sunaaheqzstzxuadglu.jpg,00115931230fa.jpg,sunaakmxzhuceuiryah.jpg,,Face,<,Place,1.0865089893341064,,,,1.0,,,3.0,,1554128685.697621,1554128688.663131,x,9.0,0.109375,7.0,424267952.984375,1554128686.75,927.2141437500001,547.0963406249997,765.3970265625,234.19640156250009,24.7114619103241,11.393852490234378
120,250,15.0,Presentation,5.0,00221940128fa_sunabcfpwlpolnutyju.jpg,00132931230fb_sunaanjcbzdvtvblsdy.jpg,00221940128fa.jpg,sunabcfpwlpolnutyju.jpg,00132931230fb.jpg,sunaanjcbzdvtvblsdy.jpg,,Face,<,Face,0.9188480377197266,,,,1.0,,,3.0,,1554129981.020533,1554129984.065898,o,0.0,1.0,7.0,425564207.9240506,1554129983.0253165,995.2058569620252,647.1203379746837,999.3017316455695,561.610236708861,29.119031689144087,17.62732088080169
121,251,15.0,Presentation,5.0,00838940307fa_sunaiozxhxgtfrmoagh.jpg,00780960530fa_sunagetqixeypsysbpn.jpg,00838940307fa.jpg,sunaiozxhxgtfrmoagh.jpg,00780960530fa.jpg,sunagetqixeypsysbpn.jpg,,Face,>,Face,1.0390310287475586,,,,1.0,,,3.0,,1554129988.784058,1554129991.769855,o,1.0,1.0,7.0,425571245.74025977,1554129990.051948,1040.44265064935,643.6575181818183,1008.1103675324672,586.6668311688314,29.908073849431826,17.942230094696967
122,252,15.0,Presentation,5.0,00129931230fb_sunaamsdyakblkfoydx.jpg,00675941121fa_sunadoxcchtmsxewsau.jpg,00129931230fb.jpg,sunaamsdyakblkfoydx.jpg,00675941121fa.jpg,sunadoxcchtmsxewsau.jpg,,Face,<,Place,1.1360878944396973,,,,1.0,,,1.0,,1554129996.607608,1554129999.5874438,x,2.0,0.8529411764705882,7.0,425579078.6617647,1554129997.9411764,986.2256764705883,620.1355279411764,1003.9659044117643,578.5068676470592,29.056019662296066,17.480201602328428
123,253,15.0,Presentation,5.0,00635941031fa_sunaddsaeicthrfbkhe.jpg,00260940128fa_sunabgfhvifeijihhjw.jpg,00635941031fa.jpg,sunaddsaeicthrfbkhe.jpg,00260940128fa.jpg,sunabgfhvifeijihhjw.jpg,,Face,<,Face,1.2074182033538818,,,,1.0,,,1.0,,1554130004.522423,1554130007.507543,x,3.0,1.0,7.0,425587192.61333334,1554130006.0,997.0898786666668,637.4943453333333,1018.0658879999999,585.5077386666667,29.420487023111978,17.83544705833334
124,254,15.0,Presentation,5.0,00082931230fa_sunaafvitpexrpvumsa.jpg,00308940422fb_sunabwfvcqqidycwypa.jpg,00082931230fa.jpg,sunaafvitpexrpvumsa.jpg,00308940422fb.jpg,sunabwfvcqqidycwypa.jpg,,Face,>,Place,0.9502861499786376,,,,1.0,,,1.0,,1554130012.509448,1554130015.493877,x,4.0,1.0,7.0,425595280.1851852,1554130014.1296296,1011.0177296296293,625.3779981481481,1037.539703703704,597.4302314814813,29.908138308919266,17.832620015432102
125,255,15.0,Presentation,5.0,00828940307fa_sunahuynahneraqftyz.jpg,00931960627fa_sunaptrqvaooxfvktvw.jpg,00828940307fa.jpg,sunahuynahneraqftyz.jpg,00931960627fa.jpg,sunaptrqvaooxfvktvw.jpg,,Face,<,Place,0.8353750705718994,,,,0.0,,,1.0,,1554130020.245598,1554130023.2287786,x,5.0,1.0,7.0,425603485.8113208,1554130022.3396227,989.1683773584907,624.2654056603775,1019.3788188679245,588.6149075471697,29.32400447615714,17.6878379009434
126,256,15.0,Presentation,5.0,00557940519fa_sunachtuarilwyqnvjx.jpg,00112931230fa_sunaakjaacuzulqckgl.jpg,00557940519fa.jpg,sunachtuarilwyqnvjx.jpg,00112931230fa.jpg,sunaakjaacuzulqckgl.jpg,,Face,>,Face,1.43576979637146,,,,1.0,,,1.0,,1554130027.847922,1554130030.833573,x,6.0,0.8627450980392157,7.0,425610184.5686275,1554130029.0196078,1012.2989843137256,643.4496960784313,1032.552360784314,621.0425352941176,29.854030868374696,18.440511707516343
127,257,15.0,Presentation,5.0,00926960627Fa_sunapqwoeotxshkukbh.jpg,00210940128fb_sunabanoxjtqxamkucc.jpg,00926960627Fa.jpg,sunapqwoeotxshkukbh.jpg,00210940128fb.jpg,sunabanoxjtqxamkucc.jpg,,Face,<,Place,0.8466191291809082,,,,1.0,,,3.0,,1554130036.050888,1554130039.036491,o,7.0,1.0,7.0,425618761.24390244,1554130037.6341465,989.316751219512,631.3034658536585,1029.6694341463417,578.2672243902439,29.4764096398628,17.639572566056913
128,258,15.0,Presentation,5.0,00663941121fa_sunadnjjzohjhbohlwq.jpg,00576941031fa_sunacvjlsylseoghjup.jpg,00663941121fa.jpg,sunadnjjzohjhbohlwq.jpg,00576941031fa.jpg,sunacvjlsylseoghjup.jpg,,Face,>,Place,1.2188198566436768,,,,1.0,,,1.0,,1554130043.6525722,1554130046.636714,x,8.0,0.8970588235294118,7.0,425626120.38235295,1554130044.9264705,1012.4352088235295,654.7555470588237,1006.4721117647061,572.0642294117645,29.475258244916123,17.89112174019607
129,259,15.0,Presentation,5.0,00633940928fa_sunadbhmrgrrpyzglxs.jpg,00305940422fa_sunabtrnbvpppgczjim.jpg,00633940928fa.jpg,sunadbhmrgrrpyzglxs.jpg,00305940422fa.jpg,sunabtrnbvpppgczjim.jpg,,Face,>,Face,1.6535248756408691,,,,1.0,,,3.0,,1554130051.6429448,1554130054.623543,o,9.0,1.0,7.0,425633476.9,1554130052.3,1016.846845,628.21433,1009.9231800000001,574.8185900000001,29.59005065795899,17.54423008333333
130,200,15.0,Presentation,4.0,00935960627fa_sunaqbmgkgqucajzrkp.jpg,00774941201fa_sunafvtpfczkzopbgue.jpg,00935960627fa.jpg,sunaqbmgkgqucajzrkp.jpg,00774941201fa.jpg,sunafvtpfczkzopbgue.jpg,,Face,>,Place,1.2054901123046875,,,,1.0,,,1.0,,1554129660.294867,1554129663.3292446,x,0.0,0.8533333333333334,7.0,425243236.24,1554129662.0533333,1001.3608173333336,641.4664746666667,1032.0687733333336,588.6187000000001,29.68727771529948,17.938742130555546
131,201,15.0,Presentation,4.0,00885960530fa_sunakwlvxjpddialozd.jpg,00773941201fa_sunafvcflzhlqloapyo.jpg,00885960530fa.jpg,sunakwlvxjpddialozd.jpg,00773941201fa.jpg,sunafvcflzhlqloapyo.jpg,,Face,>,Face,0.9518229961395264,,,,1.0,,,1.0,,1554129668.367817,1554129671.3484151,x,1.0,0.9473684210526315,7.0,425251439.8596491,1554129670.2982457,1011.4023228070175,628.8021333333332,1075.9866701754386,662.9265736842104,30.475063911218477,18.837710310672513
132,202,15.0,Presentation,4.0,00961960627fa_sunawotxrevnqvamsfp.jpg,00744941201fa_sunaeomlfaabhpswasy.jpg,00961960627fa.jpg,sunawotxrevnqvamsfp.jpg,00744941201fa.jpg,sunaeomlfaabhpswasy.jpg,,Face,<,Face,0.7840859889984131,,,,1.0,,,1.0,,1554129676.1002722,1554129679.083529,x,2.0,1.0,7.0,425259148.64705884,1554129677.9558823,992.0968514705881,615.7959220588234,1024.2633426470588,592.6377176470589,29.43807119341682,17.622990579044114
133,203,15.0,Presentation,4.0,00211940128fa_sunabasphceswhwwqvv.jpg,00267940128fb_sunablfqiwfqomjarht.jpg,00211940128fa.jpg,sunabasphceswhwwqvv.jpg,00267940128fb.jpg,sunablfqiwfqomjarht.jpg,,Face,>,Place,0.8488070964813232,,,,1.0,,,3.0,,1554129683.6683538,1554129686.6543038,x,3.0,1.0,7.0,425266146.37974685,1554129684.9746835,997.447917721519,621.454736708861,1020.6121658227856,597.744765822785,29.462888915026713,17.77999274525317
134,204,15.0,Presentation,4.0,00839940307fa_sunaipyohrqlwngaqif.jpg,00807941205fa_sunahawfngukizslzsd.jpg,00839940307fa.jpg,sunaipyohrqlwngaqif.jpg,00807941205fa.jpg,sunahawfngukizslzsd.jpg,,Face,<,Place,0.7357809543609619,,,,1.0,,,3.0,,1554129691.325978,1554129694.305182,o,4.0,1.0,7.0,425274175.20987654,1554129693.0,977.6129259259261,604.8180802469138,1028.9969839506175,625.4007641975311,29.295720852201477,17.940691481481487
135,205,15.0,Presentation,4.0,00727941205fa_sunaeisnjeetzmkbuad.jpg,00670941121fa_sunadochqcucscehsgk.jpg,00727941205fa.jpg,sunaeisnjeetzmkbuad.jpg,00670941121fa.jpg,sunadochqcucscehsgk.jpg,,Face,>,Place,1.0501539707183838,,,,1.0,,,3.0,,1554129698.928626,1554129701.908922,o,5.0,1.0,7.0,425281425.82758623,1554129700.275862,1010.3163120689652,619.0018482758618,1056.704298275862,633.0102172413793,30.177693481108562,18.258509288793107
136,206,15.0,Presentation,4.0,00937960627fa_sunaqsolmfydodnakub.jpg,01005960627fa_sunbwyuesflwdpqtgoy.jpg,00937960627fa.jpg,sunaqsolmfydodnakub.jpg,01005960627fa.jpg,sunbwyuesflwdpqtgoy.jpg,,Face,<,Place,0.7475590705871582,,,,1.0,,,1.0,,1554129706.759983,1554129709.7471519,x,6.0,1.0,7.0,425289391.93650794,1554129708.1904762,986.6144746031742,611.9246285714286,1045.0833793650793,640.2249095238094,29.661995035962295,18.26051409722222
137,207,15.0,Presentation,4.0,00893960530Fa_sunaloffvbvysigxent.jpg,00786941205fa_sunagmhildamktmqjss.jpg,00893960530Fa.jpg,sunaloffvbvysigxent.jpg,00786941205fa.jpg,sunagmhildamktmqjss.jpg,,Face,>,Face,1.5520620346069336,,,,1.0,,,3.0,,1554129714.316667,1554129717.298044,o,7.0,0.8611111111111112,7.0,425297181.1666667,1554129716.0,998.0134194444441,623.6480750000001,1028.0342583333331,632.061195833333,29.57950467068142,18.312426866319445
138,208,15.0,Presentation,4.0,00933960627fa_sunapwjkcxdaeqehfql.jpg,00914960620fa_sunaozisvwfbmlkfhzv.jpg,00933960627fa.jpg,sunapwjkcxdaeqehfql.jpg,00914960620fa.jpg,sunaozisvwfbmlkfhzv.jpg,,Face,<,Face,1.0335209369659424,,,,1.0,,,3.0,,1554129722.614656,1554129725.5998518,o,8.0,0.8253968253968254,7.0,425305047.9206349,1554129723.920635,991.379361904762,602.5288714285715,1077.0672682539685,671.3141507936507,30.198512813352547,18.57687740740741
139,209,15.0,Presentation,4.0,00793941205fa_sunagtjwilqjvxohypn.jpg,00908960530fa_sunanwjjyqqwzqrqagd.jpg,00793941205fa.jpg,sunagtjwilqjvxohypn.jpg,00908960530fa.jpg,sunanwjjyqqwzqrqagd.jpg,,Face,<,Face,1.0334310531616209,,,,1.0,,,1.0,,1554129730.417386,1554129733.40454,x,9.0,0.7105263157894737,7.0,425313166.31578946,1554129732.0,994.6877315789475,604.0156026315791,1174.989555263158,672.1433289473683,31.67644085770456,18.610651085526314
140,300,15.0,Presentation,6.0,00620940928fa_sunacypmnujalygkunp.jpg,00977960627fa_sunbbxkanhzjgbwyxqs.jpg,00620940928fa.jpg,sunacypmnujalygkunp.jpg,00977960627fa.jpg,sunbbxkanhzjgbwyxqs.jpg,,Face,>,Face,1.002086162567139,,,,1.0,,,3.0,,1554130299.4192731,1554130302.454129,o,0.0,0.8181818181818182,7.0,425882184.7532467,1554130301.012987,1040.1539051948055,615.5124077922077,1047.6095363636366,600.0277363636361,30.480530714158892,17.726627102272726
141,301,15.0,Presentation,6.0,00874940307fa_sunajtrfunvzdfticna.jpg,00866940307fa_sunajbwkywmsqkldfml.jpg,00874940307fa.jpg,sunajtrfunvzdfticna.jpg,00866940307fa.jpg,sunajbwkywmsqkldfml.jpg,,Face,<,Place,0.8243131637573242,,,,1.0,,,1.0,,1554130307.238964,1554130310.223813,x,1.0,0.7972972972972973,7.0,425890189.7972973,1554130309.0,1022.5393905405406,645.7572202702705,1020.7519189189186,623.5482716216217,29.83125495744035,18.510705090090084
142,302,15.0,Presentation,6.0,00877960530fa_sunajxpkuhbizeveguy.jpg,00791941205fa_sunagrmyoovzukhxmlo.jpg,00877960530fa.jpg,sunajxpkuhbizeveguy.jpg,00791941205fa.jpg,sunagrmyoovzukhxmlo.jpg,,Face,<,Face,0.7675611972808838,,,,1.0,,,3.0,,1554130314.8114018,1554130317.792067,o,2.0,0.8,7.0,425897150.73333335,1554130315.9666667,1021.8232433333336,612.8202949999999,1031.3072533333336,628.1505883333332,29.97490324723307,18.097492048611112
143,303,15.0,Presentation,6.0,00835940307fa_sunaijsqpvodplbwxkf.jpg,00911960530fa_sunaooaqzputrowwbsw.jpg,00835940307fa.jpg,sunaijsqpvodplbwxkf.jpg,00911960530fa.jpg,sunaooaqzputrowwbsw.jpg,,Face,>,Face,0.9014630317687988,,,,0.0,,,3.0,,1554130322.3641381,1554130325.344902,o,3.0,0.8875,7.0,425905160.2375,1554130323.9875,1021.2129299999999,599.3560862500001,1044.9218525,654.0657475,30.16476074060058,18.279068408854172
144,304,15.0,Presentation,6.0,00638941031fa_sunadfktsqjthoglcsm.jpg,00816941205fa_sunahmhrncocyhsjpxk.jpg,00638941031fa.jpg,sunadfktsqjthoglcsm.jpg,00816941205fa.jpg,sunahmhrncocyhsjpxk.jpg,,Face,<,Face,1.0370240211486816,,,,1.0,,,1.0,,1554130330.0327554,1554130333.013515,x,4.0,1.0,7.0,425913170.1875,1554130332.0,1008.5497300000003,590.0532925,1051.0053475,619.9885750000001,30.068699617797847,17.64644390104167
145,305,15.0,Presentation,6.0,00482940519fa_sunabyfxcxhdebvdyfd.jpg,00076931230fa_sunaafewhewbxmjiurz.jpg,00482940519fa.jpg,sunabyfxcxhdebvdyfd.jpg,00076931230fa.jpg,sunaafewhewbxmjiurz.jpg,,Face,>,Place,0.9859259128570556,,,,1.0,,,3.0,,1554130337.83148,1554130340.819761,o,5.0,0.8142857142857143,7.0,425920285.1857143,1554130339.1285715,1055.5343157142859,635.5844814285715,1046.4444085714285,656.1475185714287,30.688068289132246,18.837758333333333
146,306,15.0,Presentation,6.0,00785941205fa_sunaglqunwuycxydmyu.jpg,00498960627fa_sunabzjxlmkwnwzimua.jpg,00785941205fa.jpg,sunaglqunwuycxydmyu.jpg,00498960627fa.jpg,sunabzjxlmkwnwzimua.jpg,,Face,>,Place,0.8511919975280762,,,,1.0,,,3.0,,1554130345.655995,1554130348.635078,o,6.0,0.676056338028169,7.0,425928058.46478873,1554130346.8873239,1047.7667507042254,661.3261718309859,1038.883494366197,703.6408971830986,30.46427848027618,19.9057697564554
147,307,15.0,Presentation,6.0,00982960627fa_sunbesrwkdsffeogeqq.jpg,00747941201fa_sunaeutbrtswvsozxyk.jpg,00982960627fa.jpg,sunbesrwkdsffeogeqq.jpg,00747941201fa.jpg,sunaeutbrtswvsozxyk.jpg,,Face,<,Place,0.7977461814880371,,,,1.0,,,1.0,,1554130353.257926,1554130356.242794,x,7.0,1.0,7.0,425936051.8103448,1554130354.9310346,1009.4946068965518,618.670179310345,1037.0065982758622,625.6616517241379,29.878118180983964,18.146505869252874
148,308,15.0,Presentation,6.0,00892960530fa_sunalntxqqadigcletd.jpg,00989960627fa_sunbondbduabvijnmch.jpg,00892960530fa.jpg,sunalntxqqadigcletd.jpg,00989960627fa.jpg,sunbondbduabvijnmch.jpg,,Face,<,Place,1.0352590084075928,,,,1.0,,,1.0,,1554130360.84429,1554130363.8233972,x,8.0,0.574468085106383,7.0,425942784.36170214,1554130361.6382978,1045.853525531915,643.9322297872342,1060.3431808510638,685.7057744680852,30.749649180103063,19.390554228723406
149,309,15.0,Presentation,6.0,00681941121fa_sunadqmjrhfjyuzyvdd.jpg,00818940307fa_sunahpblecxtmuzkmxb.jpg,00681941121fa.jpg,sunadqmjrhfjyuzyvdd.jpg,00818940307fa.jpg,sunahpblecxtmuzkmxb.jpg,,Face,>,Face,1.5787131786346436,,,,1.0,,,3.0,,1554130368.642202,1554130371.716332,o,9.0,0.6521739130434783,7.0,425951170.0652174,1554130370.0652175,1052.7177804347825,643.7167717391303,1106.9088630434783,729.1725760869567,31.529705390625,20.021302989130426
150,350,15.0,Presentation,7.0,00773960620fa_sunafvsxtzaizojicxx.jpg,00694941121fa_sunadrmfzmstgdjdcod.jpg,00773960620fa.jpg,sunafvsxtzaizojicxx.jpg,00694941121fa.jpg,sunadrmfzmstgdjdcod.jpg,,Face,>,Face,0.982830047607422,,,,0.0,,,1.0,,1554130610.3208768,1554130613.360224,x,0.0,0.8169014084507042,7.0,426193238.29577464,1554130612.0704226,985.7678183098592,676.475408450704,1041.656925352113,641.4773929577467,29.5996092946743,19.2201450205399
151,351,15.0,Presentation,7.0,00776941205fa_sunafxokyavhgptyfye.jpg,00797960620fa_sunagufzbeteqdjxais.jpg,00776941205fa.jpg,sunafxokyavhgptyfye.jpg,00797960620fa.jpg,sunagufzbeteqdjxais.jpg,,Face,>,Place,1.0515599250793457,,,,1.0,,,1.0,,1554130618.161205,1554130621.149499,x,1.0,0.8571428571428571,7.0,426201174.5194805,1554130620.012987,996.2995545454544,677.0644987012987,1020.1119129870128,635.9997714285716,29.438819765244514,19.148853939393945
152,352,15.0,Presentation,7.0,00943960627fa_sunarpsxqkduedrrzyi.jpg,00280940422fb_sunabohxbskznglnrhv.jpg,00943960627fa.jpg,sunarpsxqkduedrrzyi.jpg,00280940422fb.jpg,sunabohxbskznglnrhv.jpg,,Face,>,Face,0.9349708557128906,,,,1.0,,,3.0,,1554130626.0136304,1554130629.0020778,o,2.0,0.863013698630137,7.0,426209068.8767123,1554130627.890411,998.3688178082193,649.2166452054794,1076.8922835616438,650.5340657534246,30.298001431132278,18.95469786815069
153,353,15.0,Presentation,7.0,00162931230fb_sunaavjinpnkappuonm.jpg,00970960627fa_sunbasypfgzjtomktmu.jpg,00162931230fb.jpg,sunaavjinpnkappuonm.jpg,00970960627fa.jpg,sunbasypfgzjtomktmu.jpg,,Face,<,Place,0.9160928726196288,,,,0.0,,,3.0,,1554130633.715761,1554130636.696657,o,3.0,0.9253731343283582,7.0,426216378.73134327,1554130635.2238805,981.1460850746269,659.2307791044774,1049.3966014925372,618.1938402985077,29.64513004314366,18.62910903296019
154,354,15.0,Presentation,7.0,00777941205fa_sunagcinxkccdtrjmlv.jpg,00071941031fa_sunaaexqbtdswxrqjvz.jpg,00777941205fa.jpg,sunagcinxkccdtrjmlv.jpg,00071941031fa.jpg,sunaaexqbtdswxrqjvz.jpg,,Face,>,Face,0.8560888767242432,,,,1.0,,,1.0,,1554130641.414705,1554130644.398442,x,4.0,0.927536231884058,7.0,426224071.82608694,1554130642.8985507,978.4680710144931,644.885892753623,1038.1297188405797,587.5341449275364,29.44153999837238,17.972792216183578
155,355,15.0,Presentation,7.0,00901960530fa_sunammbnoambmhdxdwd.jpg,00834940307fa_sunaibnpvhkdpdnzcnz.jpg,00901960530fa.jpg,sunammbnoambmhdxdwd.jpg,00834940307fa.jpg,sunaibnpvhkdpdnzcnz.jpg,,Face,<,Face,0.8793079853057861,,,,0.0,,,3.0,,1554130649.049703,1554130652.040269,o,5.0,0.875,7.0,426232072.425,1554130650.85,988.140395,698.0851775,1042.93959,644.5667000000001,29.65297439038086,19.580339880208335
156,356,15.0,Presentation,7.0,00062931230fb_sunaaelotvjgibjtjhs.jpg,00147931230fb_sunaatpkocdkocwxpkb.jpg,00062931230fb.jpg,sunaaelotvjgibjtjhs.jpg,00147931230fb.jpg,sunaatpkocdkocwxpkb.jpg,,Face,<,Place,1.0414061546325684,,,,1.0,,,3.0,,1554130656.723958,1554130659.704377,o,6.0,0.8666666666666667,7.0,426239241.9,1554130658.1,952.4753849999998,653.1463116666666,1028.3808816666667,664.5971916666666,28.91972772135417,19.217092756944446
157,357,15.0,Presentation,7.0,00985960627fa_sunbgklxeqjhdbyfhhy.jpg,00065931230fb_sunaaemixhfquhnxxlm.jpg,00985960627fa.jpg,sunbgklxeqjhdbyfhhy.jpg,00065931230fb.jpg,sunaaemixhfquhnxxlm.jpg,,Face,<,Face,0.8313000202178955,,,,1.0,,,3.0,,1554130664.538043,1554130667.528653,o,7.0,1.0,7.0,426247164.7625,1554130666.0,953.5061262500001,637.0373399999997,1018.0584837500003,585.99655125,28.784073163574213,17.835910914062495
158,358,15.0,Presentation,7.0,00768941205fa_sunafkmnlytenlsywia.jpg,00800941205fb_sunagvjurcwdbixvnyi.jpg,00768941205fa.jpg,sunafkmnlytenlsywia.jpg,00800941205fb.jpg,sunagvjurcwdbixvnyi.jpg,,Face,>,Place,0.8135550022125244,,,,1.0,,,3.0,,1554130672.129038,1554130675.115447,o,8.0,0.8636363636363636,7.0,426255142.5,1554130673.969697,979.6083469696966,662.1501212121211,1057.8824106060601,648.919877272727,29.74656916577889,19.119770811237384
159,359,15.0,Presentation,7.0,00778941205fa_sunagcthdfirrcawoic.jpg,00146960620fb_sunaatpeezlljqaxlhj.jpg,00778941205fa.jpg,sunagcthdfirrcawoic.jpg,00146960620fb.jpg,sunaatpeezlljqaxlhj.jpg,,Face,<,Place,0.7364428043365479,,,,1.0,,,1.0,,1554130679.709409,1554130682.700964,x,9.0,0.8571428571428571,7.0,426262189.2285714,1554130680.9857142,998.5583928571432,678.59496,1022.0108600000003,607.2269399999998,29.49952180684988,18.751569374999995
160,150,1.0,Presentation,3.0,00787960620fa_sunagoufulkpsxrmklt.jpg,00302940422fa_sunabtlfmiwtljmoues.jpg,00787960620fa.jpg,sunagoufulkpsxrmklt.jpg,00302940422fa.jpg,sunabtlfmiwtljmoues.jpg,,Face,<,Face,0.7699050903320312,,,,0.0,,,3.0,,1550775816.954626,1550775819.972135,o,0.0,0.9473684210526315,7.0,292624711.9736842,1550775818.0657895,970.3226618421058,503.1873592105263,993.0785552631572,516.8544039473687,28.664890816136403,14.87560904605262
161,151,1.0,Presentation,3.0,00630941031fa_sunadakkdovnuzlycvp.jpg,00294940422fb_sunabrlndkruqokhury.jpg,00630941031fa.jpg,sunadakkdovnuzlycvp.jpg,00294940422fb.jpg,sunabrlndkruqokhury.jpg,,Face,<,Place,0.7794990539550781,,,,1.0,,,3.0,,1550775824.594028,1550775827.558864,o,1.0,1.0,7.0,292632562.53333336,1550775825.92,1011.2650346666674,511.585202666667,1051.2103853333335,532.8346746666671,30.111335477539058,15.23112321111112
162,152,1.0,Presentation,3.0,00910960530fa_sunaofikylqtxphvdem.jpg,00751960620fa_sunaezuszgtxnmsxdbk.jpg,00910960530fa.jpg,sunaofikylqtxphvdem.jpg,00751960620fa.jpg,sunaezuszgtxnmsxdbk.jpg,,Face,<,Face,0.7055649757385254,,,,1.0,,,1.0,,1550775832.1304061,1550775835.093175,x,2.0,1.0,7.0,292640618.0945946,1550775833.9864864,949.4466013513517,543.3421918918921,952.4201013513513,545.689485135135,27.76651094277873,15.881711956644137
163,153,1.0,Presentation,3.0,00869940307fa_sunajoveqhiprwqgoco.jpg,00906960530fa_sunantryfbloeaomfta.jpg,00869940307fa.jpg,sunajoveqhiprwqgoco.jpg,00906960530fa.jpg,sunantryfbloeaomfta.jpg,,Face,>,Place,0.8218429088592529,,,,1.0,,,1.0,,1550775839.582465,1550775842.546236,x,3.0,0.868421052631579,7.0,292647685.65789473,1550775841.0657895,1009.8087078947369,496.882138157895,1047.560292105263,517.8822078947364,30.036783740234384,14.798646713267539
164,154,1.0,Presentation,3.0,00125931230fa_sunaalltyvjhbzhkmvg.jpg,00891960530fa_sunalkiibhqpxfamlll.jpg,00125931230fa.jpg,sunaalltyvjhbzhkmvg.jpg,00891960530fa.jpg,sunalkiibhqpxfamlll.jpg,,Face,>,Face,0.8375849723815918,,,,1.0,,,3.0,,1550775847.147197,1550775850.114722,o,4.0,0.8518518518518519,7.0,292655470.3518519,1550775848.9074075,1006.4942407407407,490.25576481481477,1063.6988546296297,515.250500925926,30.224010523229527,14.663633042052469
165,155,1.0,Presentation,3.0,00801941205fa_sunagvprlbprarvgdvj.jpg,00122931230fa_sunaakxjfbrrequcjmx.jpg,00801941205fa.jpg,sunagvprlbprarvgdvj.jpg,00122931230fa.jpg,sunaakxjfbrrequcjmx.jpg,,Face,>,Face,0.9488298892974854,,,,1.0,,,3.0,,1550775854.7331312,1550775857.702332,o,5.0,1.0,7.0,292662655.69135803,1550775856.0,1004.2823691358028,474.1229209876542,1061.3786000000002,508.3663185185182,30.157843250566646,14.327968076131675
166,156,1.0,Presentation,3.0,00080931230fb_sunaafjszryxyavjzln.jpg,00741941201fa_sunaemcowdozyphwknd.jpg,00080931230fb.jpg,sunaafjszryxyavjzln.jpg,00741941201fa.jpg,sunaemcowdozyphwknd.jpg,,Face,<,Place,0.8014678955078125,,,,1.0,,,1.0,,1550775862.4404821,1550775865.403095,o,6.0,1.0,7.0,292670654.7894737,1550775864.0,1028.114381578947,477.0382236842107,1071.1036631578952,511.05096973684186,30.647763446109167,14.409634070723682
167,157,1.0,Presentation,3.0,00077931230fb_sunaafgqutfaishsxyu.jpg,00880960530fa_sunakmnfgklupjijsgf.jpg,00077931230fb.jpg,sunaafgqutfaishsxyu.jpg,00880960530fa.jpg,sunakmnfgklupjijsgf.jpg,,Face,<,Place,0.9225211143493652,,,,1.0,,,1.0,,1550775869.976247,1550775872.942168,x,7.0,0.6551724137931034,7.0,292677613.5724138,1550775871.0068965,1018.2980448275863,479.86418000000043,1085.2125793103448,514.7174786206898,30.710433428576263,14.50431585488506
168,158,1.0,Presentation,3.0,00762941201fa_sunafgzgbisbopcyslr.jpg,00634940928fa_sunadcphrizvfpljiqt.jpg,00762941201fa.jpg,sunafgzgbisbopcyslr.jpg,00634940928fa.jpg,sunadcphrizvfpljiqt.jpg,,Face,>,Face,0.7996439933776855,,,,1.0,,,3.0,,1550775877.640274,1550775880.6100712,o,8.0,0.8439716312056738,7.0,292685544.71631205,1550775878.93617,1010.6914212765952,458.9334595744685,1061.33895177305,495.54588439716343,30.250834059660363,13.919490432919618
169,159,1.0,Presentation,3.0,00631940928fa_sunadbdqzigzwipuipr.jpg,00742941201fa_sunaenwuebvlpdmntju.jpg,00631940928fa.jpg,sunadbdqzigzwipuipr.jpg,00742941201fa.jpg,sunaenwuebvlpdmntju.jpg,,Face,>,Place,1.0168240070343018,,,,1.0,,,3.0,,1550775885.179874,1550775888.150489,o,9.0,0.8484848484848485,7.0,292693633.77272725,1550775887.0151515,1030.6005606060612,426.39769242424245,1094.0860439393932,484.0285424242423,31.01959447065874,13.277049258207061
170,100,1.0,Presentation,2.0,00727941205fa_sunaeisnjeetzmkbuad.jpg,00761960627fa_sunafgdqbclkwfocdhg.jpg,00727941205fa.jpg,sunaeisnjeetzmkbuad.jpg,00761960627fa.jpg,sunafgdqbclkwfocdhg.jpg,,Face,>,Place,1.0523629188537598,,,,1.0,,,3.0,,1550775445.848371,1550775448.919345,o,0.0,0.7692307692307693,7.0,292253722.09090906,1550775447.0489511,1007.925246853147,635.4149692307687,954.2521055944056,627.2200405594406,28.64702287020596,18.41342722610722
171,101,1.0,Presentation,2.0,00147931230fb_sunaatpkocdkocwxpkb.jpg,00807941205fa_sunahawfngukizslzsd.jpg,00147931230fb.jpg,sunaatpkocdkocwxpkb.jpg,00807941205fa.jpg,sunahawfngukizslzsd.jpg,,Face,<,Face,0.7393620014190674,,,,1.0,,,1.0,,1550775453.95621,1550775456.987485,x,1.0,0.9473684210526315,7.0,292261721.7236842,1550775455.0657895,1000.4821578947376,667.9808828947367,953.2888513157898,646.1756092105259,28.524293542673217,19.164782176535105
172,102,1.0,Presentation,2.0,00913960530fa_sunaooffzffbhcpirmm.jpg,00791941205fa_sunagrmyoovzukhxmlo.jpg,00913960530fa.jpg,sunaooffzffbhcpirmm.jpg,00791941205fa.jpg,sunagrmyoovzukhxmlo.jpg,,Face,>,Place,1.119032859802246,,,,1.0,,,1.0,,1550775461.592129,1550775464.605866,x,2.0,0.8125,7.0,292269592.734375,1550775462.9375,1087.3925859375,679.5210140625,998.4222140625003,660.9312687499998,30.452081308593762,19.548262457682295
173,103,1.0,Presentation,2.0,00194940128fb_sunaayehfdqcyxggsej.jpg,00815941205fa_sunahiphsekjihkafsl.jpg,00194940128fb.jpg,sunaayehfdqcyxggsej.jpg,00815941205fa.jpg,sunahiphsekjihkafsl.jpg,,Face,>,Face,0.7581989765167236,,,,1.0,,,1.0,,1550775469.672977,1550775472.69124,x,3.0,1.0,7.0,292277639.19753087,1550775471.0,1011.7632259259265,701.1951592592593,939.5558345679012,677.7422283950622,28.48849604920186,20.10950356995884
174,104,1.0,Presentation,2.0,00638941031fa_sunadfktsqjthoglcsm.jpg,00589940928fa_sunacwggadqsfpovdjv.jpg,00638941031fa.jpg,sunadfktsqjthoglcsm.jpg,00589940928fa.jpg,sunacwggadqsfpovdjv.jpg,,Face,<,Place,1.0813848972320557,,,,1.0,,,3.0,,1550775477.580559,1550775480.601551,o,4.0,0.9253731343283582,7.0,292285693.880597,1550775479.0,1086.2474970149246,688.7645522388066,982.0715014925372,686.4802373134329,30.196649441100156,20.05565318097014
175,105,1.0,Presentation,2.0,00796941205fa_sunaguchqqnrtodtezq.jpg,00804960530fa_sunagwswhkvnsmuszlz.jpg,00796941205fa.jpg,sunaguchqqnrtodtezq.jpg,00804960530fa.jpg,sunagwswhkvnsmuszlz.jpg,,Face,<,Face,0.9175820350646972,,,,1.0,,,3.0,,1550775485.627898,1550775488.651092,o,5.0,1.0,7.0,292293527.29333335,1550775486.8933334,1064.8802679999994,680.3330053333333,971.0271279999994,663.2257626666666,29.723452705273424,19.593565366666656
176,106,1.0,Presentation,2.0,00102931230fa_sunaajspcoepticvplv.jpg,00892960530fa_sunalntxqqadigcletd.jpg,00102931230fa.jpg,sunaajspcoepticvplv.jpg,00892960530fa.jpg,sunalntxqqadigcletd.jpg,,Face,<,Place,3.062641859054565,,,,1.0,,,3.0,,1550775493.447474,1550775496.467634,o,6.0,1.0,7.0,292301663.74025977,1550775495.0,1058.8849961038957,665.0220350649345,997.1642584415576,664.5147376623378,30.017515972123586,19.389077935606068
177,107,1.0,Presentation,2.0,00609940928fa_sunacycdoztxoluxjyk.jpg,00211940128fa_sunabasphceswhwwqvv.jpg,00609940928fa.jpg,sunacycdoztxoluxjyk.jpg,00211940128fa.jpg,sunabasphceswhwwqvv.jpg,,Face,>,Place,0.7115340232849121,,,,1.0,,,3.0,,1550775503.405649,1550775506.42351,o,7.0,0.8142857142857143,7.0,292311570.21428573,1550775504.9142857,1129.945457142858,667.2664357142863,1078.2361557142847,651.9198399999999,32.23858897677174,19.238133187500004
178,108,1.0,Presentation,2.0,00836940307fa_sunainqelldeebvxtcz.jpg,00783941205fa_sunagjeesomrwjsfqie.jpg,00836940307fa.jpg,sunainqelldeebvxtcz.jpg,00783941205fa.jpg,sunagjeesomrwjsfqie.jpg,,Face,<,Face,0.7979958057403564,,,,1.0,,,1.0,,1550775510.992059,1550775514.005686,x,8.0,1.0,7.0,292319042.59183675,1550775512.4081633,1037.5678836734683,628.7059663265306,998.6630418367348,632.2943846938779,29.72817610974371,18.389588452380966
179,109,1.0,Presentation,2.0,00292940422fb_sunabrjdpmoedcdjbpo.jpg,00972960627fa_sunbbfqwjpdxniyhies.jpg,00292940422fb.jpg,sunabrjdpmoedcdjbpo.jpg,00972960627fa.jpg,sunbbfqwjpdxniyhies.jpg,,Face,>,Face,0.6697328090667725,,,,1.0,,,3.0,,1550775518.672414,1550775521.691736,o,9.0,1.0,7.0,292326740.37593985,1550775520.0977445,1060.3721954887212,631.0303669172931,1027.7026142857142,633.394218045113,30.485076568484192,18.439525197368425
180,50,1.0,Presentation,1.0,00663941121fa_sunadnjjzohjhbohlwq.jpg,00507940519fa_sunacacflqoyxhsqzhe.jpg,00663941121fa.jpg,sunadnjjzohjhbohlwq.jpg,00507940519fa.jpg,sunacacflqoyxhsqzhe.jpg,,Face,>,Place,0.8679931163787842,,,,1.0,,,1.0,,1550775107.805094,1550775110.807237,x,0.0,0.6153846153846154,7.0,291915602.4230769,1550775109.0,1087.1090999999994,509.8575076923077,1068.0590750000001,500.01058653846155,31.464613492431656,14.727243040865384
181,51,1.0,Presentation,1.0,00163931230fb_sunaavodbcpygkggnfp.jpg,00944960627fa_sunasbbntuiheekqyaq.jpg,00163931230fb.jpg,sunaavodbcpygkggnfp.jpg,00944960627fa.jpg,sunasbbntuiheekqyaq.jpg,,Face,<,Face,0.7385311126708984,,,,1.0,,,1.0,,1550775115.4411,1550775118.39194,x,1.0,0.84375,7.0,291923631.6875,1550775116.921875,983.3461828125,565.0614937500001,1008.4916921875,540.4434312499999,29.08005491333008,16.121946822916666
182,52,1.0,Presentation,1.0,00947960627fa_sunasmmcxdddtmtazwx.jpg,00973960627fa_sunbbgtoeuzierkkajt.jpg,00947960627fa.jpg,sunasmmcxdddtmtazwx.jpg,00973960627fa.jpg,sunbbgtoeuzierkkajt.jpg,,Face,<,Place,0.7981810569763184,,,,1.0,,,3.0,,1550775122.8981779,1550775125.847305,o,2.0,1.0,7.0,291930611.3717949,1550775123.9871795,1026.0263410256412,534.4573371794871,1000.3232089743591,501.2797064102563,29.583911887207023,15.104498552350428
183,53,1.0,Presentation,1.0,00265940128fb_sunabkmdplkdbvxriff.jpg,00957960627fa_sunavhxgmgrqsaptynb.jpg,00265940128fb.jpg,sunabkmdplkdbvxriff.jpg,00957960627fa.jpg,sunavhxgmgrqsaptynb.jpg,,Face,<,Face,0.7896389961242676,,,,1.0,,,1.0,,1550775130.383219,1550775133.33039,x,3.0,0.8985507246376812,7.0,291938806.8695652,1550775132.173913,1021.9976594202898,571.1546985507248,1009.4810043478262,549.6393536231884,29.65879494466146,16.344913260869568
184,54,1.0,Presentation,1.0,00984960627fa_sunbfzchmomnvzhbxdg.jpg,00290940422fa_sunabqowuarvqqcnipn.jpg,00984960627fa.jpg,sunbfzchmomnvzhbxdg.jpg,00290940422fa.jpg,sunabqowuarvqqcnipn.jpg,,Face,<,Place,0.6480128765106201,,,,1.0,,,3.0,,1550775137.84853,1550775140.803133,o,4.0,0.8793103448275862,7.0,291945517.2241379,1550775138.8448277,1043.4754275862072,562.4110086206897,1015.8049293103448,535.059196551724,30.064688804300232,16.00477382543103
185,55,1.0,Presentation,1.0,00306940422fa_sunabueyoajufbkraki.jpg,00989960627fa_sunbondbduabvijnmch.jpg,00306940422fa.jpg,sunabueyoajufbkraki.jpg,00989960627fa.jpg,sunbondbduabvijnmch.jpg,,Face,>,Face,0.8824849128723145,,,,1.0,,,3.0,,1550775145.171006,1550775148.1367831,o,5.0,0.9180327868852459,7.0,291953666.852459,1550775147.0,1053.9305311475412,607.8996131147541,1012.480481967213,563.0766754098362,30.16879359967342,17.076737540983615
186,56,1.0,Presentation,1.0,00725941201fa_sunaefgzwiramypjvtd.jpg,00884960530fa_sunakodkcslgqhqlgwl.jpg,00725941201fa.jpg,sunaefgzwiramypjvtd.jpg,00884960530fa.jpg,sunakodkcslgqhqlgwl.jpg,,Face,<,Face,0.7686190605163574,,,,1.0,,,1.0,,1550775152.753187,1550775155.704252,x,6.0,0.8115942028985508,7.0,291960636.71014494,1550775153.9710145,1057.3319695652176,623.7111086956519,1014.5815391304347,577.9216797101451,30.249127885742183,17.523811497584546
187,57,1.0,Presentation,1.0,00131931230fb_sunaangbuylfvckqqoo.jpg,00101931230fb_sunaajqmsaavkmgbsth.jpg,00131931230fb.jpg,sunaangbuylfvckqqoo.jpg,00101931230fb.jpg,sunaajqmsaavkmgbsth.jpg,,Face,>,Place,1.0539519786834717,,,,1.0,,,1.0,,1550775160.204948,1550775163.157675,x,7.0,0.8356164383561644,7.0,291968662.05479455,1550775162.0273972,1048.9942410958904,567.281493150685,1018.9346589041094,550.5059369863013,30.190954155273424,16.301066689497716
188,58,1.0,Presentation,1.0,00316940422fa_sunabxmguapjekttvwm.jpg,00719941201fa_sunadvithllcgmfxsrn.jpg,00316940422fa.jpg,sunabxmguapjekttvwm.jpg,00719941201fa.jpg,sunadvithllcgmfxsrn.jpg,,Face,>,Place,0.797313928604126,,,,1.0,,,1.0,,1550775167.946281,1550775170.897192,x,8.0,0.9473684210526315,7.0,291975554.1447368,1550775168.9342105,1037.641994736842,558.6877710526318,1027.8200605263157,545.7636078947368,30.15493918572678,16.106582609649124
189,59,1.0,Presentation,1.0,01004960627fa_sunbwtlihsuptkrckid.jpg,00834940307fa_sunaibnpvhkdpdnzcnz.jpg,01004960627fa.jpg,sunbwtlihsuptkrckid.jpg,00834940307fa.jpg,sunaibnpvhkdpdnzcnz.jpg,,Face,>,Face,0.8485469818115234,,,,1.0,,,1.0,,1550775175.4308732,1550775178.382122,x,9.0,0.7936507936507936,7.0,291983514.0793651,1550775176.936508,1053.6217666666664,558.0899714285713,1063.8103825396825,550.7491174603177,30.913682256479408,16.1705700462963
190,250,1.0,Presentation,5.0,00828940307fa_sunahuynahneraqftyz.jpg,00778941205fa_sunagcthdfirrcawoic.jpg,00828940307fa.jpg,sunahuynahneraqftyz.jpg,00778941205fa.jpg,sunagcthdfirrcawoic.jpg,,Face,<,Place,0.8711168766021729,,,,1.0,,,3.0,,1550776549.644064,1550776552.695061,o,0.0,0.7603305785123967,7.0,293357656.4958678,1550776551.0165288,935.5480851239671,509.53219586776856,1011.0203876033058,543.5230495867767,28.41913932350851,15.357055662878789
191,251,1.0,Presentation,5.0,00564941031fa_sunacsaovnjezqwbykf.jpg,00081941031fa_sunaaftlyfudyzuhqzf.jpg,00564941031fa.jpg,sunacsaovnjezqwbykf.jpg,00081941031fa.jpg,sunaaftlyfudyzuhqzf.jpg,,Face,<,Face,0.7683479785919191,,,,1.0,,,3.0,,1550776557.3640401,1550776560.366326,o,1.0,0.8831168831168831,7.0,293365645.9220779,1550776558.987013,987.4971064935057,552.2609558441563,1043.7552948051946,579.4304506493507,29.65549160099175,16.50383301136365
192,252,1.0,Presentation,5.0,00827940307fa_sunahtfxgsrmkiulnwk.jpg,00070940307fa_sunaaeplwsfslcbtojr.jpg,00827940307fa.jpg,sunahtfxgsrmkiulnwk.jpg,00070940307fa.jpg,sunaaeplwsfslcbtojr.jpg,,Face,>,Face,0.9728507995605468,,,,1.0,,,3.0,,1550776564.915142,1550776567.916717,o,2.0,0.8389261744966443,7.0,293372721.4228188,1550776566.0604026,1036.4654744966444,625.7492409395973,1054.2000697986573,632.7794939597318,30.52290028048317,18.35354405061522
193,253,1.0,Presentation,5.0,00786941205fa_sunagmhildamktmqjss.jpg,00620940928fa_sunacypmnujalygkunp.jpg,00786941205fa.jpg,sunagmhildamktmqjss.jpg,00620940928fa.jpg,sunacypmnujalygkunp.jpg,,Face,<,Face,0.703204870223999,,,,1.0,,,3.0,,1550776572.668593,1550776575.668915,o,3.0,1.0,7.0,293380634.98734176,1550776573.987342,1001.6608367088612,551.6015101265825,1013.5497405063296,589.3155101265821,29.42128723571005,16.638373212025318
194,254,1.0,Presentation,5.0,00937960627fa_sunaqsolmfydodnakub.jpg,00145931230fb_sunaatjesvdupctftmn.jpg,00937960627fa.jpg,sunaqsolmfydodnakub.jpg,00145931230fb.jpg,sunaatjesvdupctftmn.jpg,,Face,>,Place,0.8017799854278564,,,,1.0,,,1.0,,1550776580.141246,1550776583.1395938,x,4.0,0.9605263157894737,7.0,293388573.1052632,1550776581.9342105,1035.7350934210526,581.656196052632,1014.4642749999998,617.080067105263,29.93210991981908,17.48157050438597
195,255,1.0,Presentation,5.0,00138931230fa_sunaapfaivxqoynnwwp.jpg,00915960620fa_sunapileznnbbmrwoei.jpg,00138931230fa.jpg,sunaapfaivxqoynnwwp.jpg,00915960620fa.jpg,sunapileznnbbmrwoei.jpg,,Face,>,Place,1.4312620162963867,,,,0.0,,,3.0,,1550776587.71134,1550776590.709255,o,5.0,1.0,7.0,293395648.19736844,1550776589.0,1042.7819921052628,542.3900052631583,1049.808311842105,598.9313960526315,30.551001019544106,16.644270435855265
196,256,1.0,Presentation,5.0,00854940307fa_sunaiwduelojtwaqeyh.jpg,00481940519fa_sunabxsuqbleluwczoy.jpg,00854940307fa.jpg,sunaiwduelojtwaqeyh.jpg,00481940519fa.jpg,sunabxsuqbleluwczoy.jpg,,Face,>,Face,0.7930910587310791,,,,1.0,,,3.0,,1550776595.912979,1550776598.91669,o,6.0,0.703125,7.0,293403679.4375,1550776597.03125,1070.0989640624998,560.0342734375,1063.8201593749998,602.4181375,31.154385640029915,16.95243099283854
197,257,1.0,Presentation,5.0,00752960620fa_sunafbwnojpqeyzssoe.jpg,00636941031fa_sunaddtdkycxbqlpfqa.jpg,00752960620fa.jpg,sunafbwnojpqeyzssoe.jpg,00636941031fa.jpg,sunaddtdkycxbqlpfqa.jpg,,Face,<,Place,0.7190721035003662,,,,1.0,,,3.0,,1550776603.478755,1550776606.487364,o,7.0,0.8705035971223022,7.0,293411697.1942446,1550776605.1079137,1025.4621712230219,526.3134798561147,1053.3352762589932,577.9598057553955,30.349630702984477,16.103985415167866
198,258,1.0,Presentation,5.0,00060931230fa_sunaaehaikpckyjsety.jpg,00153931230fa_sunaauhozyxzeeqstxi.jpg,00060931230fa.jpg,sunaaehaikpckyjsety.jpg,00153931230fa.jpg,sunaauhozyxzeeqstxi.jpg,,Face,<,Place,0.7842059135437012,,,,1.0,,,3.0,,1550776610.979999,1550776613.981805,o,8.0,0.7887323943661971,7.0,293418659.943662,1550776612.056338,1027.1938859154925,543.188271830986,1042.7177070422533,572.1898760563379,30.219900697967084,16.26593132335681
199,259,1.0,Presentation,5.0,00564940928fa_sunacmpqqfbsvlzinzl.jpg,00792941205fa_sunagsiwrmuixqgdimb.jpg,00564940928fa.jpg,sunacmpqqfbsvlzinzl.jpg,00792941205fa.jpg,sunagsiwrmuixqgdimb.jpg,,Face,>,Face,1.0507540702819824,,,,1.0,,,3.0,,1550776618.55471,1550776621.551128,o,9.0,1.0,7.0,293426727.6142857,1550776620.0428572,1037.3143185714287,535.4210314285715,1062.6359371428568,571.9694828571431,30.65845344035994,16.14944499999999
200,207,1.0,Presentation,4.0,00893960530Fa_sunaloffvbvysigxent.jpg,00996960627fa_sunbpvgllfdejxcpjqp.jpg,00893960530Fa.jpg,sunaloffvbvysigxent.jpg,00996960627fa.jpg,sunbpvgllfdejxcpjqp.jpg,,Face,<,Place,0.7677609920501709,,,,1.0,,,3.0,,1550776298.615866,1550776301.596735,o,7.0,1.0,7.0,293106524.69014084,1550776299.8732395,1052.093880281689,553.9025098591547,1022.280778873239,606.3632154929578,30.285059721060726,16.920541828051633
201,208,1.0,Presentation,4.0,00763941205fa_sunafhmnhsdurlvddpw.jpg,00943960627fa_sunarpsxqkduedrrzyi.jpg,00763941205fa.jpg,sunafhmnhsdurlvddpw.jpg,00943960627fa.jpg,sunarpsxqkduedrrzyi.jpg,,Face,<,Face,0.6841080188751221,,,,1.0,,,1.0,,1550776306.18485,1550776309.164532,x,8.0,1.0,7.0,293114569.32894737,1550776307.9473684,1052.647227631578,579.6942197368427,1009.2980855263158,602.272484210526,30.103596124717317,17.23701443256579
202,209,1.0,Presentation,4.0,00532960627fa_sunaccdtpgenvcbcbcf.jpg,00108960530fa_sunaajtnvzzpsjdzres.jpg,00532960627fa.jpg,sunaccdtpgenvcbcbcf.jpg,00108960530fa.jpg,sunaajtnvzzpsjdzres.jpg,,Face,<,Place,0.5353989601135254,,,,1.0,,,1.0,,1550776313.637102,1550776316.6183028,x,9.0,0.8285714285714286,7.0,293121616.17142856,1550776314.9285715,1029.2864085714284,564.0492228571433,1009.8549585714287,595.0743842857142,29.77066742068917,16.903885937499993
203,300,1.0,Presentation,6.0,00766960620fa_sunafijbgncijwykrnl.jpg,00221940128fa_sunabcfpwlpolnutyju.jpg,00766960620fa.jpg,sunafijbgncijwykrnl.jpg,00221940128fa.jpg,sunabcfpwlpolnutyju.jpg,,Face,<,Face,0.6930530071258545,,,,1.0,,,3.0,,1550776886.5425699,1550776889.5625858,o,0.0,0.6785714285714286,7.0,293694802.73214287,1550776888.1785715,1010.5206875000007,530.0025785714283,1017.0138803571424,526.4567321428572,29.6012126850237,15.406698281250002
204,301,1.0,Presentation,6.0,00799941205fa_sunagutjvdvnhxejerz.jpg,00870940307fa_sunajrgtewnualfcerj.jpg,00799941205fa.jpg,sunagutjvdvnhxejerz.jpg,00870940307fa.jpg,sunajrgtewnualfcerj.jpg,,Face,>,Face,0.6575260162353516,,,,1.0,,,3.0,,1550776894.078078,1550776897.042054,o,1.0,0.9264705882352942,7.0,293702485.36764705,1550776895.8235295,1040.2245294117652,554.741483823529,1003.7018750000001,538.6037955882352,29.840527095660043,15.944618658088242
205,302,1.0,Presentation,6.0,00909960530_sunaobtizabegtwfwul.jpg,00818940307fa_sunahpblecxtmuzkmxb.jpg,00909960530.jpg,sunaobtizabegtwfwul.jpg,00818940307fa.jpg,sunahpblecxtmuzkmxb.jpg,,Face,<,Place,1.0547549724578855,,,,1.0,,,3.0,,1550776901.464568,1550776904.427528,o,2.0,1.0,7.0,293708629.4166667,1550776902.0,1058.7459541666667,576.1946083333337,1022.3418708333329,566.3153250000001,30.38306932006836,16.66160319444445
206,303,1.0,Presentation,6.0,00983960627fa_sunbfyvfqiimvdaxlqn.jpg,00782941205fa_sunagfvluwixdsozaql.jpg,00983960627fa.jpg,sunbfyvfqiimvdaxlqn.jpg,00782941205fa.jpg,sunagfvluwixdsozaql.jpg,,Face,<,Place,0.8304860591888428,,,,1.0,,,1.0,,1550776909.262287,1550776912.234072,x,3.0,0.8208955223880597,7.0,293717855.2835821,1550776911.1940298,1080.1398522388063,532.7157597014925,1019.2314985074636,571.7566776119406,30.650001653961642,16.106889710820884
207,304,1.0,Presentation,6.0,00119931230fb_sunaakvmbftkrgqhjun.jpg,00650941031fa_sunadikxpvqeabxrvvc.jpg,00119931230fb.jpg,sunaakvmbftkrgqhjun.jpg,00650941031fa.jpg,sunadikxpvqeabxrvvc.jpg,,Face,<,Place,0.6828479766845703,,,,1.0,,,1.0,,1550776916.831317,1550776919.8004632,x,4.0,0.8481012658227848,7.0,293724610.12658226,1550776917.949367,1112.1131886075957,572.3594481012656,1052.4249303797478,576.8571797468353,31.60141101451246,16.759409156118142
208,305,1.0,Presentation,6.0,00648941031fa_sunadfndyrtqqiasoig.jpg,00129931230fb_sunaamsdyakblkfoydx.jpg,00648941031fa.jpg,sunadfndyrtqqiasoig.jpg,00129931230fb.jpg,sunaamsdyakblkfoydx.jpg,,Face,>,Face,0.7989718914031982,,,,1.0,,,1.0,,1550776924.254839,1550776927.2189438,x,5.0,0.8611111111111112,7.0,293732520.25,1550776925.875,1133.7619930555559,675.9760888888889,1064.0087055555557,643.7688041666667,32.08659369554307,19.246279690393525
209,306,1.0,Presentation,6.0,00270940422fb_sunabllobxadqcyttej.jpg,00568940928fa_sunacsdhbbsybcyxnel.jpg,00270940422fb.jpg,sunabllobxadqcyttej.jpg,00568940928fa.jpg,sunacsdhbbsybcyxnel.jpg,,Face,>,Face,0.8017711639404297,,,,1.0,,,1.0,,1550776931.7695642,1550776934.740899,x,6.0,0.6710526315789473,7.0,293739671.5263158,1550776933.0,1083.7965947368423,609.0527592105259,992.7995565789478,588.7625815789473,30.31749263883893,17.468140386513163
210,307,1.0,Presentation,6.0,00773941201fa_sunafvcflzhlqloapyo.jpg,00775941205fa_sunafvwfsmqkjrutjta.jpg,00773941201fa.jpg,sunafvcflzhlqloapyo.jpg,00775941205fa.jpg,sunafvwfsmqkjrutjta.jpg,,Face,>,Place,0.8060448169708252,,,,1.0,,,1.0,,1550776939.288267,1550776942.261236,x,7.0,0.7361111111111112,7.0,293747750.8055556,1550776941.125,1149.005547222223,605.4603916666666,1014.037220833333,610.8995527777779,31.579579475029853,17.738582523148157
211,308,1.0,Presentation,6.0,00562941031fa_sunacjnahdmqfnjfwqx.jpg,00098931230fa_sunaajpqmulidejvjsr.jpg,00562941031fa.jpg,sunacjnahdmqfnjfwqx.jpg,00098931230fa.jpg,sunaajpqmulidejvjsr.jpg,,Face,<,Face,0.9045639038085938,,,,1.0,,,1.0,,1550776946.841583,1550776949.8107061,x,8.0,0.7887323943661971,7.0,293754607.0140845,1550776947.9577465,1110.8817929577465,620.5238704225355,1003.9931450704228,590.6762929577462,30.87634797218859,17.66333571596244
212,309,1.0,Presentation,6.0,00887960530_sunalcrtwiycqobgelp.jpg,00838940307fa_sunaiozxhxgtfrmoagh.jpg,00887960530.jpg,sunalcrtwiycqobgelp.jpg,00838940307fa.jpg,sunaiozxhxgtfrmoagh.jpg,,Face,>,Place,1.0008659362792969,,,,0.0,,,3.0,,1550776954.464764,1550776957.432398,o,9.0,0.8814814814814815,7.0,293762637.56296295,1550776955.9925926,1140.7447222222224,685.1637466666663,965.2149674074075,648.371965925926,30.74618882808883,19.447395808641986
213,350,1.0,Presentation,7.0,00090931230fa_sunaahedjlmtqekgyvj.jpg,00988960627fa_sunbmaiocftdtvnzgap.jpg,00090931230fa.jpg,sunaahedjlmtqekgyvj.jpg,00988960627fa.jpg,sunbmaiocftdtvnzgap.jpg,,Face,<,Face,0.9328129291534424,,,,0.0,,,1.0,,1550777206.359247,1550777209.378634,x,0.0,1.0,7.0,294014524.31884056,1550777207.9130435,977.5237260869565,550.5248304347828,998.0357275362326,569.7417478260872,28.84239631998699,16.337220932971015
214,351,1.0,Presentation,7.0,00803941205fa_sunagvxkjokqimstxpe.jpg,00313940422fa_sunabwjvmoaddlyxfjr.jpg,00803941205fa.jpg,sunagvxkjokqimstxpe.jpg,00313940422fa.jpg,sunabwjvmoaddlyxfjr.jpg,,Face,>,Place,0.7033989429473877,,,,0.0,,,1.0,,1550777214.083548,1550777217.048188,x,1.0,0.8,7.0,294022528.21428573,1550777215.9285715,1100.8874685714281,580.5070657142854,1101.8953514285724,587.976212857143,32.15976870996097,17.040381145833322
215,352,1.0,Presentation,7.0,00922960627fa_sunapqkyghktgtosuuk.jpg,00968960627fa_sunbagfpovqwbuexqdn.jpg,00922960627fa.jpg,sunapqkyghktgtosuuk.jpg,00968960627fa.jpg,sunbagfpovqwbuexqdn.jpg,,Face,>,Face,0.8498079776763916,,,,1.0,,,3.0,,1550777221.531717,1550777224.500473,o,2.0,0.8767123287671232,7.0,294029653.79452056,1550777223.0,1026.4735013698635,567.3155054794523,1004.5346178082193,553.3420191780823,29.651925177453432,16.34292223458904
216,353,1.0,Presentation,7.0,00670941121fa_sunadochqcucscehsgk.jpg,00866940307fa_sunajbwkywmsqkldfml.jpg,00670941121fa.jpg,sunadochqcucscehsgk.jpg,00866940307fa.jpg,sunajbwkywmsqkldfml.jpg,,Face,>,Place,0.8348500728607178,,,,1.0,,,3.0,,1550777229.100666,1550777232.069191,o,3.0,0.7,7.0,294037722.5857143,1550777231.0714285,1085.8439371428572,605.2329357142856,1055.1364899999999,600.7686714285709,31.25747791580636,17.587523437500014
217,354,1.0,Presentation,7.0,00858940307fa_sunaixpqndlwhwjtjek.jpg,00061931230fb_sunaaekxzjzrfgtkwjf.jpg,00858940307fa.jpg,sunaixpqndlwhwjtjek.jpg,00061931230fb.jpg,sunaaekxzjzrfgtkwjf.jpg,,Face,<,Face,0.7926990985870361,,,,1.0,,,3.0,,1550777236.669718,1550777239.643372,o,4.0,0.935064935064935,7.0,294044627.4285714,1550777238.0,1056.091931168831,608.1272285714284,1010.3672896103897,610.1261090909092,30.169497412743503,17.766194507575758
218,355,1.0,Presentation,7.0,00953960627fa_sunatstrpjxhvtbaczf.jpg,00635941031fa_sunaddsaeicthrfbkhe.jpg,00953960627fa.jpg,sunatstrpjxhvtbaczf.jpg,00635941031fa.jpg,sunaddsaeicthrfbkhe.jpg,,Face,<,Place,0.9352531433105468,,,,0.0,,,1.0,,1550777244.209611,1550777247.1745179,x,5.0,0.9064748201438849,7.0,294052622.1438849,1550777246.0215828,1061.1189870503604,629.1164964028777,1009.1819438848922,607.6054553956833,30.225584880353544,18.03552846372903
219,356,1.0,Presentation,7.0,00071940128fa_sunaaexpnawiehinlpy.jpg,00926960627Fa_sunapqwoeotxshkukbh.jpg,00071940128fa.jpg,sunaaexpnawiehinlpy.jpg,00926960627Fa.jpg,sunapqwoeotxshkukbh.jpg,,Face,<,Place,0.7847788333892822,,,,1.0,,,3.0,,1550777251.8755028,1550777254.8473802,o,6.0,1.0,7.0,294059638.8271605,1550777253.0,1043.4610493827163,625.202039506173,982.9494629629622,615.0334086419757,29.584801913640536,18.0867669521605
220,357,1.0,Presentation,7.0,00851940307fa_sunaivflshbyfrfzhqb.jpg,00162931230fb_sunaavjinpnkappuonm.jpg,00851940307fa.jpg,sunaivflshbyfrfzhqb.jpg,00162931230fb.jpg,sunaavjinpnkappuonm.jpg,,Face,>,Place,0.5526318550109863,,,,1.0,,,1.0,,1550777259.377155,1550777262.3461,x,7.0,1.0,7.0,294067634.02666664,1550777261.0,1046.4130520000008,603.95542,1002.4943533333333,597.9488293333337,29.913247763411466,17.52777030277779
221,358,1.0,Presentation,7.0,00805941205fa_sunagwzdbtlixdhgolm.jpg,01005960627fa_sunbwyuesflwdpqtgoy.jpg,00805941205fa.jpg,sunagwzdbtlixdhgolm.jpg,01005960627fa.jpg,sunbwyuesflwdpqtgoy.jpg,,Face,<,Face,1.1865689754486084,,,,1.0,,,1.0,,1550777266.6838849,1550777269.647474,x,8.0,0.7666666666666667,7.0,294073804.5,1550777267.2666667,1069.9588966666668,611.1842933333335,1002.4305466666665,607.92823,30.256076345540354,17.778724298611113
222,359,1.0,Presentation,7.0,00209940128fb_sunabaergayifsgacxt.jpg,00745941205fa_sunaeouogqolxvggaoq.jpg,00209940128fb.jpg,sunabaergayifsgacxt.jpg,00745941205fa.jpg,sunaeouogqolxvggaoq.jpg,,Face,>,Face,0.6019358634948729,,,,1.0,,,3.0,,1550777274.603091,1550777277.5667892,o,9.0,0.8620689655172413,7.0,294082735.1793103,1550777276.1034484,1069.7522620689658,584.3278834482759,1025.102375172413,592.0681075862063,30.584059401131444,17.155774869252877
223,150,25.0,Presentation,3.0,00919960620fa_sunapmfmzadmosuogaz.jpg,00859940307fa_sunaiycurtqsfkvcaso.jpg,00919960620fa.jpg,sunapmfmzadmosuogaz.jpg,00859940307fa.jpg,sunaiycurtqsfkvcaso.jpg,,Face,>,Place,1.0091941356658936,,,,1.0,,,3.0,,1555439519.5454779,1555439522.559232,o,0.0,0.6582278481012658,7.0,661360398.4050633,1555439521.0253165,1050.104159493671,560.140775949367,992.9550291139244,560.2309556962025,29.827866083675342,16.338754419831222
224,151,25.0,Presentation,3.0,00796941205fa_sunaguchqqnrtodtezq.jpg,00532960627fa_sunaccdtpgenvcbcbcf.jpg,00796941205fa.jpg,sunaguchqqnrtodtezq.jpg,00532960627fa.jpg,sunaccdtpgenvcbcbcf.jpg,,Face,<,Face,1.036168098449707,,,,1.0,,,3.0,,1555439527.364727,1555439530.329983,o,1.0,0.7096774193548387,7.0,661367561.6451613,1555439528.2258065,1104.277177419355,516.6310483870967,1026.5487322580648,544.3273322580644,31.109225927419352,15.472309717741938
225,152,25.0,Presentation,3.0,00921960627fa_sunapqkpqdfvxlbqwyo.jpg,00914960620fa_sunaozisvwfbmlkfhzv.jpg,00921960627fa.jpg,sunapqkpqdfvxlbqwyo.jpg,00914960620fa.jpg,sunaozisvwfbmlkfhzv.jpg,,Face,>,Face,1.1015381813049316,,,,1.0,,,1.0,,1555439535.151747,1555439538.114516,x,2.0,1.0,7.0,661376608.0,1555439537.142857,1171.1894,563.9838571428571,930.5517714285714,455.9351142857143,30.68460011021205,14.873818333333332
