,Unnamed: 0,Subject,Trial Type,Run,Cued Composite,Uncued Composite,Cued Face,Cued Place,Uncued Face,Uncued Place,Memory Image,Category,Cued Side,Cued Category,Attention Reaction Time (s),Familiarity Reaction Time (s),Familiarity Rating,Attention Level,Cue Validity,Post Invalid Cue,Pre Invalid Cue,Attention Button,Rating History,Stimulus Onset,Stimulus End,Attention Probe,Last Cued
0,150,8,Presentation,3,00532960627fa_sunaccdtpgenvcbcbcf.jpg,00288940422fa_sunabppokiyglaxpcha.jpg,00532960627fa.jpg,sunaccdtpgenvcbcbcf.jpg,00288940422fa.jpg,sunabppokiyglaxpcha.jpg,,Face,>,Face,1.025055170059204,,,,1.0,,,1.0,,1551380629.031952,1551380632.078045,x,
1,151,8,Presentation,3,00787960620fa_sunagoufulkpsxrmklt.jpg,00857940307fa_sunaiwfobocrruqznsv.jpg,00787960620fa.jpg,sunagoufulkpsxrmklt.jpg,00857940307fa.jpg,sunaiwfobocrruqznsv.jpg,,Face,<,Face,1.8405411243438718,,,,1.0,,,3.0,,1551380636.901223,1551380639.890176,o,
2,152,8,Presentation,3,00130931230fa_sunaamvxnvouicstkjb.jpg,00568940928fa_sunacsdhbbsybcyxnel.jpg,00130931230fa.jpg,sunaamvxnvouicstkjb.jpg,00568940928fa.jpg,sunacsdhbbsybcyxnel.jpg,,Face,<,Face,1.0865249633789062,,,,1.0,,,1.0,,1551380645.504407,1551380648.4931462,x,
3,153,8,Presentation,3,00967960627fa_sunbaejotfklekvpxcz.jpg,00929960627fa_sunaprnrbmgkomdbchr.jpg,00967960627fa.jpg,sunbaejotfklekvpxcz.jpg,00929960627fa.jpg,sunaprnrbmgkomdbchr.jpg,,Face,>,Place,0.9232819080352784,,,,1.0,,,1.0,,1551380653.353514,1551380656.336956,x,
4,154,8,Presentation,3,00062931230fb_sunaaelotvjgibjtjhs.jpg,00663941121fa_sunadnjjzohjhbohlwq.jpg,00062931230fb.jpg,sunaaelotvjgibjtjhs.jpg,00663941121fa.jpg,sunadnjjzohjhbohlwq.jpg,,Face,<,Place,1.0681018829345703,,,,1.0,,,3.0,,1551380661.071869,1551380664.056226,o,
5,155,8,Presentation,3,00829940307fa_sunahwgbqkqcrwprgvh.jpg,00108960530fa_sunaajtnvzzpsjdzres.jpg,00829940307fa.jpg,sunahwgbqkqcrwprgvh.jpg,00108960530fa.jpg,sunaajtnvzzpsjdzres.jpg,,Face,>,Face,0.8728280067443848,,,,1.0,,,1.0,,1551380668.9282382,1551380671.9086778,x,
6,156,8,Presentation,3,00893960530Fa_sunaloffvbvysigxent.jpg,00071941031fa_sunaaexqbtdswxrqjvz.jpg,00893960530Fa.jpg,sunaloffvbvysigxent.jpg,00071941031fa.jpg,sunaaexqbtdswxrqjvz.jpg,,Face,<,Place,0.6679098606109619,,,,1.0,,,3.0,,1551380676.592798,1551380679.5837688,o,
7,157,8,Presentation,3,00131931230fb_sunaangbuylfvckqqoo.jpg,00126931230fb_sunaamdjwemxpmmtypi.jpg,00131931230fb.jpg,sunaangbuylfvckqqoo.jpg,00126931230fb.jpg,sunaamdjwemxpmmtypi.jpg,,Face,>,Face,1.918532133102417,,,,1.0,,,3.0,,1551380684.050168,1551380687.029362,o,
8,158,8,Presentation,3,00096931230fa_sunaaiqiqcggrskoqgy.jpg,00953960627fa_sunatstrpjxhvtbaczf.jpg,00096931230fa.jpg,sunaaiqiqcggrskoqgy.jpg,00953960627fa.jpg,sunatstrpjxhvtbaczf.jpg,,Face,<,Place,1.8258039951324463,,,,1.0,,,1.0,,1551380692.71953,1551380695.703554,x,
9,159,8,Presentation,3,00960960627fa_sunawksfbacycuhbrsc.jpg,00952960627fa_sunathzzbcwjykldrem.jpg,00960960627fa.jpg,sunawksfbacycuhbrsc.jpg,00952960627fa.jpg,sunathzzbcwjykldrem.jpg,,Face,>,Place,1.3931658267974854,,,,1.0,,,3.0,,1551380701.317678,1551380704.307806,o,
10,100,8,Presentation,2,00805941205fa_sunagwzdbtlixdhgolm.jpg,00935960627fa_sunaqbmgkgqucajzrkp.jpg,00805941205fa.jpg,sunagwzdbtlixdhgolm.jpg,00935960627fa.jpg,sunaqbmgkgqucajzrkp.jpg,,Face,<,Face,0.9502880573272704,,,,1.0,,,1.0,,1551380245.323469,1551380248.371041,x,
11,101,8,Presentation,2,00793941205fa_sunagtjwilqjvxohypn.jpg,00921960627fa_sunapqkpqdfvxlbqwyo.jpg,00793941205fa.jpg,sunagtjwilqjvxohypn.jpg,00921960627fa.jpg,sunapqkpqdfvxlbqwyo.jpg,,Face,>,Place,1.288696050643921,,,,1.0,,,1.0,,1551380253.1225278,1551380256.10608,x,
12,102,8,Presentation,2,00869940307fa_sunajoveqhiprwqgoco.jpg,00266940128fb_sunabkngeblodihjvbk.jpg,00869940307fa.jpg,sunajoveqhiprwqgoco.jpg,00266940128fb.jpg,sunabkngeblodihjvbk.jpg,,Face,>,Place,1.2975201606750488,,,,0.0,,,3.0,,1551380261.2117221,1551380264.195034,o,
13,103,8,Presentation,2,00636941031fa_sunaddtdkycxbqlpfqa.jpg,00773941201fa_sunafvcflzhlqloapyo.jpg,00636941031fa.jpg,sunaddtdkycxbqlpfqa.jpg,00773941201fa.jpg,sunafvcflzhlqloapyo.jpg,,Face,>,Place,0.7640919685363771,,,,1.0,,,1.0,,1551380269.2606618,1551380272.249003,x,
14,104,8,Presentation,2,00909960530_sunaobtizabegtwfwul.jpg,00969960627fa_sunbaoizrfijvhpnnjn.jpg,00909960530.jpg,sunaobtizabegtwfwul.jpg,00969960627fa.jpg,sunbaoizrfijvhpnnjn.jpg,,Face,>,Face,0.9303379058837892,,,,1.0,,,3.0,,1551380276.78391,1551380279.772927,o,
15,105,8,Presentation,2,00771941205fa_sunafowswglhxcsufpo.jpg,00790941205fa_sunagpjzsbltchlwvou.jpg,00771941205fa.jpg,sunafowswglhxcsufpo.jpg,00790941205fa.jpg,sunagpjzsbltchlwvou.jpg,,Face,<,Place,0.7388329505920409,,,,1.0,,,3.0,,1551380284.485769,1551380287.467279,o,
16,106,8,Presentation,2,00720960620fa_sunaecpkgfewqqreqwe.jpg,00773960620fa_sunafvsxtzaizojicxx.jpg,00720960620fa.jpg,sunaecpkgfewqqreqwe.jpg,00773960620fa.jpg,sunafvsxtzaizojicxx.jpg,,Face,<,Place,1.0198969841003418,,,,1.0,,,3.0,,1551380291.970768,1551380294.959321,o,
17,107,8,Presentation,2,00127931230fa_sunaampvucecsfbdafn.jpg,00296940422fa_sunabrwnslxalcohfre.jpg,00127931230fa.jpg,sunaampvucecsfbdafn.jpg,00296940422fa.jpg,sunabrwnslxalcohfre.jpg,,Face,<,Face,1.0647649765014648,,,,1.0,,,3.0,,1551380299.753562,1551380302.744223,x,
18,108,8,Presentation,2,00955960627fb_sunauburywlkjszngcq.jpg,00819940307fa_sunahqldjibofgsfdgb.jpg,00955960627fb.jpg,sunauburywlkjszngcq.jpg,00819940307fa.jpg,sunahqldjibofgsfdgb.jpg,,Face,>,Face,0.7480578422546387,,,,1.0,,,1.0,,1551380307.611113,1551380310.597311,x,
19,109,8,Presentation,2,00835940307fa_sunaijsqpvodplbwxkf.jpg,00162931230fb_sunaavjinpnkappuonm.jpg,00835940307fa.jpg,sunaijsqpvodplbwxkf.jpg,00162931230fb.jpg,sunaavjinpnkappuonm.jpg,,Face,<,Face,0.7940549850463867,,,,1.0,,,1.0,,1551380315.109017,1551380318.101136,x,
20,0,8,Presentation,0,00841940307fa_sunaisiwfgppimtnmxl.jpg,00895960530fa_sunamczizlzavhzhpay.jpg,00841940307fa.jpg,sunaisiwfgppimtnmxl.jpg,00895960530fa.jpg,sunamczizlzavhzhpay.jpg,,Face,<,Face,1.401508092880249,,,,1.0,,,1.0,,1551379352.950548,1551379356.035916,x,
21,1,8,Presentation,0,00089931230fa_sunaagcpoejbuzyvddd.jpg,00776941205fa_sunafxokyavhgptyfye.jpg,00089931230fa.jpg,sunaagcpoejbuzyvddd.jpg,00776941205fa.jpg,sunafxokyavhgptyfye.jpg,,Face,>,Face,0.6851649284362793,,,,1.0,,,3.0,,1551379361.499738,1551379364.501492,x,
22,2,8,Presentation,0,00750941201fa_sunaeuzwggvibufclwf.jpg,00926960627Fa_sunapqwoeotxshkukbh.jpg,00750941201fa.jpg,sunaeuzwggvibufclwf.jpg,00926960627Fa.jpg,sunapqwoeotxshkukbh.jpg,,Face,>,Place,0.7818620204925537,,,,1.0,,,1.0,,1551379369.82226,1551379372.823343,x,
23,3,8,Presentation,0,00675941121fa_sunadoxcchtmsxewsau.jpg,00125931230fa_sunaalltyvjhbzhkmvg.jpg,00675941121fa.jpg,sunadoxcchtmsxewsau.jpg,00125931230fa.jpg,sunaalltyvjhbzhkmvg.jpg,,Face,<,Place,0.7370731830596924,,,,1.0,,,3.0,,1551379377.97578,1551379380.9886699,o,
24,4,8,Presentation,0,00978960627fa_sunbddbivbptlrlauhy.jpg,00957960627fa_sunavhxgmgrqsaptynb.jpg,00978960627fa.jpg,sunbddbivbptlrlauhy.jpg,00957960627fa.jpg,sunavhxgmgrqsaptynb.jpg,,Face,>,Place,0.6550858020782471,,,,1.0,,,1.0,,1551379385.894836,1551379388.8852198,x,
25,5,8,Presentation,0,00742941201fa_sunaenwuebvlpdmntju.jpg,01005960627fa_sunbwyuesflwdpqtgoy.jpg,00742941201fa.jpg,sunaenwuebvlpdmntju.jpg,01005960627fa.jpg,sunbwyuesflwdpqtgoy.jpg,,Face,<,Face,1.9301109313964844,,,,0.0,,,1.0,,1551379394.060003,1551379397.0821779,x,
26,6,8,Presentation,0,00965960627fa_sunaydywdmvlfddbxbk.jpg,00681941121fa_sunadqmjrhfjyuzyvdd.jpg,00965960627fa.jpg,sunaydywdmvlfddbxbk.jpg,00681941121fa.jpg,sunadqmjrhfjyuzyvdd.jpg,,Face,>,Place,0.7889301776885986,,,,1.0,,,1.0,,1551379403.462513,1551379406.463964,x,
27,7,8,Presentation,0,00574940928fa_sunacvbrcejzwmcgnoq.jpg,00158931230fb_sunaavchcbptaerhcfy.jpg,00574940928fa.jpg,sunacvbrcejzwmcgnoq.jpg,00158931230fb.jpg,sunaavchcbptaerhcfy.jpg,,Face,<,Face,0.6717600822448729,,,,1.0,,,3.0,,1551379411.481873,1551379414.484935,o,
28,8,8,Presentation,0,00984960627fa_sunbfzchmomnvzhbxdg.jpg,00839940307fa_sunaipyohrqlwngaqif.jpg,00984960627fa.jpg,sunbfzchmomnvzhbxdg.jpg,00839940307fa.jpg,sunaipyohrqlwngaqif.jpg,,Face,>,Face,1.6215970516204834,,,,1.0,,,1.0,,1551379420.037766,1551379423.0356789,o,
29,9,8,Presentation,0,00306940422fa_sunabueyoajufbkraki.jpg,00796941205fa_sunaguchqqnrtodtezq.jpg,00306940422fa.jpg,sunabueyoajufbkraki.jpg,00796941205fa.jpg,sunaguchqqnrtodtezq.jpg,,Face,<,Place,0.9721739292144777,,,,1.0,,,3.0,,1551379429.341422,1551379432.3559651,o,
30,50,8,Presentation,1,00939960627fa_sunarceibpcyacbmfga.jpg,00825940307fa_sunahrltmuwbiehihpe.jpg,00939960627fa.jpg,sunarceibpcyacbmfga.jpg,00825940307fa.jpg,sunahrltmuwbiehihpe.jpg,,Face,>,Place,1.5149650573730469,,,,1.0,,,1.0,,1551379846.644051,1551379849.661869,x,
31,51,8,Presentation,1,00725941201fa_sunaefgzwiramypjvtd.jpg,00101931230fb_sunaajqmsaavkmgbsth.jpg,00725941201fa.jpg,sunaefgzwiramypjvtd.jpg,00101931230fb.jpg,sunaajqmsaavkmgbsth.jpg,,Face,<,Face,0.8675379753112793,,,,1.0,,,3.0,,1551379854.9922528,1551379857.9608948,o,
32,52,8,Presentation,1,00082931230fa_sunaafvitpexrpvumsa.jpg,00077931230fb_sunaafgqutfaishsxyu.jpg,00082931230fa.jpg,sunaafvitpexrpvumsa.jpg,00077931230fb.jpg,sunaafgqutfaishsxyu.jpg,,Face,>,Face,1.52184796333313,,,,1.0,,,3.0,,1551379862.6325471,1551379865.595784,o,
33,53,8,Presentation,1,00576941031fa_sunacvjlsylseoghjup.jpg,00242940128fa_sunabcuurugvxwparpk.jpg,00576941031fa.jpg,sunacvjlsylseoghjup.jpg,00242940128fa.jpg,sunabcuurugvxwparpk.jpg,,Face,<,Face,0.7646260261535645,,,,1.0,,,1.0,,1551379870.914662,1551379873.885713,x,
34,54,8,Presentation,1,00950960627fa_sunasrjlmglmjzbmqxb.jpg,00828940307fa_sunahuynahneraqftyz.jpg,00950960627fa.jpg,sunasrjlmglmjzbmqxb.jpg,00828940307fa.jpg,sunahuynahneraqftyz.jpg,,Face,<,Place,0.6186399459838867,,,,1.0,,,3.0,,1551379878.421559,1551379881.384042,o,
35,55,8,Presentation,1,00280940422fb_sunabohxbskznglnrhv.jpg,00124931230fa_sunaalhlvzmjmitybdn.jpg,00280940422fb.jpg,sunabohxbskznglnrhv.jpg,00124931230fa.jpg,sunaalhlvzmjmitybdn.jpg,,Face,<,Place,1.550936937332153,,,,1.0,,,3.0,,1551379885.7688391,1551379888.737627,o,
36,56,8,Presentation,1,00894960620fa_sunalqmfgeadpqsyzpd.jpg,00540940519fa_sunacdnquypmsshhsbk.jpg,00894960620fa.jpg,sunalqmfgeadpqsyzpd.jpg,00540940519fa.jpg,sunacdnquypmsshhsbk.jpg,,Face,<,Place,0.7612679004669191,,,,1.0,,,1.0,,1551379894.072065,1551379897.046295,x,
37,57,8,Presentation,1,00860940307fa_sunaizeyhvjzknwjudw.jpg,00163931230fb_sunaavodbcpygkggnfp.jpg,00860940307fa.jpg,sunaizeyhvjzknwjudw.jpg,00163931230fb.jpg,sunaavodbcpygkggnfp.jpg,,Face,>,Face,0.9314661026000975,,,,1.0,,,3.0,,1551379901.595209,1551379904.566679,o,
38,58,8,Presentation,1,00868960307fa_sunajjxttslobudoqbv.jpg,00705960530fa_sunaduslxfzlbxlllnz.jpg,00868960307fa.jpg,sunajjxttslobudoqbv.jpg,00705960530fa.jpg,sunaduslxfzlbxlllnz.jpg,,Face,>,Face,0.8929049968719482,,,,0.0,,,1.0,,1551379909.2939231,1551379912.269272,x,
39,59,8,Presentation,1,00146960620fb_sunaatpeezlljqaxlhj.jpg,00290940422fa_sunabqowuarvqqcnipn.jpg,00146960620fb.jpg,sunaatpeezlljqaxlhj.jpg,00290940422fa.jpg,sunabqowuarvqqcnipn.jpg,,Face,>,Place,1.3051650524139404,,,,1.0,,,1.0,,1551379916.932808,1551379919.896818,x,
40,250,8,Presentation,5,00999960627fa_sunbvbrvgbpanfrawft.jpg,00977960627fa_sunbbxkanhzjgbwyxqs.jpg,00999960627fa.jpg,sunbvbrvgbpanfrawft.jpg,00977960627fa.jpg,sunbbxkanhzjgbwyxqs.jpg,,Face,>,Place,1.1771540641784668,,,,1.0,,,3.0,,1551381891.943466,1551381894.994576,o,
41,251,8,Presentation,5,00943960627fa_sunarpsxqkduedrrzyi.jpg,00794960620fa_sunagtqhhwxjeuxdebe.jpg,00943960627fa.jpg,sunarpsxqkduedrrzyi.jpg,00794960620fa.jpg,sunagtqhhwxjeuxdebe.jpg,,Face,>,Face,0.7527890205383301,,,,1.0,,,3.0,,1551381899.991326,1551381902.991857,o,
42,252,8,Presentation,5,00751960620fa_sunaezuszgtxnmsxdbk.jpg,00149931230fa_sunaauglwmctnkxyird.jpg,00751960620fa.jpg,sunaezuszgtxnmsxdbk.jpg,00149931230fa.jpg,sunaauglwmctnkxyird.jpg,,Face,<,Place,0.9656858444213868,,,,1.0,,,1.0,,1551381907.560312,1551381910.562096,x,
43,253,8,Presentation,5,00903960620fa_sunanainkqdvktzoxyl.jpg,00958960627fa_sunavspxmxubqaeidjt.jpg,00903960620fa.jpg,sunanainkqdvktzoxyl.jpg,00958960627fa.jpg,sunavspxmxubqaeidjt.jpg,,Face,<,Place,0.9199380874633788,,,,1.0,,,3.0,,1551381915.329735,1551381918.34004,x,
44,254,8,Presentation,5,00670941121fa_sunadochqcucscehsgk.jpg,00858940307fa_sunaixpqndlwhwjtjek.jpg,00670941121fa.jpg,sunadochqcucscehsgk.jpg,00858940307fa.jpg,sunaixpqndlwhwjtjek.jpg,,Face,<,Face,2.4409639835357666,,,,1.0,,,1.0,,1551381923.0320609,1551381926.043279,x,
45,255,8,Presentation,5,00775941205fa_sunafvwfsmqkjrutjta.jpg,00154931230fa_sunaauueuhhvklldjik.jpg,00775941205fa.jpg,sunafvwfsmqkjrutjta.jpg,00154931230fa.jpg,sunaauueuhhvklldjik.jpg,,Face,>,Place,0.8557338714599609,,,,1.0,,,3.0,,1551381932.284583,1551381935.2867029,o,
46,256,8,Presentation,5,00851940307fa_sunaivflshbyfrfzhqb.jpg,00292940422fb_sunabrjdpmoedcdjbpo.jpg,00851940307fa.jpg,sunaivflshbyfrfzhqb.jpg,00292940422fb.jpg,sunabrjdpmoedcdjbpo.jpg,,Face,>,Face,2.524375915527344,,,,1.0,,,3.0,,1551381939.955257,1551381942.955416,o,
47,257,8,Presentation,5,00060931230fa_sunaaehaikpckyjsety.jpg,00482940519fa_sunabyfxcxhdebvdyfd.jpg,00060931230fa.jpg,sunaaehaikpckyjsety.jpg,00482940519fa.jpg,sunabyfxcxhdebvdyfd.jpg,,Face,>,Place,1.4479680061340332,,,,1.0,,,3.0,,1551381949.312357,1551381952.310342,o,
48,258,8,Presentation,5,00847940307fa_sunaivdjruhkrfywfed.jpg,00870940307fa_sunajrgtewnualfcerj.jpg,00847940307fa.jpg,sunaivdjruhkrfywfed.jpg,00870940307fa.jpg,sunajrgtewnualfcerj.jpg,,Face,<,Face,1.5853230953216553,,,,1.0,,,3.0,,1551381957.5429552,1551381960.544461,o,
49,259,8,Presentation,5,00746941201fa_sunaetydippjxikifsb.jpg,00479940519fa_sunabxsbfwjccqxxzxq.jpg,00746941201fa.jpg,sunaetydippjxikifsb.jpg,00479940519fa.jpg,sunabxsbfwjccqxxzxq.jpg,,Face,<,Face,0.9978680610656738,,,,0.0,,,3.0,,1551381965.945818,1551381968.948074,o,
50,200,8,Presentation,4,00694941121fa_sunadrmfzmstgdjdcod.jpg,00635941031fa_sunaddsaeicthrfbkhe.jpg,00694941121fa.jpg,sunadrmfzmstgdjdcod.jpg,00635941031fa.jpg,sunaddsaeicthrfbkhe.jpg,,Face,>,Face,1.000849962234497,,,,1.0,,,3.0,,1551381569.268835,1551381572.3017359,o,
51,201,8,Presentation,4,00719941201fa_sunadvithllcgmfxsrn.jpg,00878960530fa_sunakgbnzxmfohgehnu.jpg,00719941201fa.jpg,sunadvithllcgmfxsrn.jpg,00878960530fa.jpg,sunakgbnzxmfohgehnu.jpg,,Face,>,Face,0.91658616065979,,,,1.0,,,3.0,,1551381577.140218,1551381580.1213,o,
52,202,8,Presentation,4,00638941031fa_sunadfktsqjthoglcsm.jpg,00961960627fa_sunawotxrevnqvamsfp.jpg,00638941031fa.jpg,sunadfktsqjthoglcsm.jpg,00961960627fa.jpg,sunawotxrevnqvamsfp.jpg,,Face,<,Place,1.100783109664917,,,,0.0,,,1.0,,1551381584.8262599,1551381587.807004,x,
53,203,8,Presentation,4,00931960627fa_sunaptrqvaooxfvktvw.jpg,00990960627fa_sunbpflsdaxnddnwcqi.jpg,00931960627fa.jpg,sunaptrqvaooxfvktvw.jpg,00990960627fa.jpg,sunbpflsdaxnddnwcqi.jpg,,Face,<,Face,0.7884070873260498,,,,1.0,,,3.0,,1551381592.729289,1551381595.70929,o,
54,204,8,Presentation,4,00885960530fa_sunakwlvxjpddialozd.jpg,01000960627fa_sunbvzmgrdvaakxusbu.jpg,00885960530fa.jpg,sunakwlvxjpddialozd.jpg,01000960627fa.jpg,sunbvzmgrdvaakxusbu.jpg,,Face,<,Face,1.5677180290222168,,,,1.0,,,1.0,,1551381600.315347,1551381603.301168,x,
55,205,8,Presentation,4,01003960627fb_sunbwdrdvsweerwsdrj.jpg,00944960627fa_sunasbbntuiheekqyaq.jpg,01003960627fb.jpg,sunbwdrdvsweerwsdrj.jpg,00944960627fa.jpg,sunasbbntuiheekqyaq.jpg,,Face,>,Place,1.586967945098877,,,,1.0,,,3.0,,1551381608.701363,1551381611.680597,o,
56,206,8,Presentation,4,00985960627fa_sunbgklxeqjhdbyfhhy.jpg,00778941205fa_sunagcthdfirrcawoic.jpg,00985960627fa.jpg,sunbgklxeqjhdbyfhhy.jpg,00778941205fa.jpg,sunagcthdfirrcawoic.jpg,,Face,<,Place,0.8296008110046387,,,,1.0,,,3.0,,1551381617.099641,1551381620.1027641,o,
57,207,8,Presentation,4,00972960627fa_sunbbfqwjpdxniyhies.jpg,00763941205fa_sunafhmnhsdurlvddpw.jpg,00972960627fa.jpg,sunbbfqwjpdxniyhies.jpg,00763941205fa.jpg,sunafhmnhsdurlvddpw.jpg,,Face,>,Place,1.3069288730621338,,,,0.0,,,3.0,,1551381624.7563221,1551381627.7367759,o,
58,208,8,Presentation,4,00949960627fb_sunasnqkkyhilqkxiqm.jpg,00562941031fa_sunacjnahdmqfnjfwqx.jpg,00949960627fb.jpg,sunasnqkkyhilqkxiqm.jpg,00562941031fa.jpg,sunacjnahdmqfnjfwqx.jpg,,Face,>,Place,1.7009990215301514,,,,1.0,,,3.0,,1551381632.887275,1551381635.87238,o,
59,209,8,Presentation,4,00959960627fa_sunavxokzybtomhbmvm.jpg,00097931230fa_sunaajayojuslbbnneg.jpg,00959960627fa.jpg,sunavxokzybtomhbmvm.jpg,00097931230fa.jpg,sunaajayojuslbbnneg.jpg,,Face,<,Face,1.9722559452056885,,,,1.0,,,3.0,,1551381641.373812,1551381644.3586519,o,
60,300,8,Presentation,6,00564940928fa_sunacmpqqfbsvlzinzl.jpg,01010960627fa_suncnkvbhypnivcohyx.jpg,00564940928fa.jpg,sunacmpqqfbsvlzinzl.jpg,01010960627fa.jpg,suncnkvbhypnivcohyx.jpg,,Face,<,Place,1.2507658004760742,,,,1.0,,,1.0,,1551382211.130356,1551382214.084933,x,
61,301,8,Presentation,6,00741941201fa_sunaemcowdozyphwknd.jpg,00913960530fa_sunaooffzffbhcpirmm.jpg,00741941201fa.jpg,sunaemcowdozyphwknd.jpg,00913960530fa.jpg,sunaooffzffbhcpirmm.jpg,,Face,>,Place,0.9396638870239258,,,,1.0,,,1.0,,1551382219.029619,1551382221.934345,x,
62,302,8,Presentation,6,00925960627fa_sunapqwnqzxlsfvgsjm.jpg,00795941205fa_sunagtumacdlmciqamz.jpg,00925960627fa.jpg,sunapqwnqzxlsfvgsjm.jpg,00795941205fa.jpg,sunagtumacdlmciqamz.jpg,,Face,<,Face,1.095541000366211,,,,1.0,,,1.0,,1551382226.530875,1551382229.441583,x,
63,303,8,Presentation,6,00782941205fa_sunagfvluwixdsozaql.jpg,00633940928fa_sunadbhmrgrrpyzglxs.jpg,00782941205fa.jpg,sunagfvluwixdsozaql.jpg,00633940928fa.jpg,sunadbhmrgrrpyzglxs.jpg,,Face,>,Face,1.199573040008545,,,,0.0,,,1.0,,1551382234.204776,1551382237.102849,x,
64,304,8,Presentation,6,00129931230fb_sunaamsdyakblkfoydx.jpg,00609940928fa_sunacycdoztxoluxjyk.jpg,00129931230fb.jpg,sunaamsdyakblkfoydx.jpg,00609940928fa.jpg,sunacycdoztxoluxjyk.jpg,,Face,>,Face,0.5794911384582521,,,,1.0,,,3.0,,1551382241.990412,1551382244.89123,o,
65,305,8,Presentation,6,00276940422fa_sunabmytpyhsgigllxu.jpg,00800941205fb_sunagvjurcwdbixvnyi.jpg,00276940422fa.jpg,sunabmytpyhsgigllxu.jpg,00800941205fb.jpg,sunagvjurcwdbixvnyi.jpg,,Face,<,Face,0.7837839126586914,,,,1.0,,,3.0,,1551382249.13895,1551382252.04759,o,
66,306,8,Presentation,6,00598941031fa_sunacxtcahkymosigud.jpg,00123931230fb_sunaalcrrdbjgdztbiz.jpg,00598941031fa.jpg,sunacxtcahkymosigud.jpg,00123931230fb.jpg,sunaalcrrdbjgdztbiz.jpg,,Face,>,Face,1.2236039638519287,,,,1.0,,,1.0,,1551382256.5074642,1551382259.409481,x,
67,307,8,Presentation,6,00818940307fa_sunahpblecxtmuzkmxb.jpg,00214940128fa_sunabbafjowbzcvbucc.jpg,00818940307fa.jpg,sunahpblecxtmuzkmxb.jpg,00214940128fa.jpg,sunabbafjowbzcvbucc.jpg,,Face,>,Place,0.992685079574585,,,,1.0,,,1.0,,1551382264.315347,1551382267.2107608,x,
68,308,8,Presentation,6,00745941205fa_sunaeouogqolxvggaoq.jpg,00648941031fa_sunadfndyrtqqiasoig.jpg,00745941205fa.jpg,sunaeouogqolxvggaoq.jpg,00648941031fa.jpg,sunadfndyrtqqiasoig.jpg,,Face,<,Place,0.8423230648040771,,,,1.0,,,1.0,,1551382271.879097,1551382274.780628,x,
69,309,8,Presentation,6,00809960620fa_sunahbvlpavurqoxdeq.jpg,00874940307fa_sunajtrfunvzdfticna.jpg,00809960620fa.jpg,sunahbvlpavurqoxdeq.jpg,00874940307fa.jpg,sunajtrfunvzdfticna.jpg,,Face,<,Place,0.5834031105041504,,,,1.0,,,1.0,,1551382279.303189,1551382282.2088661,x,
70,350,8,Presentation,7,00098931230fa_sunaajpqmulidejvjsr.jpg,00071940128fa_sunaaexpnawiehinlpy.jpg,00098931230fa.jpg,sunaajpqmulidejvjsr.jpg,00071940128fa.jpg,sunaaexpnawiehinlpy.jpg,,Face,>,Face,0.9785370826721193,,,,1.0,,,1.0,,1551382561.390415,1551382564.298779,x,
71,351,8,Presentation,7,00132931230fb_sunaanjcbzdvtvblsdy.jpg,00871940307_sunajrujcsdxmfbssmc.jpg,00132931230fb.jpg,sunaanjcbzdvtvblsdy.jpg,00871940307.jpg,sunajrujcsdxmfbssmc.jpg,,Face,>,Face,0.6683268547058105,,,,1.0,,,3.0,,1551382568.926973,1551382571.779842,o,
72,352,8,Presentation,7,00136931230fb_sunaanptmsknhirrzed.jpg,01009960627fa_sunbxzweleltykebgan.jpg,00136931230fb.jpg,sunaanptmsknhirrzed.jpg,01009960627fa.jpg,sunbxzweleltykebgan.jpg,,Face,<,Place,0.8630199432373047,,,,1.0,,,1.0,,1551382576.095208,1551382578.950818,x,
73,353,8,Presentation,7,00848940307fa_sunaivdylrawbmhryfp.jpg,00294940422fb_sunabrlndkruqokhury.jpg,00848940307fa.jpg,sunaivdylrawbmhryfp.jpg,00294940422fb.jpg,sunabrlndkruqokhury.jpg,,Face,<,Place,0.9563379287719728,,,,1.0,,,3.0,,1551382583.486836,1551382586.3403869,o,
74,354,8,Presentation,7,00235940128fb_sunabclssnoeuigtawp.jpg,00807941205fa_sunahawfngukizslzsd.jpg,00235940128fb.jpg,sunabclssnoeuigtawp.jpg,00807941205fa.jpg,sunahawfngukizslzsd.jpg,,Face,>,Place,1.47997784614563,,,,1.0,,,3.0,,1551382590.954766,1551382593.806464,o,
75,355,8,Presentation,7,00198940128fb_sunaazezcsunmhttzxz.jpg,00968960627fa_sunbagfpovqwbuexqdn.jpg,00198940128fb.jpg,sunaazezcsunmhttzxz.jpg,00968960627fa.jpg,sunbagfpovqwbuexqdn.jpg,,Face,<,Face,0.6193420886993408,,,,1.0,,,3.0,,1551382598.975026,1551382601.8205972,o,
76,356,8,Presentation,7,00543940519fa_sunacepzfrmtkiqonpy.jpg,00700941121fa_sunadsgmtznewzyasnk.jpg,00543940519fa.jpg,sunacepzfrmtkiqonpy.jpg,00700941121fa.jpg,sunadsgmtznewzyasnk.jpg,,Face,<,Face,0.6921401023864746,,,,1.0,,,3.0,,1551382606.343991,1551382609.197698,o,
77,357,8,Presentation,7,00947960627fa_sunasmmcxdddtmtazwx.jpg,00260940128fa_sunabgfhvifeijihhjw.jpg,00947960627fa.jpg,sunasmmcxdddtmtazwx.jpg,00260940128fa.jpg,sunabgfhvifeijihhjw.jpg,,Face,>,Face,1.6777029037475586,,,,1.0,,,3.0,,1551382613.607784,1551382616.463868,x,
78,358,8,Presentation,7,00313940422fa_sunabwjvmoaddlyxfjr.jpg,00631940928fa_sunadbdqzigzwipuipr.jpg,00313940422fa.jpg,sunabwjvmoaddlyxfjr.jpg,00631940928fa.jpg,sunadbdqzigzwipuipr.jpg,,Face,<,Place,0.5849308967590332,,,,1.0,,,1.0,,1551382621.763993,1551382624.611111,x,
79,359,8,Presentation,7,00507940519fa_sunacacflqoyxhsqzhe.jpg,00812941205fa_sunahgtbwgsmtqeodwh.jpg,00507940519fa.jpg,sunacacflqoyxhsqzhe.jpg,00812941205fa.jpg,sunahgtbwgsmtqeodwh.jpg,,Face,>,Place,1.3529372215270996,,,,0.0,,,1.0,,1551382628.867344,1551382631.712962,x,
80,10,8,Memory,0,,,,,,,sunadoxcchtmsxewsau.jpg,Place,,,,1.528,4.0,Place,,,,,,1551379445.531218,1551379449.482461,,Place
81,11,8,Memory,0,,,,,,,sunamczizlzavhzhpay.jpg,Place,,,,2.312,2.0,Face,,,,,,1551379450.799513,1551379454.716907,,Place
82,12,8,Memory,0,,,,,,,sunacxeheuiigkcgquf.jpg,Place,,,,2.4459999999999997,2.0,Nov_Cued,,,,,,1551379456.0346599,1551379459.98529,,Place
83,13,8,Memory,0,,,,,,,sunablfqiwfqomjarht.jpg,Place,,,,3.0189999999999997,,Nov_Cued,,,,,,1551379461.302881,1551379465.2535439,,Place
84,14,8,Memory,0,,,,,,,sunabueyoajufbkraki.jpg,Place,,,,0.245,3.0,Place,,,,,,1551379466.55492,1551379470.4554858,,Place
85,15,8,Memory,0,,,,,,,00125931230fa.jpg,Face,,,,0.9279999999999999,4.0,Place,,,,,,1551379471.772475,1551379475.656498,,Place
86,16,8,Memory,0,,,,,,,sundbixjudsgeuuehrn.jpg,Place,,,,2.261,2.0,Nov_Cued,,,,,,1551379476.924498,1551379480.85936,,Place
87,17,8,Memory,0,,,,,,,sunagvxkjokqimstxpe.jpg,Place,,,,1.611,3.0,Nov_Cued,,,,,,1551379482.159873,1551379486.077855,,Place
88,18,8,Memory,0,,,,,,,00882960530fa.jpg,Face,,,,1.579,3.0,Nov_Un,,,,,,1551379487.395334,1551379491.295711,,Place
89,19,8,Memory,0,,,,,,,01207940128fa.jpg,Face,,,,1.276,3.0,Nov_Un,,,,,,1551379492.6137972,1551379496.513852,,Place
90,20,8,Memory,0,,,,,,,sunaalltyvjhbzhkmvg.jpg,Place,,,,1.077,4.0,Place,,,,,,1551379497.816184,1551379501.732347,,Place
91,21,8,Memory,0,,,,,,,00804960530fa.jpg,Face,,,,1.979,2.0,Nov_Un,,,,,,1551379503.050094,1551379507.000638,,Place
92,22,8,Memory,0,,,,,,,sunaagcpoejbuzyvddd.jpg,Place,,,,0.81,4.0,Face,,,,,,1551379508.318469,1551379512.2189538,,Place
93,23,8,Memory,0,,,,,,,00895960530fa.jpg,Face,,,,1.311,2.0,Face,,,,,,1551379513.520359,1551379517.47123,,Place
94,24,8,Memory,0,,,,,,,sunaavchcbptaerhcfy.jpg,Place,,,,1.5090000000000001,3.0,Face,,,,,,1551379518.77125,1551379522.673418,,Place
95,25,8,Memory,0,,,,,,,sunapqwoeotxshkukbh.jpg,Place,,,,1.261,3.0,Place,,,,,,1551379524.0068789,1551379527.908385,,Place
96,26,8,Memory,0,,,,,,,00158931230fb.jpg,Face,,,,2.41,1.0,Face,,,,,,1551379529.274941,1551379533.176588,,Place
97,27,8,Memory,0,,,,,,,00675941121fa.jpg,Face,,,,1.344,3.0,Place,,,,,,1551379534.476268,1551379538.378274,,Place
98,28,8,Memory,0,,,,,,,00770941201fa.jpg,Face,,,,1.376,2.0,Nov_Un,,,,,,1551379539.677726,1551379543.596428,,Place
99,29,8,Memory,0,,,,,,,00111931230fb.jpg,Face,,,,1.109,3.0,Nov_Un,,,,,,1551379544.913526,1551379548.8148038,,Place
100,30,8,Memory,0,,,,,,,sunagwswhkvnsmuszlz.jpg,Place,,,,1.8780000000000001,3.0,Nov_Cued,,,,,,1551379550.131356,1551379554.032193,,Place
101,31,8,Memory,0,,,,,,,00598940928fa.jpg,Face,,,,1.1440000000000001,3.0,Nov_Un,,,,,,1551379555.332417,1551379559.20128,,Place
102,32,8,Memory,0,,,,,,,sunaakgekhjklxmvulj.jpg,Place,,,,2.093,1.0,Nov_Cued,,,,,,1551379560.501415,1551379564.3864698,,Place
103,33,8,Memory,0,,,,,,,sunaknlirqjqiwbbeeg.jpg,Place,,,,2.511,2.0,Nov_Cued,,,,,,1551379565.685917,1551379569.62162,,Place
104,34,8,Memory,0,,,,,,,sunaflojskatpeqyzqp.jpg,Place,,,,1.412,2.0,Nov_Cued,,,,,,1551379570.938235,1551379574.889138,,Place
105,35,8,Memory,0,,,,,,,00978960627fa.jpg,Face,,,,2.28,2.0,Place,,,,,,1551379576.190934,1551379580.0738358,,Place
106,36,8,Memory,0,,,,,,,00574940928fa.jpg,Face,,,,1.63,1.0,Face,,,,,,1551379581.359444,1551379585.258897,,Place
107,37,8,Memory,0,,,,,,,sunafijbgncijwykrnl.jpg,Place,,,,1.329,4.0,Nov_Cued,,,,,,1551379586.5600019,1551379590.4779232,,Place
108,38,8,Memory,0,,,,,,,sunacvbrcejzwmcgnoq.jpg,Place,,,,1.679,4.0,Face,,,,,,1551379591.777496,1551379595.697095,,Place
109,39,8,Memory,0,,,,,,,sunbddbivbptlrlauhy.jpg,Place,,,,0.996,4.0,Place,,,,,,1551379596.995713,1551379600.931295,,Place
110,40,8,Memory,0,,,,,,,00803941205fa.jpg,Face,,,,1.278,2.0,Nov_Un,,,,,,1551379602.2308881,1551379606.1328778,,Place
111,41,8,Memory,0,,,,,,,00267940128fb.jpg,Face,,,,1.577,3.0,Nov_Un,,,,,,1551379607.451796,1551379611.30136,,Place
112,42,8,Memory,0,,,,,,,00306940422fa.jpg,Face,,,,1.179,3.0,Place,,,,,,1551379612.586314,1551379616.469702,,Place
113,43,8,Memory,0,,,,,,,00089931230fa.jpg,Face,,,,2.042,1.0,Face,,,,,,1551379617.770877,1551379621.688452,,Place
114,44,8,Memory,0,,,,,,,00796941205fa.jpg,Face,,,,1.226,3.0,Place,,,,,,1551379623.005875,1551379626.906215,,Place
115,45,8,Memory,0,,,,,,,00926960627Fa.jpg,Face,,,,1.476,1.0,Place,,,,,,1551379628.206451,1551379632.1243029,,Place
116,46,8,Memory,0,,,,,,,sunagmhildamktmqjss.jpg,Place,,,,1.2109999999999999,4.0,Nov_Cued,,,,,,1551379633.424813,1551379637.361445,,Place
117,47,8,Memory,0,,,,,,,00766960620fa.jpg,Face,,,,1.2109999999999999,2.0,Nov_Un,,,,,,1551379638.660815,1551379642.5626311,,Place
118,48,8,Memory,0,,,,,,,00786941205fa.jpg,Face,,,,1.51,1.0,Nov_Un,,,,,,1551379643.879089,1551379647.764243,,Place
119,49,8,Memory,0,,,,,,,sunaguchqqnrtodtezq.jpg,Place,,,,0.975,4.0,Place,,,,,,1551379649.08075,1551379652.949203,,Place
120,60,8,Memory,1,,,,,,,00938960627fa.jpg,Face,,,,0.0,,Nov_Un,,,,,,1551379927.3865302,1551379929.457118,,Place
121,61,8,Memory,1,,,,,,,sunaygrtwrwfezqjizr.jpg,Place,,,,0.0,,Nov_Cued,,,,,,1551379930.73725,1551379932.721848,,Place
122,62,8,Memory,1,,,,,,,sunalqmfgeadpqsyzpd.jpg,Place,,,,0.633,4.0,Place,,,,,,1551379934.006357,1551379935.990819,,Place
123,63,8,Memory,1,,,,,,,00124931230fa.jpg,Face,,,,1.305,3.0,Place,,,,,,1551379937.3893142,1551379939.374192,,Place
124,64,8,Memory,1,,,,,,,00785941205fa.jpg,Face,,,,1.14,1.0,Nov_Un,,,,,,1551379940.640583,1551379942.628133,,Place
125,65,8,Memory,1,,,,,,,sunaekgzpfilgjxpeyq.jpg,Place,,,,1.206,3.0,Nov_Cued,,,,,,1551379943.9769552,1551379945.977558,,Place
126,66,8,Memory,1,,,,,,,sunaavodbcpygkggnfp.jpg,Place,,,,1.199,3.0,Face,,,,,,1551379947.239219,1551379949.223701,,Place
127,67,8,Memory,1,,,,,,,00146960620fb.jpg,Face,,,,1.341,3.0,Place,,,,,,1551379950.473793,1551379952.457015,,Place
128,68,8,Memory,1,,,,,,,00242940128fa.jpg,Face,,,,0.0,,Face,,,,,,1551379953.708094,1551379955.69573,,Place
129,69,8,Memory,1,,,,,,,00163931230fb.jpg,Face,,,,1.9040000000000001,2.0,Face,,,,,,1551379956.945962,1551379958.933142,,Place
130,70,8,Memory,1,,,,,,,01002960627fb.jpg,Face,,,,1.558,3.0,Nov_Un,,,,,,1551379960.197479,1551379962.19795,,Place
131,71,8,Memory,1,,,,,,,sunacvzhvcksnwqcqbw.jpg,Place,,,,0.9390000000000001,4.0,Nov_Cued,,,,,,1551379963.5000231,1551379965.481165,,Place
132,72,8,Memory,1,,,,,,,00906960530fa.jpg,Face,,,,0.973,3.0,Nov_Un,,,,,,1551379966.748986,1551379968.734247,,Place
133,73,8,Memory,1,,,,,,,sunbwaafjdebjzttuvq.jpg,Place,,,,1.032,1.0,Nov_Cued,,,,,,1551379969.9803529,1551379971.963301,,Place
134,74,8,Memory,1,,,,,,,00576941031fa.jpg,Face,,,,0.991,3.0,Face,,,,,,1551379973.214416,1551379975.219834,,Place
135,75,8,Memory,1,,,,,,,sunaajqmsaavkmgbsth.jpg,Place,,,,1.2830000000000001,2.0,Face,,,,,,1551379976.4695768,1551379978.454449,,Place
136,76,8,Memory,1,,,,,,,sunacypmnujalygkunp.jpg,Place,,,,1.1179999999999999,1.0,Nov_Cued,,,,,,1551379979.716044,1551379981.706333,,Place
137,77,8,Memory,1,,,,,,,sunarceibpcyacbmfga.jpg,Place,,,,0.0,,Place,,,,,,1551379982.971457,1551379984.9519038,,Place
138,78,8,Memory,1,,,,,,,sunaqyylsngywqzwfmx.jpg,Place,,,,1.405,4.0,Nov_Cued,,,,,,1551379986.206046,1551379988.1910381,,Place
139,79,8,Memory,1,,,,,,,00620940928fa.jpg,Face,,,,1.47,2.0,Nov_Un,,,,,,1551379989.452792,1551379991.442433,,Place
140,80,8,Memory,1,,,,,,,sunaedtgwjvvziytspa.jpg,Place,,,,1.349,2.0,Nov_Cued,,,,,,1551379992.708821,1551379994.691978,,Place
141,81,8,Memory,1,,,,,,,sunaalhlvzmjmitybdn.jpg,Place,,,,1.298,1.0,Place,,,,,,1551379996.0258741,1551379998.006778,,Place
142,82,8,Memory,1,,,,,,,sunantryfbloeaomfta.jpg,Place,,,,1.6230000000000002,2.0,Nov_Cued,,,,,,1551379999.26001,1551380001.243074,,Place
143,83,8,Memory,1,,,,,,,sunabjuovqvyfuzvqwt.jpg,Place,,,,1.284,1.0,Nov_Cued,,,,,,1551380002.528866,1551380004.514514,,Place
144,84,8,Memory,1,,,,,,,00581940928fa.jpg,Face,,,,1.218,3.0,Nov_Un,,,,,,1551380005.7751482,1551380007.759489,,Place
145,85,8,Memory,1,,,,,,,sunaglqunwuycxydmyu.jpg,Place,,,,1.391,1.0,Nov_Cued,,,,,,1551380009.01347,1551380010.993394,,Place
146,86,8,Memory,1,,,,,,,00966960627fa.jpg,Face,,,,1.601,2.0,Nov_Un,,,,,,1551380012.247818,1551380014.2280369,,Place
147,87,8,Memory,1,,,,,,,00101931230fb.jpg,Face,,,,1.268,3.0,Face,,,,,,1551380015.499109,1551380017.4834368,,Place
148,88,8,Memory,1,,,,,,,sunacdnquypmsshhsbk.jpg,Place,,,,1.234,1.0,Place,,,,,,1551380018.745476,1551380020.730495,,Place
149,89,8,Memory,1,,,,,,,00894960620fa.jpg,Face,,,,1.17,3.0,Place,,,,,,1551380021.979219,1551380023.967039,,Place
150,90,8,Memory,1,,,,,,,sunaatpeezlljqaxlhj.jpg,Place,,,,1.1159999999999999,3.0,Place,,,,,,1551380025.219156,1551380027.203964,,Place
151,91,8,Memory,1,,,,,,,00723941201fa.jpg,Face,,,,1.056,2.0,Nov_Un,,,,,,1551380028.465978,1551380030.454845,,Place
152,92,8,Memory,1,,,,,,,00263940128fb.jpg,Face,,,,1.0070000000000001,2.0,Nov_Un,,,,,,1551380031.716527,1551380033.706507,,Place
153,93,8,Memory,1,,,,,,,sunaefgzwiramypjvtd.jpg,Place,,,,0.9520000000000001,1.0,Face,,,,,,1551380034.9885,1551380036.970103,,Place
154,94,8,Memory,1,,,,,,,sunacvjlsylseoghjup.jpg,Place,,,,1.09,2.0,Face,,,,,,1551380038.239873,1551380040.226904,,Place
155,95,8,Memory,1,,,,,,,00730960620fa.jpg,Face,,,,0.924,1.0,Nov_Un,,,,,,1551380041.486419,1551380043.478759,,Place
156,96,8,Memory,1,,,,,,,00540940519fa.jpg,Face,,,,1.024,2.0,Place,,,,,,1551380044.721232,1551380046.711493,,Place
157,97,8,Memory,1,,,,,,,00939960627fa.jpg,Face,,,,1.024,3.0,Place,,,,,,1551380047.9758198,1551380049.959631,,Place
158,98,8,Memory,1,,,,,,,sunabcuurugvxwparpk.jpg,Place,,,,0.44,3.0,Face,,,,,,1551380051.206023,1551380053.195607,,Place
159,99,8,Memory,1,,,,,,,00725941201fa.jpg,Face,,,,1.099,2.0,Face,,,,,,1551380054.527816,1551380056.51595,,Place
160,160,8,Memory,3,,,,,,,sunaloffvbvysigxent.jpg,Place,,,,1.482,1.0,Place,,,,,,1551380709.991536,1551380712.0736132,,Place
161,161,8,Memory,3,,,,,,,sunagoufulkpsxrmklt.jpg,Place,,,,1.571,1.0,Face,,,,,,1551380713.343628,1551380715.327008,,Place
162,162,8,Memory,3,,,,,,,00901960530fa.jpg,Face,,,,1.7719999999999998,1.0,Nov_Un,,,,,,1551380716.7267618,1551380718.725609,,Place
163,163,8,Memory,3,,,,,,,sunagjeesomrwjsfqie.jpg,Place,,,,1.726,1.0,Nov_Cued,,,,,,1551380719.995241,1551380722.011635,,Place
164,164,8,Memory,3,,,,,,,00989960627fa.jpg,Face,,,,1.859,2.0,Nov_Un,,,,,,1551380723.296834,1551380725.310086,,Place
165,165,8,Memory,3,,,,,,,sunaaexqbtdswxrqjvz.jpg,Place,,,,1.808,1.0,Place,,,,,,1551380726.58014,1551380728.5939689,,Place
166,166,8,Memory,3,,,,,,,sunadtlxenqqxsyjvix.jpg,Place,,,,1.357,2.0,Nov_Cued,,,,,,1551380729.848476,1551380731.882927,,Place
167,167,8,Memory,3,,,,,,,sunagjzcrjvmxzqzljx.jpg,Place,,,,1.6230000000000002,1.0,Nov_Cued,,,,,,1551380733.266715,1551380735.304761,,Place
168,168,8,Memory,3,,,,,,,00834940307fa.jpg,Face,,,,1.476,3.0,Nov_Un,,,,,,1551380736.566985,1551380738.61698,,Place
169,169,8,Memory,3,,,,,,,00071941031fa.jpg,Face,,,,1.818,1.0,Place,,,,,,1551380739.919111,1551380741.9068382,,Place
170,170,8,Memory,3,,,,,,,sunaibnpvhkdpdnzcnz.jpg,Place,,,,1.6569999999999998,1.0,Nov_Cued,,,,,,1551380743.186242,1551380745.332511,,Place
171,171,8,Memory,3,,,,,,,sunaangbuylfvckqqoo.jpg,Place,,,,1.383,3.0,Face,,,,,,1551380746.599049,1551380748.607568,,Place
172,172,8,Memory,3,,,,,,,sunbondbduabvijnmch.jpg,Place,,,,1.376,1.0,Nov_Cued,,,,,,1551380749.887651,1551380751.968405,,Place
173,173,8,Memory,3,,,,,,,sunbaejotfklekvpxcz.jpg,Place,,,,0.158,3.0,Place,,,,,,1551380753.235594,1551380755.2729518,,Place
174,174,8,Memory,3,,,,,,,00096931230fa.jpg,Face,,,,1.319,2.0,Place,,,,,,1551380756.5354972,1551380758.587091,,Place
175,175,8,Memory,3,,,,,,,sunabtlfmiwtljmoues.jpg,Place,,,,1.075,1.0,Nov_Cued,,,,,,1551380759.853703,1551380761.875296,,Place
176,176,8,Memory,3,,,,,,,sunatstrpjxhvtbaczf.jpg,Place,,,,1.176,1.0,Place,,,,,,1551380763.159908,1551380765.175958,,Place
177,177,8,Memory,3,,,,,,,00663941121fa.jpg,Face,,,,1.421,2.0,Place,,,,,,1551380766.438633,1551380768.4304788,,Place
178,178,8,Memory,3,,,,,,,00893960530Fa.jpg,Face,,,,1.381,1.0,Place,,,,,,1551380769.729322,1551380771.731313,,Place
179,179,8,Memory,3,,,,,,,00784941205fb.jpg,Face,,,,1.085,2.0,Nov_Un,,,,,,1551380773.0133212,1551380775.011317,,Place
180,180,8,Memory,3,,,,,,,00705941205fa.jpg,Face,,,,0.7190000000000001,3.0,Nov_Un,,,,,,1551380776.275642,1551380778.28498,,Place
181,181,8,Memory,3,,,,,,,00093931230fa.jpg,Face,,,,1.358,2.0,Nov_Un,,,,,,1551380779.548022,1551380781.578024,,Place
182,182,8,Memory,3,,,,,,,00783941205fa.jpg,Face,,,,1.358,2.0,Nov_Un,,,,,,1551380782.8454869,1551380784.879195,,Place
183,183,8,Memory,3,,,,,,,sunadnjjzohjhbohlwq.jpg,Place,,,,1.004,4.0,Place,,,,,,1551380786.133544,1551380788.155827,,Place
184,184,8,Memory,3,,,,,,,sunaeisnjeetzmkbuad.jpg,Place,,,,0.935,1.0,Nov_Cued,,,,,,1551380789.4170868,1551380791.417598,,Place
185,185,8,Memory,3,,,,,,,00953960627fa.jpg,Face,,,,0.97,2.0,Place,,,,,,1551380792.685889,1551380794.686533,,Place
186,186,8,Memory,3,,,,,,,00727941205fa.jpg,Face,,,,1.166,1.0,Nov_Un,,,,,,1551380795.98648,1551380797.971459,,Place
187,187,8,Memory,3,,,,,,,00967960627fa.jpg,Face,,,,0.504,3.0,Place,,,,,,1551380799.254407,1551380801.250451,,Place
188,188,8,Memory,3,,,,,,,00787960620fa.jpg,Face,,,,0.835,1.0,Face,,,,,,1551380802.5042,1551380804.4854019,,Place
189,189,8,Memory,3,,,,,,,sunammbnoambmhdxdwd.jpg,Place,,,,1.166,2.0,Nov_Cued,,,,,,1551380805.7517948,1551380807.836526,,Place
190,190,8,Memory,3,,,,,,,sunaajtnvzzpsjdzres.jpg,Place,,,,1.291,1.0,Face,,,,,,1551380809.091356,1551380811.1216679,,Place
191,191,8,Memory,3,,,,,,,00866940307fa.jpg,Face,,,,1.137,2.0,Nov_Un,,,,,,1551380812.374209,1551380814.389815,,Place
192,192,8,Memory,3,,,,,,,sunaamdjwemxpmmtypi.jpg,Place,,,,1.208,1.0,Face,,,,,,1551380815.659293,1551380817.674931,,Place
193,193,8,Memory,3,,,,,,,00131931230fb.jpg,Face,,,,0.941,2.0,Face,,,,,,1551380818.9446368,1551380821.06128,,Place
194,194,8,Memory,3,,,,,,,00108960530fa.jpg,Face,,,,0.873,1.0,Face,,,,,,1551380822.3287349,1551380824.39199,,Place
195,195,8,Memory,3,,,,,,,00126931230fb.jpg,Face,,,,0.982,2.0,Face,,,,,,1551380825.6626039,1551380827.645139,,Place
196,196,8,Memory,3,,,,,,,sunaahwnmtqsrhocysw.jpg,Place,,,,1.49,4.0,Nov_Cued,,,,,,1551380828.915183,1551380830.959739,,Place
197,197,8,Memory,3,,,,,,,sunaaiqiqcggrskoqgy.jpg,Place,,,,1.29,2.0,Place,,,,,,1551380832.231108,1551380834.228898,,Place
198,198,8,Memory,3,,,,,,,sunajbwkywmsqkldfml.jpg,Place,,,,1.3659999999999999,1.0,Nov_Cued,,,,,,1551380835.498399,1551380837.514951,,Place
199,199,8,Memory,3,,,,,,,00302940422fa.jpg,Face,,,,1.666,1.0,Nov_Un,,,,,,1551380838.7835288,1551380840.813575,,Place
200,110,8,Memory,2,,,,,,,sunbdycacjfaujxitbw.jpg,Place,,,,0.0,,Nov_Un,,,,,,1551380323.033594,1551380325.111845,,Face
201,111,8,Memory,2,,,,,,,sunaavjinpnkappuonm.jpg,Place,,,,1.2209999999999999,3.0,Face,,,,,,1551380326.4005811,1551380328.434075,,Face
202,112,8,Memory,2,,,,,,,sunaahedjlmtqekgyvj.jpg,Place,,,,1.068,1.0,Nov_Un,,,,,,1551380329.7182631,1551380331.716929,,Face
203,113,8,Memory,2,,,,,,,00314940422fa.jpg,Face,,,,1.382,2.0,Nov_Cued,,,,,,1551380333.002382,1551380335.073369,,Face
204,114,8,Memory,2,,,,,,,00935960627fa.jpg,Face,,,,1.67,3.0,Face,,,,,,1551380336.349144,1551380338.338535,,Face
205,115,8,Memory,2,,,,,,,sunaobtizabegtwfwul.jpg,Place,,,,1.324,2.0,Face,,,,,,1551380339.639141,1551380341.686336,,Face
206,116,8,Memory,2,,,,,,,00996960627fa.jpg,Face,,,,1.5519999999999998,2.0,Nov_Cued,,,,,,1551380342.9735222,1551380345.019356,,Face
207,117,8,Memory,2,,,,,,,sunaijsqpvodplbwxkf.jpg,Place,,,,1.7409999999999999,1.0,Face,,,,,,1551380346.30748,1551380348.338908,,Face
208,118,8,Memory,2,,,,,,,00835940307fa.jpg,Face,,,,1.258,3.0,Face,,,,,,1551380349.591139,1551380351.604344,,Face
209,119,8,Memory,2,,,,,,,00197940128fa.jpg,Face,,,,0.987,2.0,Nov_Cued,,,,,,1551380352.8760788,1551380354.86358,,Face
210,120,8,Memory,2,,,,,,,00184940128fa.jpg,Face,,,,1.4569999999999999,2.0,Nov_Cued,,,,,,1551380356.105005,1551380358.096524,,Face
211,121,8,Memory,2,,,,,,,00955960627fb.jpg,Face,,,,1.335,1.0,Face,,,,,,1551380359.377642,1551380361.361327,,Face
212,122,8,Memory,2,,,,,,,sunaqbmgkgqucajzrkp.jpg,Place,,,,0.591,3.0,Face,,,,,,1551380362.6295528,1551380364.662714,,Face
213,123,8,Memory,2,,,,,,,00589940928fa.jpg,Face,,,,0.9079999999999999,2.0,Nov_Cued,,,,,,1551380365.946851,1551380367.976596,,Face
214,124,8,Memory,2,,,,,,,sunabwmcbaxwioksdgw.jpg,Place,,,,1.123,1.0,Nov_Un,,,,,,1551380369.248356,1551380371.265194,,Face
215,125,8,Memory,2,,,,,,,sunaecpkgfewqqreqwe.jpg,Place,,,,1.238,2.0,Place,,,,,,1551380372.531169,1551380374.5282052,,Face
216,126,8,Memory,2,,,,,,,00909960530.jpg,Face,,,,1.122,3.0,Face,,,,,,1551380375.800328,1551380377.798219,,Face
217,127,8,Memory,2,,,,,,,00296940422fa.jpg,Face,,,,1.226,2.0,Face,,,,,,1551380379.0511868,1551380381.082908,,Face
218,128,8,Memory,2,,,,,,,00720960620fa.jpg,Face,,,,0.9840000000000001,1.0,Place,,,,,,1551380382.3466449,1551380384.34906,,Face
219,129,8,Memory,2,,,,,,,sunakodkcslgqhqlgwl.jpg,Place,,,,1.507,3.0,Nov_Un,,,,,,1551380385.603427,1551380387.649695,,Face
220,130,8,Memory,2,,,,,,,00162931230fb.jpg,Face,,,,1.105,3.0,Face,,,,,,1551380388.9042811,1551380390.92073,,Face
221,131,8,Memory,2,,,,,,,00969960627fa.jpg,Face,,,,1.5,3.0,Face,,,,,,1551380392.183712,1551380394.202558,,Face
222,132,8,Memory,2,,,,,,,sunafvcflzhlqloapyo.jpg,Place,,,,1.465,3.0,Place,,,,,,1551380395.55577,1551380397.6402972,,Face
223,133,8,Memory,2,,,,,,,sunaavtbadenwnzeutj.jpg,Place,,,,1.068,2.0,Nov_Un,,,,,,1551380398.907604,1551380400.953845,,Face
224,134,8,Memory,2,,,,,,,sunauburywlkjszngcq.jpg,Place,,,,1.192,1.0,Face,,,,,,1551380402.207828,1551380404.221962,,Face
225,135,8,Memory,2,,,,,,,00773941201fa.jpg,Face,,,,1.252,1.0,Place,,,,,,1551380405.493634,1551380407.504849,,Face
226,136,8,Memory,2,,,,,,,00086931230fa.jpg,Face,,,,1.208,1.0,Nov_Cued,,,,,,1551380408.773013,1551380410.7899132,,Face
227,137,8,Memory,2,,,,,,,sunacwggadqsfpovdjv.jpg,Place,,,,1.2930000000000001,1.0,Nov_Un,,,,,,1551380412.044699,1551380414.158895,,Face
228,138,8,Memory,2,,,,,,,sunaddtdkycxbqlpfqa.jpg,Place,,,,1.141,4.0,Place,,,,,,1551380415.429826,1551380417.462133,,Face
229,139,8,Memory,2,,,,,,,00090931230fa.jpg,Face,,,,1.385,2.0,Nov_Cued,,,,,,1551380418.7264,1551380420.714943,,Face
230,140,8,Memory,2,,,,,,,sunabanoxjtqxamkucc.jpg,Place,,,,1.175,1.0,Nov_Un,,,,,,1551380421.98125,1551380424.050725,,Face
231,141,8,Memory,2,,,,,,,00979960627fa.jpg,Face,,,,1.205,2.0,Nov_Cued,,,,,,1551380425.3322198,1551380427.329192,,Face
232,142,8,Memory,2,,,,,,,00210940128fb.jpg,Face,,,,1.3319999999999999,3.0,Nov_Cued,,,,,,1551380428.5842109,1551380430.583603,,Face
233,143,8,Memory,2,,,,,,,00884960530fa.jpg,Face,,,,1.1,1.0,Nov_Cued,,,,,,1551380431.868402,1551380433.916525,,Face
234,144,8,Memory,2,,,,,,,sunbaoizrfijvhpnnjn.jpg,Place,,,,1.3530000000000002,1.0,Face,,,,,,1551380435.164553,1551380437.217007,,Face
235,145,8,Memory,2,,,,,,,sunbpvgllfdejxcpjqp.jpg,Place,,,,1.125,1.0,Nov_Un,,,,,,1551380438.520434,1551380440.519827,,Face
236,146,8,Memory,2,,,,,,,sunaaylzyqlqrsmfwif.jpg,Place,,,,1.499,1.0,Nov_Un,,,,,,1551380441.788993,1551380443.82214,,Face
237,147,8,Memory,2,,,,,,,sunabrwnslxalcohfre.jpg,Place,,,,1.4080000000000001,2.0,Face,,,,,,1551380445.105839,1551380447.1516821,,Face
238,148,8,Memory,2,,,,,,,sunaafynehyrzpsoaml.jpg,Place,,,,1.158,1.0,Nov_Un,,,,,,1551380448.402426,1551380450.4064689,,Face
239,149,8,Memory,2,,,,,,,00636941031fa.jpg,Face,,,,1.422,3.0,Place,,,,,,1551380451.669691,1551380453.6785948,,Face
240,310,8,Memory,6,,,,,,,00648941031fa.jpg,Face,,,,1.5830000000000002,4.0,Place,,,,,,1551382286.589603,1551382288.635319,,Place
241,311,8,Memory,6,,,,,,,sunayaepykrqvenaqqy.jpg,Place,,,,1.274,1.0,Nov_Cued,,,,,,1551382289.868814,1551382291.806212,,Place
242,312,8,Memory,6,,,,,,,sunabizydfotqddlnjp.jpg,Place,,,,1.499,1.0,Nov_Cued,,,,,,1551382293.074148,1551382295.0212462,,Place
243,313,8,Memory,6,,,,,,,sunacmpqqfbsvlzinzl.jpg,Place,,,,1.255,1.0,Place,,,,,,1551382296.258435,1551382298.222125,,Place
244,314,8,Memory,6,,,,,,,00937960627fa.jpg,Face,,,,1.4140000000000001,1.0,Nov_Un,,,,,,1551382299.4773529,1551382301.425457,,Place
245,315,8,Memory,6,,,,,,,sunajtrfunvzdfticna.jpg,Place,,,,1.25,1.0,Place,,,,,,1551382302.660464,1551382304.597058,,Place
246,316,8,Memory,6,,,,,,,sunadfndyrtqqiasoig.jpg,Place,,,,1.0659999999999998,1.0,Place,,,,,,1551382305.878724,1551382307.873909,,Place
247,317,8,Memory,6,,,,,,,00795941205fa.jpg,Face,,,,1.105,2.0,Face,,,,,,1551382309.130213,1551382311.0592911,,Place
248,318,8,Memory,6,,,,,,,00276940422fa.jpg,Face,,,,1.882,2.0,Face,,,,,,1551382312.275817,1551382314.212153,,Place
249,319,8,Memory,6,,,,,,,00911960530fa.jpg,Face,,,,0.725,1.0,Nov_Un,,,,,,1551382315.448476,1551382317.412491,,Place
250,320,8,Memory,6,,,,,,,00782941205fa.jpg,Face,,,,1.021,2.0,Face,,,,,,1551382318.650263,1551382320.5812259,,Place
251,321,8,Memory,6,,,,,,,00564940928fa.jpg,Face,,,,0.823,1.0,Place,,,,,,1551382321.800131,1551382323.797449,,Place
252,322,8,Memory,6,,,,,,,00809960620fa.jpg,Face,,,,0.574,1.0,Place,,,,,,1551382325.035649,1551382327.004842,,Place
253,323,8,Memory,6,,,,,,,sunaiwduelojtwaqeyh.jpg,Place,,,,1.567,3.0,Nov_Cued,,,,,,1551382328.235941,1551382330.182523,,Place
254,324,8,Memory,6,,,,,,,sunacycdoztxoluxjyk.jpg,Place,,,,1.2309999999999999,1.0,Face,,,,,,1551382331.437044,1551382333.371947,,Place
255,325,8,Memory,6,,,,,,,sunaafbmtoniaasysgu.jpg,Place,,,,1.0070000000000001,1.0,Nov_Cued,,,,,,1551382334.621448,1551382336.5535462,,Place
256,326,8,Memory,6,,,,,,,00073931230fa.jpg,Face,,,,1.5819999999999999,3.0,Nov_Un,,,,,,1551382337.7885618,1551382339.735589,,Place
257,327,8,Memory,6,,,,,,,00854940307fa.jpg,Face,,,,0.915,1.0,Nov_Un,,,,,,1551382340.990591,1551382342.941016,,Place
258,328,8,Memory,6,,,,,,,sunagfvluwixdsozaql.jpg,Place,,,,1.1740000000000002,1.0,Face,,,,,,1551382344.191285,1551382346.142513,,Place
259,329,8,Memory,6,,,,,,,sunahpblecxtmuzkmxb.jpg,Place,,,,1.5830000000000002,1.0,Place,,,,,,1551382347.391956,1551382349.322295,,Place
260,330,8,Memory,6,,,,,,,00963960627fa.jpg,Face,,,,1.2309999999999999,2.0,Nov_Un,,,,,,1551382350.57185,1551382352.548125,,Place
261,331,8,Memory,6,,,,,,,00913960530fa.jpg,Face,,,,0.9,3.0,Place,,,,,,1551382353.76052,1551382355.692557,,Place
262,332,8,Memory,6,,,,,,,sunaooffzffbhcpirmm.jpg,Place,,,,1.403,1.0,Place,,,,,,1551382356.906832,1551382358.845834,,Place
263,333,8,Memory,6,,,,,,,sunalntxqqadigcletd.jpg,Place,,,,0.9690000000000001,1.0,Nov_Cued,,,,,,1551382360.079775,1551382362.01265,,Place
264,334,8,Memory,6,,,,,,,sunahiphsekjihkafsl.jpg,Place,,,,1.084,4.0,Nov_Cued,,,,,,1551382363.246909,1551382365.1770449,,Place
265,335,8,Memory,6,,,,,,,sunahbvlpavurqoxdeq.jpg,Place,,,,1.49,3.0,Place,,,,,,1551382366.4150891,1551382368.366405,,Place
266,336,8,Memory,6,,,,,,,00815941205fa.jpg,Face,,,,1.5830000000000002,2.0,Nov_Un,,,,,,1551382369.6329,1551382371.56175,,Place
267,337,8,Memory,6,,,,,,,00836940307fa.jpg,Face,,,,0.882,1.0,Nov_Un,,,,,,1551382372.7831528,1551382374.715683,,Place
268,338,8,Memory,6,,,,,,,sunainqelldeebvxtcz.jpg,Place,,,,1.374,2.0,Nov_Cued,,,,,,1551382375.9520001,1551382377.930459,,Place
269,339,8,Memory,6,,,,,,,sunagtumacdlmciqamz.jpg,Place,,,,1.071,1.0,Face,,,,,,1551382379.148269,1551382381.085103,,Place
270,340,8,Memory,6,,,,,,,00874940307fa.jpg,Face,,,,1.123,1.0,Place,,,,,,1551382382.3202848,1551382384.2493641,,Place
271,341,8,Memory,6,,,,,,,00922960627fa.jpg,Face,,,,0.674,1.0,Nov_Un,,,,,,1551382385.488633,1551382387.458958,,Place
272,342,8,Memory,6,,,,,,,sunaooaqzputrowwbsw.jpg,Place,,,,1.433,3.0,Nov_Cued,,,,,,1551382388.7066169,1551382390.6877599,,Place
273,343,8,Memory,6,,,,,,,00818940307fa.jpg,Face,,,,1.641,2.0,Place,,,,,,1551382391.918343,1551382393.853048,,Place
274,344,8,Memory,6,,,,,,,00609940928fa.jpg,Face,,,,0.833,1.0,Face,,,,,,1551382395.108044,1551382397.042576,,Place
275,345,8,Memory,6,,,,,,,sunabmytpyhsgigllxu.jpg,Place,,,,1.074,2.0,Face,,,,,,1551382398.287818,1551382400.2436788,,Place
276,346,8,Memory,6,,,,,,,sunaqsolmfydodnakub.jpg,Place,,,,1.584,2.0,Nov_Cued,,,,,,1551382401.5439901,1551382403.5062401,,Place
277,347,8,Memory,6,,,,,,,00892960530fa.jpg,Face,,,,0.09,3.0,Nov_Un,,,,,,1551382404.722859,1551382406.656437,,Place
278,348,8,Memory,6,,,,,,,sunapqkyghktgtosuuk.jpg,Place,,,,1.255,1.0,Nov_Cued,,,,,,1551382407.877893,1551382409.8084302,,Place
279,349,8,Memory,6,,,,,,,00262940128fa.jpg,Face,,,,1.501,3.0,Nov_Un,,,,,,1551382411.0630438,1551382412.997566,,Place
280,360,8,Memory,7,,,,,,,00294940422fb.jpg,Face,,,,1.774,2.0,Place,,,,,,1551382636.519648,1551382638.51709,,Place
281,361,8,Memory,7,,,,,,,00265940128fb.jpg,Face,,,,0.07400000000000001,3.0,Nov_Un,,,,,,1551382639.733084,1551382641.635916,,Place
282,362,8,Memory,7,,,,,,,sunaaekxzjzrfgtkwjf.jpg,Place,,,,1.0859999999999999,4.0,Nov_Cued,,,,,,1551382642.871969,1551382644.772336,,Place
283,363,8,Memory,7,,,,,,,00316940422fa.jpg,Face,,,,1.567,2.0,Nov_Un,,,,,,1551382645.989335,1551382647.885058,,Place
284,364,8,Memory,7,,,,,,,sunaajpqmulidejvjsr.jpg,Place,,,,1.034,4.0,Face,,,,,,1551382649.1072369,1551382651.0028381,,Place
285,365,8,Memory,7,,,,,,,00947960627fa.jpg,Face,,,,1.5,1.0,Face,,,,,,1551382652.24117,1551382654.140281,,Place
286,366,8,Memory,7,,,,,,,sunadsgmtznewzyasnk.jpg,Place,,,,1.423,2.0,Face,,,,,,1551382655.359494,1551382657.271755,,Place
287,367,8,Memory,7,,,,,,,00876960620fa.jpg,Face,,,,1.3719999999999999,3.0,Nov_Un,,,,,,1551382658.505846,1551382660.406476,,Place
288,368,8,Memory,7,,,,,,,sunasmmcxdddtmtazwx.jpg,Place,,,,1.217,1.0,Face,,,,,,1551382661.6272,1551382663.541494,,Place
289,369,8,Memory,7,,,,,,,sunabkmdplkdbvxriff.jpg,Place,,,,1.531,2.0,Nov_Cued,,,,,,1551382664.763124,1551382666.690982,,Place
290,370,8,Memory,7,,,,,,,sunbxzweleltykebgan.jpg,Place,,,,1.158,2.0,Place,,,,,,1551382667.89615,1551382669.79964,,Place
291,371,8,Memory,7,,,,,,,00812941205fa.jpg,Face,,,,1.2309999999999999,2.0,Place,,,,,,1551382671.014308,1551382672.916308,,Place
292,372,8,Memory,7,,,,,,,00700941121fa.jpg,Face,,,,1.205,3.0,Face,,,,,,1551382674.149667,1551382676.044358,,Place
293,373,8,Memory,7,,,,,,,00543940519fa.jpg,Face,,,,0.8740000000000001,1.0,Face,,,,,,1551382677.266016,1551382679.184273,,Place
294,374,8,Memory,7,,,,,,,sunagmwxxwymwojbvgi.jpg,Place,,,,1.499,3.0,Nov_Cued,,,,,,1551382680.401073,1551382682.296993,,Place
295,375,8,Memory,7,,,,,,,00198940128fb.jpg,Face,,,,1.207,3.0,Face,,,,,,1551382683.513883,1551382685.431726,,Place
296,376,8,Memory,7,,,,,,,sunabrlndkruqokhury.jpg,Place,,,,1.123,2.0,Place,,,,,,1551382686.6359382,1551382688.533319,,Place
297,377,8,Memory,7,,,,,,,00098931230fa.jpg,Face,,,,1.239,3.0,Face,,,,,,1551382689.770545,1551382691.733514,,Place
298,378,8,Memory,7,,,,,,,sunaapfaivxqoynnwwp.jpg,Place,,,,1.821,2.0,Nov_Cued,,,,,,1551382692.937687,1551382694.8417199,,Place
299,379,8,Memory,7,,,,,,,sunacepzfrmtkiqonpy.jpg,Place,,,,1.135,1.0,Face,,,,,,1551382696.056705,1551382697.968339,,Place
300,380,8,Memory,7,,,,,,,sunabxmguapjekttvwm.jpg,Place,,,,0.917,2.0,Nov_Cued,,,,,,1551382699.19119,1551382701.090044,,Place
301,381,8,Memory,7,,,,,,,01009960627fa.jpg,Face,,,,0.865,2.0,Place,,,,,,1551382702.3249679,1551382704.254711,,Place
302,382,8,Memory,7,,,,,,,00132931230fb.jpg,Face,,,,0.7809999999999999,1.0,Face,,,,,,1551382705.475526,1551382707.378457,,Place
303,383,8,Memory,7,,,,,,,sunaazezcsunmhttzxz.jpg,Place,,,,1.416,2.0,Face,,,,,,1551382708.610608,1551382710.50786,,Place
304,384,8,Memory,7,,,,,,,00976960627fa.jpg,Face,,,,1.2009999999999998,2.0,Nov_Un,,,,,,1551382711.72785,1551382713.657837,,Place
305,385,8,Memory,7,,,,,,,00792941205fa.jpg,Face,,,,0.7490000000000001,1.0,Nov_Un,,,,,,1551382714.879191,1551382716.781291,,Place
306,386,8,Memory,7,,,,,,,00245940128fa.jpg,Face,,,,1.09,1.0,Nov_Un,,,,,,1551382718.012797,1551382719.9097118,,Place
307,387,8,Memory,7,,,,,,,sunaanjcbzdvtvblsdy.jpg,Place,,,,1.133,2.0,Face,,,,,,1551382721.1310642,1551382723.059269,,Place
308,388,8,Memory,7,,,,,,,sunaaeplwsfslcbtojr.jpg,Place,,,,1.0859999999999999,4.0,Nov_Cued,,,,,,1551382724.2830892,1551382726.2446392,,Place
309,389,8,Memory,7,,,,,,,00787941205fa.jpg,Face,,,,0.624,2.0,Nov_Un,,,,,,1551382727.448154,1551382729.379153,,Place
310,390,8,Memory,7,,,,,,,sunagsiwrmuixqgdimb.jpg,Place,,,,0.8190000000000001,1.0,Nov_Cued,,,,,,1551382730.600543,1551382732.495588,,Place
311,391,8,Memory,7,,,,,,,sunajrujcsdxmfbssmc.jpg,Place,,,,0.6729999999999999,3.0,Face,,,,,,1551382733.719074,1551382735.649194,,Place
312,392,8,Memory,7,,,,,,,00138931230fa.jpg,Face,,,,0.622,2.0,Nov_Un,,,,,,1551382736.8691368,1551382738.769771,,Place
313,393,8,Memory,7,,,,,,,sunabeyhmxodahoieyk.jpg,Place,,,,0.74,3.0,Nov_Cued,,,,,,1551382739.988115,1551382741.916599,,Place
314,394,8,Memory,7,,,,,,,00070940307fa.jpg,Face,,,,0.8190000000000001,1.0,Nov_Un,,,,,,1551382743.154353,1551382745.051068,,Place
315,395,8,Memory,7,,,,,,,sunbbhqyyzmsxhsbjmp.jpg,Place,,,,0.93,3.0,Nov_Cued,,,,,,1551382746.289584,1551382748.201322,,Place
316,396,8,Memory,7,,,,,,,00871940307.jpg,Face,,,,0.6890000000000001,2.0,Face,,,,,,1551382749.67356,1551382751.603087,,Place
317,397,8,Memory,7,,,,,,,sunahgtbwgsmtqeodwh.jpg,Place,,,,1.125,1.0,Place,,,,,,1551382752.857789,1551382755.078019,,Place
318,398,8,Memory,7,,,,,,,sunajwqkfsykceonyig.jpg,Place,,,,1.256,2.0,Nov_Cued,,,,,,1551382756.309046,1551382758.2050538,,Place
319,399,8,Memory,7,,,,,,,00061931230fb.jpg,Face,,,,1.4409999999999998,2.0,Nov_Un,,,,,,1551382759.4444609,1551382761.4128551,,Place
320,260,8,Memory,5,,,,,,,sunadikxpvqeabxrvvc.jpg,Place,,,,1.6880000000000002,1.0,Nov_Un,,,,,,1551381973.755031,1551381975.8368,,Face
321,261,8,Memory,5,,,,,,,00914960620fa.jpg,Face,,,,1.452,1.0,Nov_Cued,,,,,,1551381977.121356,1551381979.14162,,Face
322,262,8,Memory,5,,,,,,,sunabrjdpmoedcdjbpo.jpg,Place,,,,1.689,3.0,Face,,,,,,1551381980.439773,1551381982.4709,,Face
323,263,8,Memory,5,,,,,,,00958960627fa.jpg,Face,,,,1.8730000000000002,1.0,Place,,,,,,1551381983.740474,1551381985.73616,,Face
324,264,8,Memory,5,,,,,,,00751960620fa.jpg,Face,,,,1.122,1.0,Place,,,,,,1551381987.007602,1551381989.009635,,Face
325,265,8,Memory,5,,,,,,,sunafvwfsmqkjrutjta.jpg,Place,,,,0.9179999999999999,4.0,Place,,,,,,1551381990.292127,1551381992.293971,,Face
326,266,8,Memory,5,,,,,,,sunafgdqbclkwfocdhg.jpg,Place,,,,1.34,4.0,Nov_Un,,,,,,1551381993.577306,1551381995.641232,,Face
327,267,8,Memory,5,,,,,,,00719960620fa.jpg,Face,,,,1.425,1.0,Nov_Cued,,,,,,1551381996.906043,1551381998.957324,,Face
328,268,8,Memory,5,,,,,,,sunahtfxgsrmkiulnwk.jpg,Place,,,,1.416,1.0,Nov_Un,,,,,,1551382000.211916,1551382002.212853,,Face
329,269,8,Memory,5,,,,,,,00292940422fb.jpg,Face,,,,1.854,1.0,Face,,,,,,1551382003.491965,1551382005.5426981,,Face
330,270,8,Memory,5,,,,,,,sunanainkqdvktzoxyl.jpg,Place,,,,1.052,4.0,Place,,,,,,1551382006.831019,1551382008.8499,,Face
331,271,8,Memory,5,,,,,,,sunbvbrvgbpanfrawft.jpg,Place,,,,1.2229999999999999,4.0,Place,,,,,,1551382010.111072,1551382012.11994,,Face
332,272,8,Memory,5,,,,,,,00977960627fa.jpg,Face,,,,1.732,2.0,Place,,,,,,1551382013.383538,1551382015.446113,,Face
333,273,8,Memory,5,,,,,,,00662941121fa.jpg,Face,,,,1.8659999999999999,1.0,Nov_Cued,,,,,,1551382016.712322,1551382018.715661,,Face
334,274,8,Memory,5,,,,,,,00858940307fa.jpg,Face,,,,1.791,1.0,Face,,,,,,1551382019.968316,1551382021.9817278,,Face
335,275,8,Memory,5,,,,,,,sunavspxmxubqaeidjt.jpg,Place,,,,1.2690000000000001,1.0,Place,,,,,,1551382023.2366982,1551382025.233008,,Face
336,276,8,Memory,5,,,,,,,sunalcrtwiycqobgelp.jpg,Place,,,,1.9069999999999998,4.0,Nov_Un,,,,,,1551382026.520925,1551382028.5169199,,Face
337,277,8,Memory,5,,,,,,,00482940519fa.jpg,Face,,,,1.153,1.0,Place,,,,,,1551382029.838502,1551382031.834425,,Face
338,278,8,Memory,5,,,,,,,sunadkazmlajmohnwfl.jpg,Place,,,,1.416,2.0,Nov_Un,,,,,,1551382033.1007721,1551382035.1030881,,Face
339,279,8,Memory,5,,,,,,,00827940307fa.jpg,Face,,,,1.7180000000000002,2.0,Nov_Cued,,,,,,1551382036.390776,1551382038.4035401,,Face
340,280,8,Memory,5,,,,,,,sunaixpqndlwhwjtjek.jpg,Place,,,,1.6030000000000002,1.0,Face,,,,,,1551382039.658951,1551382041.654633,,Face
341,281,8,Memory,5,,,,,,,sunaozisvwfbmlkfhzv.jpg,Place,,,,1.675,3.0,Nov_Un,,,,,,1551382042.90872,1551382044.909945,,Face
342,282,8,Memory,5,,,,,,,00887960530.jpg,Face,,,,0.951,1.0,Nov_Cued,,,,,,1551382046.210383,1551382048.211827,,Face
343,283,8,Memory,5,,,,,,,00761960627fa.jpg,Face,,,,0.915,1.0,Nov_Cued,,,,,,1551382049.47861,1551382051.474974,,Face
344,284,8,Memory,5,,,,,,,sunadzuvtmtmgupotmf.jpg,Place,,,,1.056,1.0,Nov_Un,,,,,,1551382052.7463288,1551382054.750524,,Face
345,285,8,Memory,5,,,,,,,sunbbxkanhzjgbwyxqs.jpg,Place,,,,1.1909999999999998,2.0,Place,,,,,,1551382056.0085552,1551382058.013596,,Face
346,286,8,Memory,5,,,,,,,00999960627fa.jpg,Face,,,,0.9179999999999999,1.0,Place,,,,,,1551382059.26489,1551382061.264752,,Face
347,287,8,Memory,5,,,,,,,sunaezuszgtxnmsxdbk.jpg,Place,,,,1.172,1.0,Place,,,,,,1551382062.532198,1551382064.528904,,Face
348,288,8,Memory,5,,,,,,,00775941205fa.jpg,Face,,,,1.247,1.0,Place,,,,,,1551382065.800342,1551382067.8031368,,Face
349,289,8,Memory,5,,,,,,,sunaajspcoepticvplv.jpg,Place,,,,0.898,1.0,Nov_Un,,,,,,1551382069.084814,1551382071.080528,,Face
350,290,8,Memory,5,,,,,,,00193940928fa.jpg,Face,,,,1.072,1.0,Nov_Cued,,,,,,1551382072.368122,1551382074.367504,,Face
351,291,8,Memory,5,,,,,,,00145931230fb.jpg,Face,,,,1.575,1.0,Nov_Cued,,,,,,1551382075.637018,1551382077.656567,,Face
352,292,8,Memory,5,,,,,,,00650941031fa.jpg,Face,,,,1.052,2.0,Nov_Cued,,,,,,1551382078.950123,1551382080.9541,,Face
353,293,8,Memory,5,,,,,,,00847940307fa.jpg,Face,,,,0.8490000000000001,1.0,Face,,,,,,1551382082.221834,1551382084.227202,,Face
354,294,8,Memory,5,,,,,,,00102931230fa.jpg,Face,,,,1.432,1.0,Nov_Cued,,,,,,1551382085.523445,1551382087.522119,,Face
355,295,8,Memory,5,,,,,,,sunaaxjpzcnxligjtjq.jpg,Place,,,,1.5319999999999998,2.0,Nov_Un,,,,,,1551382088.791592,1551382090.803421,,Face
356,296,8,Memory,5,,,,,,,sunabyfxcxhdebvdyfd.jpg,Place,,,,1.021,2.0,Place,,,,,,1551382092.059325,1551382094.097193,,Face
357,297,8,Memory,5,,,,,,,sunaivdjruhkrfywfed.jpg,Place,,,,0.966,1.0,Face,,,,,,1551382095.394006,1551382097.4132679,,Face
358,298,8,Memory,5,,,,,,,00903960620fa.jpg,Face,,,,1.208,1.0,Place,,,,,,1551382098.695184,1551382100.69313,,Face
359,299,8,Memory,5,,,,,,,sunaatjesvdupctftmn.jpg,Place,,,,0.9,1.0,Nov_Un,,,,,,1551382101.978213,1551382103.9806929,,Face
360,210,8,Memory,4,,,,,,,sunbtpilbhhbmhmeuzq.jpg,Place,,,,1.286,1.0,Nov_Un,,,,,,1551381649.965262,1551381652.077961,,Face
361,211,8,Memory,4,,,,,,,sunadrmfzmstgdjdcod.jpg,Place,,,,1.206,2.0,Face,,,,,,1551381653.400172,1551381655.3792448,,Face
362,212,8,Memory,4,,,,,,,sunaafjszryxyavjzln.jpg,Place,,,,1.183,3.0,Nov_Un,,,,,,1551381656.7005801,1551381658.687815,,Face
363,213,8,Memory,4,,,,,,,sunabllobxadqcyttej.jpg,Place,,,,1.505,3.0,Nov_Un,,,,,,1551381659.985548,1551381662.0468972,,Face
364,214,8,Memory,4,,,,,,,00944960627fa.jpg,Face,,,,1.285,2.0,Place,,,,,,1551381663.331507,1551381665.373107,,Face
365,215,8,Memory,4,,,,,,,00694941121fa.jpg,Face,,,,1.273,1.0,Face,,,,,,1551381666.670327,1551381668.667196,,Face
366,216,8,Memory,4,,,,,,,00779941205fa.jpg,Face,,,,1.37,1.0,Nov_Cued,,,,,,1551381669.950042,1551381671.954582,,Face
367,217,8,Memory,4,,,,,,,00990960627fa.jpg,Face,,,,0.006999999999999999,3.0,Face,,,,,,1551381673.373618,1551381675.358658,,Face
368,218,8,Memory,4,,,,,,,01003960627fb.jpg,Face,,,,0.851,2.0,Place,,,,,,1551381676.689626,1551381678.670083,,Face
369,219,8,Memory,4,,,,,,,00571940928fa.jpg,Face,,,,1.198,1.0,Nov_Cued,,,,,,1551381679.953253,1551381681.945127,,Face
370,220,8,Memory,4,,,,,,,00557940519fa.jpg,Face,,,,0.8640000000000001,1.0,Nov_Cued,,,,,,1551381683.2598948,1551381685.2632198,,Face
371,221,8,Memory,4,,,,,,,00878960530fa.jpg,Face,,,,1.058,1.0,Face,,,,,,1551381686.542716,1551381688.530768,,Face
372,222,8,Memory,4,,,,,,,sunagcthdfirrcawoic.jpg,Place,,,,1.516,3.0,Place,,,,,,1551381689.845059,1551381691.8732882,,Face
373,223,8,Memory,4,,,,,,,00997960627fa.jpg,Face,,,,1.588,1.0,Nov_Cued,,,,,,1551381693.1797721,1551381695.198265,,Face
374,224,8,Memory,4,,,,,,,sunaptrqvaooxfvktvw.jpg,Place,,,,1.35,1.0,Face,,,,,,1551381696.4628642,1551381698.450416,,Face
375,225,8,Memory,4,,,,,,,sunacsaovnjezqwbykf.jpg,Place,,,,1.29,1.0,Nov_Un,,,,,,1551381699.74817,1551381701.7462661,,Face
376,226,8,Memory,4,,,,,,,00931960627fa.jpg,Face,,,,1.74,4.0,Face,,,,,,1551381703.03178,1551381705.012157,,Face
377,227,8,Memory,4,,,,,,,00120931230fa.jpg,Face,,,,1.364,1.0,Nov_Cued,,,,,,1551381706.300392,1551381708.298833,,Face
378,228,8,Memory,4,,,,,,,00635941031fa.jpg,Face,,,,0.833,1.0,Face,,,,,,1551381709.567441,1551381711.565925,,Face
379,229,8,Memory,4,,,,,,,00728941205fa.jpg,Face,,,,0.0,,Nov_Cued,,,,,,1551381712.8511689,1551381714.835669,,Face
380,230,8,Memory,4,,,,,,,00986960627fa.jpg,Face,,,,1.3969999999999998,2.0,Nov_Cued,,,,,,1551381716.119969,1551381718.119129,,Face
381,231,8,Memory,4,,,,,,,sunadvithllcgmfxsrn.jpg,Place,,,,1.465,2.0,Face,,,,,,1551381719.4216518,1551381721.4002311,,Face
382,232,8,Memory,4,,,,,,,00972960627fa.jpg,Face,,,,1.325,1.0,Place,,,,,,1551381722.671886,1551381724.6900609,,Face
383,233,8,Memory,4,,,,,,,sunbpflsdaxnddnwcqi.jpg,Place,,,,1.739,3.0,Face,,,,,,1551381725.990231,1551381727.9876301,,Face
384,234,8,Memory,4,,,,,,,sunacuatpqpqhyjhjqk.jpg,Place,,,,1.3230000000000002,2.0,Nov_Un,,,,,,1551381729.2575312,1551381731.270494,,Face
385,235,8,Memory,4,,,,,,,00564941031fa.jpg,Face,,,,1.673,3.0,Nov_Cued,,,,,,1551381732.557826,1551381734.538098,,Face
386,236,8,Memory,4,,,,,,,sunasbbntuiheekqyaq.jpg,Place,,,,1.156,4.0,Place,,,,,,1551381735.826832,1551381737.8262382,,Face
387,237,8,Memory,4,,,,,,,sunbbfqwjpdxniyhies.jpg,Place,,,,1.465,2.0,Place,,,,,,1551381739.1281,1551381741.10709,,Face
388,238,8,Memory,4,,,,,,,sunaejnvnpltdmhbcsi.jpg,Place,,,,1.386,1.0,Nov_Un,,,,,,1551381742.394641,1551381744.382692,,Face
389,239,8,Memory,4,,,,,,,sunaddsaeicthrfbkhe.jpg,Place,,,,0.903,1.0,Face,,,,,,1551381745.640954,1551381747.624982,,Face
390,240,8,Memory,4,,,,,,,sunachtuarilwyqnvjx.jpg,Place,,,,1.032,3.0,Nov_Un,,,,,,1551381748.913619,1551381750.9993289,,Face
391,241,8,Memory,4,,,,,,,sunagdzlvkqtpnfxfcg.jpg,Place,,,,1.4340000000000002,2.0,Nov_Un,,,,,,1551381752.281742,1551381754.2846131,,Face
392,242,8,Memory,4,,,,,,,sunakgbnzxmfohgehnu.jpg,Place,,,,0.934,1.0,Face,,,,,,1551381755.582825,1551381757.570066,,Face
393,243,8,Memory,4,,,,,,,00778941205fa.jpg,Face,,,,1.188,2.0,Place,,,,,,1551381758.849885,1551381760.8298562,,Face
394,244,8,Memory,4,,,,,,,sunbgzjryivyczuvkvm.jpg,Place,,,,1.401,2.0,Nov_Un,,,,,,1551381762.084275,1551381764.067106,,Face
395,245,8,Memory,4,,,,,,,sunaakxgygjfqrzpyoz.jpg,Place,,,,0.998,3.0,Nov_Un,,,,,,1551381765.368752,1551381767.365262,,Face
396,246,8,Memory,4,,,,,,,sunbwdrdvsweerwsdrj.jpg,Place,,,,1.839,4.0,Place,,,,,,1551381768.7037,1551381770.682977,,Face
397,247,8,Memory,4,,,,,,,00270940422fb.jpg,Face,,,,0.899,1.0,Nov_Cued,,,,,,1551381771.932517,1551381773.921409,,Face
398,248,8,Memory,4,,,,,,,00719941201fa.jpg,Face,,,,0.248,3.0,Face,,,,,,1551381775.223026,1551381777.20121,,Face
399,249,8,Memory,4,,,,,,,00080931230fb.jpg,Face,,,,0.951,2.0,Nov_Cued,,,,,,1551381778.491146,1551381780.473131,,Face
0,150,15,Presentation,3,01009960627fa_sunbxzweleltykebgan.jpg,00630940928fa_sunaczwgyukesaajxnx.jpg,01009960627fa.jpg,sunbxzweleltykebgan.jpg,00630940928fa.jpg,sunaczwgyukesaajxnx.jpg,,Face,>,Place,1.0002751350402832,,,,1.0,,,3.0,,1554129300.694103,1554129303.6942382,o,
1,151,15,Presentation,3,00060931230fa_sunaaehaikpckyjsety.jpg,00741941201fa_sunaemcowdozyphwknd.jpg,00060931230fa.jpg,sunaaehaikpckyjsety.jpg,00741941201fa.jpg,sunaemcowdozyphwknd.jpg,,Face,<,Face,0.9498751163482666,,,,1.0,,,1.0,,1554129308.4665802,1554129311.4151,x,
2,152,15,Presentation,3,00913960530fa_sunaooffzffbhcpirmm.jpg,00093931230fa_sunaahwnmtqsrhocysw.jpg,00913960530fa.jpg,sunaooffzffbhcpirmm.jpg,00093931230fa.jpg,sunaahwnmtqsrhocysw.jpg,,Face,>,Face,0.6927189826965332,,,,1.0,,,3.0,,1554129316.153763,1554129319.100013,o,
3,153,15,Presentation,3,00636941031fa_sunaddtdkycxbqlpfqa.jpg,00564941031fa_sunacsaovnjezqwbykf.jpg,00636941031fa.jpg,sunaddtdkycxbqlpfqa.jpg,00564941031fa.jpg,sunacsaovnjezqwbykf.jpg,,Face,>,Face,0.8129830360412598,,,,1.0,,,3.0,,1554129323.522177,1554129326.474393,o,
4,154,15,Presentation,3,01010960627fa_suncnkvbhypnivcohyx.jpg,00124931230fa_sunaalhlvzmjmitybdn.jpg,01010960627fa.jpg,suncnkvbhypnivcohyx.jpg,00124931230fa.jpg,sunaalhlvzmjmitybdn.jpg,,Face,>,Face,0.8169069290161133,,,,1.0,,,3.0,,1554129331.053918,1554129334.004535,o,
5,155,15,Presentation,3,00133931230fa_sunaanlwnpqndclffxt.jpg,00968960627fa_sunbagfpovqwbuexqdn.jpg,00133931230fa.jpg,sunaanlwnpqndclffxt.jpg,00968960627fa.jpg,sunbagfpovqwbuexqdn.jpg,,Face,<,Place,0.9491121768951416,,,,1.0,,,3.0,,1554129338.560011,1554129341.508591,o,
6,156,15,Presentation,3,00884960530fa_sunakodkcslgqhqlgwl.jpg,00574940928fa_sunacvbrcejzwmcgnoq.jpg,00884960530fa.jpg,sunakodkcslgqhqlgwl.jpg,00574940928fa.jpg,sunacvbrcejzwmcgnoq.jpg,,Face,<,Place,0.7669978141784668,,,,1.0,,,1.0,,1554129346.197743,1554129349.1425061,x,
7,157,15,Presentation,3,00073931230fa_sunaafbmtoniaasysgu.jpg,00966960627fa_sunaygrtwrwfezqjizr.jpg,00073931230fa.jpg,sunaafbmtoniaasysgu.jpg,00966960627fa.jpg,sunaygrtwrwfezqjizr.jpg,,Face,<,Face,0.8692111968994141,,,,1.0,,,3.0,,1554129353.660533,1554129356.61301,o,
8,158,15,Presentation,3,00123931230fb_sunaalcrrdbjgdztbiz.jpg,00505960627fa_sunabzuqsrgcsonqlkz.jpg,00123931230fb.jpg,sunaalcrrdbjgdztbiz.jpg,00505960627fa.jpg,sunabzuqsrgcsonqlkz.jpg,,Face,<,Place,1.126711130142212,,,,1.0,,,1.0,,1554129361.229907,1554129364.1806939,x,
9,159,15,Presentation,3,00142931230fb_sunaapxkpvrhpjplsok.jpg,00949960627fb_sunasnqkkyhilqkxiqm.jpg,00142931230fb.jpg,sunaapxkpvrhpjplsok.jpg,00949960627fb.jpg,sunasnqkkyhilqkxiqm.jpg,,Face,>,Place,1.0017290115356443,,,,1.0,,,1.0,,1554129369.103408,1554129372.054602,x,
10,100,15,Presentation,2,00857940307fa_sunaiwfobocrruqznsv.jpg,00978960627fa_sunbddbivbptlrlauhy.jpg,00857940307fa.jpg,sunaiwfobocrruqznsv.jpg,00978960627fa.jpg,sunbddbivbptlrlauhy.jpg,,Face,>,Face,1.3336148262023926,,,,1.0,,,3.0,,1554128979.67285,1554128982.723674,o,
11,101,15,Presentation,2,00589940928fa_sunacwggadqsfpovdjv.jpg,00746941201fa_sunaetydippjxikifsb.jpg,00589940928fa.jpg,sunacwggadqsfpovdjv.jpg,00746941201fa.jpg,sunaetydippjxikifsb.jpg,,Face,>,Place,0.8314058780670166,,,,1.0,,,1.0,,1554128987.9245949,1554128990.92832,x,
12,102,15,Presentation,2,00953960627fa_sunatstrpjxhvtbaczf.jpg,00788941205fa_sunagountlxpzkytsmp.jpg,00953960627fa.jpg,sunatstrpjxhvtbaczf.jpg,00788941205fa.jpg,sunagountlxpzkytsmp.jpg,,Face,<,Face,0.739116907119751,,,,1.0,,,3.0,,1554128995.59916,1554128998.59456,o,
13,103,15,Presentation,2,00749941201fa_sunaeuvjbmdpknaqqaj.jpg,00138931230fa_sunaapfaivxqoynnwwp.jpg,00749941201fa.jpg,sunaeuvjbmdpknaqqaj.jpg,00138931230fa.jpg,sunaapfaivxqoynnwwp.jpg,,Face,>,Place,0.8331508636474609,,,,1.0,,,1.0,,1554129003.296612,1554129006.298362,x,
14,104,15,Presentation,2,00922960627fa_sunapqkyghktgtosuuk.jpg,00239940128fa_sunabctlikybqabezjv.jpg,00922960627fa.jpg,sunapqkyghktgtosuuk.jpg,00239940128fa.jpg,sunabctlikybqabezjv.jpg,,Face,<,Place,2.58784818649292,,,,1.0,,,3.0,,1554129011.0333538,1554129014.036603,o,
15,105,15,Presentation,2,00805941205fa_sunagwzdbtlixdhgolm.jpg,00938960627fa_sunaqyylsngywqzwfmx.jpg,00805941205fa.jpg,sunagwzdbtlixdhgolm.jpg,00938960627fa.jpg,sunaqyylsngywqzwfmx.jpg,,Face,>,Place,0.9094419479370116,,,,1.0,,,3.0,,1554129020.440365,1554129023.442557,o,
16,106,15,Presentation,2,00081941031fa_sunaaftlyfudyzuhqzf.jpg,00871940307_sunajrujcsdxmfbssmc.jpg,00081941031fa.jpg,sunaaftlyfudyzuhqzf.jpg,00871940307.jpg,sunajrujcsdxmfbssmc.jpg,,Face,<,Face,0.8683969974517822,,,,1.0,,,1.0,,1554129028.1709712,1554129031.173268,x,
17,107,15,Presentation,2,00598940928fa_sunacxeheuiigkcgquf.jpg,00184940128fa_sunaavtbadenwnzeutj.jpg,00598940928fa.jpg,sunacxeheuiigkcgquf.jpg,00184940128fa.jpg,sunaavtbadenwnzeutj.jpg,,Face,>,Face,0.7980358600616455,,,,1.0,,,3.0,,1554129035.84054,1554129038.847881,o,
18,108,15,Presentation,2,00906960530fa_sunantryfbloeaomfta.jpg,00950960627fa_sunasrjlmglmjzbmqxb.jpg,00906960530fa.jpg,sunantryfbloeaomfta.jpg,00950960627fa.jpg,sunasrjlmglmjzbmqxb.jpg,,Face,<,Face,1.1234700679779053,,,,1.0,,,3.0,,1554129043.480526,1554129046.477421,o,
19,109,15,Presentation,2,00214940128fa_sunabbafjowbzcvbucc.jpg,00965960627fa_sunaydywdmvlfddbxbk.jpg,00214940128fa.jpg,sunabbafjowbzcvbucc.jpg,00965960627fa.jpg,sunaydywdmvlfddbxbk.jpg,,Face,<,Place,1.0485541820526123,,,,1.0,,,3.0,,1554129051.433827,1554129054.436286,x,
20,0,15,Presentation,0,00063931230fa_sunaaelyvurpntclgau.jpg,00245940128fa_sunabeyhmxodahoieyk.jpg,00063931230fa.jpg,sunaaelyvurpntclgau.jpg,00245940128fa.jpg,sunabeyhmxodahoieyk.jpg,,Face,<,Place,1.4835419654846191,,,,0.0,,,3.0,,1554128279.895303,1554128282.995805,o,
21,1,15,Presentation,0,00921960627fa_sunapqkpqdfvxlbqwyo.jpg,00306940422fa_sunabueyoajufbkraki.jpg,00921960627fa.jpg,sunapqkpqdfvxlbqwyo.jpg,00306940422fa.jpg,sunabueyoajufbkraki.jpg,,Face,>,Place,0.5506200790405273,,,,0.0,,,1.0,,1554128288.3030632,1554128291.300237,x,
22,2,15,Presentation,0,00069931230fb_sunaaeowapdkwzqpgqr.jpg,00979960627fa_sunbdycacjfaujxitbw.jpg,00069931230fb.jpg,sunaaeowapdkwzqpgqr.jpg,00979960627fa.jpg,sunbdycacjfaujxitbw.jpg,,Face,<,Place,1.2855939865112305,,,,1.0,,,3.0,,1554128295.617225,1554128298.602039,o,
23,3,15,Presentation,0,00720960620fa_sunaecpkgfewqqreqwe.jpg,00763941205fa_sunafhmnhsdurlvddpw.jpg,00720960620fa.jpg,sunaecpkgfewqqreqwe.jpg,00763941205fa.jpg,sunafhmnhsdurlvddpw.jpg,,Face,>,Face,1.2499001026153564,,,,1.0,,,1.0,,1554128303.652271,1554128306.6384132,x,
24,4,15,Presentation,0,00198940128fb_sunaazezcsunmhttzxz.jpg,00111931230fb_sunaakgekhjklxmvulj.jpg,00198940128fb.jpg,sunaazezcsunmhttzxz.jpg,00111931230fb.jpg,sunaakgekhjklxmvulj.jpg,,Face,>,Face,1.1252338886260986,,,,1.0,,,1.0,,1554128311.710001,1554128314.694531,x,
25,5,15,Presentation,0,00242940128fa_sunabcuurugvxwparpk.jpg,00163931230fb_sunaavodbcpygkggnfp.jpg,00242940128fa.jpg,sunabcuurugvxwparpk.jpg,00163931230fb.jpg,sunaavodbcpygkggnfp.jpg,,Face,<,Face,1.251270055770874,,,,1.0,,,3.0,,1554128319.595997,1554128322.579036,x,
26,6,15,Presentation,0,00483940519fa_sunabyvpwkgsjtijdwj.jpg,00136931230fb_sunaanptmsknhirrzed.jpg,00483940519fa.jpg,sunabyvpwkgsjtijdwj.jpg,00136931230fb.jpg,sunaanptmsknhirrzed.jpg,,Face,>,Place,1.2015349864959717,,,,1.0,,,3.0,,1554128327.614715,1554128330.601021,o,
27,7,15,Presentation,0,00109931230fa_sunaajuzribjrizdshh.jpg,00753941201fa_sunafcofuuzebuadceo.jpg,00109931230fa.jpg,sunaajuzribjrizdshh.jpg,00753941201fa.jpg,sunafcofuuzebuadceo.jpg,,Face,>,Place,0.7838149070739746,,,,1.0,,,3.0,,1554128335.5670712,1554128338.546705,o,
28,8,15,Presentation,0,00969960627fa_sunbaoizrfijvhpnnjn.jpg,01207940128fa_sundbixjudsgeuuehrn.jpg,00969960627fa.jpg,sunbaoizrfijvhpnnjn.jpg,01207940128fa.jpg,sundbixjudsgeuuehrn.jpg,,Face,<,Face,1.0975821018218994,,,,1.0,,,3.0,,1554128343.169706,1554128346.1509962,o,
29,9,15,Presentation,0,00609940928fa_sunacycdoztxoluxjyk.jpg,00801941205fa_sunagvprlbprarvgdvj.jpg,00609940928fa.jpg,sunacycdoztxoluxjyk.jpg,00801941205fa.jpg,sunagvprlbprarvgdvj.jpg,,Face,<,Face,0.7688798904418945,,,,1.0,,,3.0,,1554128351.034937,1554128354.018997,o,
30,50,15,Presentation,1,00089931230fa_sunaagcpoejbuzyvddd.jpg,00787941205fa_sunagmwxxwymwojbvgi.jpg,00089931230fa.jpg,sunaagcpoejbuzyvddd.jpg,00787941205fa.jpg,sunagmwxxwymwojbvgi.jpg,,Face,<,Face,7.349050045013428,,,,1.0,,,1.0,,1554128609.635813,1554128612.675075,x,
31,51,15,Presentation,1,00270940422fb_sunabllobxadqcyttej.jpg,00648941031fa_sunadfndyrtqqiasoig.jpg,00270940422fb.jpg,sunabllobxadqcyttej.jpg,00648941031fa.jpg,sunadfndyrtqqiasoig.jpg,,Face,>,Place,1.0689840316772459,,,,1.0,,,1.0,,1554128623.9557161,1554128626.940438,x,
32,52,15,Presentation,1,00071940128fa_sunaaexpnawiehinlpy.jpg,00102931230fa_sunaajspcoepticvplv.jpg,00071940128fa.jpg,sunaaexpnawiehinlpy.jpg,00102931230fa.jpg,sunaajspcoepticvplv.jpg,,Face,<,Place,0.742095947265625,,,,1.0,,,1.0,,1554128631.780184,1554128634.744005,x,
33,53,15,Presentation,1,00942960627fa_sunarfdklgdnjgeqfjg.jpg,00719941201fa_sunadvithllcgmfxsrn.jpg,00942960627fa.jpg,sunarfdklgdnjgeqfjg.jpg,00719941201fa.jpg,sunadvithllcgmfxsrn.jpg,,Face,>,Face,1.017108917236328,,,,1.0,,,3.0,,1554128639.298218,1554128642.262969,x,
34,54,15,Presentation,1,00532960627fa_sunaccdtpgenvcbcbcf.jpg,00140931230fb_sunaapllqyqlykszopd.jpg,00532960627fa.jpg,sunaccdtpgenvcbcbcf.jpg,00140931230fb.jpg,sunaapllqyqlykszopd.jpg,,Face,<,Place,0.8335778713226318,,,,1.0,,,1.0,,1554128647.134834,1554128650.0991971,x,
35,55,15,Presentation,1,00790941205fa_sunagpjzsbltchlwvou.jpg,00647941031fa_sunadflbrkckmepztql.jpg,00790941205fa.jpg,sunagpjzsbltchlwvou.jpg,00647941031fa.jpg,sunadflbrkckmepztql.jpg,,Face,>,Face,0.9341599941253662,,,,1.0,,,1.0,,1554128654.821517,1554128657.7904289,x,
36,56,15,Presentation,1,00481940519fa_sunabxsuqbleluwczoy.jpg,00728941205fa_sunaejnvnpltdmhbcsi.jpg,00481940519fa.jpg,sunabxsuqbleluwczoy.jpg,00728941205fa.jpg,sunaejnvnpltdmhbcsi.jpg,,Face,>,Face,0.9345848560333252,,,,0.0,,,1.0,,1554128662.502094,1554128665.469989,o,
37,57,15,Presentation,1,00804960530fa_sunagwswhkvnsmuszlz.jpg,00705941205fa_sunadtlxenqqxsyjvix.jpg,00804960530fa.jpg,sunagwswhkvnsmuszlz.jpg,00705941205fa.jpg,sunadtlxenqqxsyjvix.jpg,,Face,<,Face,0.8004331588745117,,,,1.0,,,3.0,,1554128670.221433,1554128673.189291,o,
38,58,15,Presentation,1,00999960627fa_sunbvbrvgbpanfrawft.jpg,00700941121fa_sunadsgmtznewzyasnk.jpg,00999960627fa.jpg,sunbvbrvgbpanfrawft.jpg,00700941121fa.jpg,sunadsgmtznewzyasnk.jpg,,Face,>,Place,1.1646261215209959,,,,1.0,,,1.0,,1554128677.777725,1554128680.742833,x,
39,59,15,Presentation,1,00092931230fa_sunaaheqzstzxuadglu.jpg,00115931230fa_sunaakmxzhuceuiryah.jpg,00092931230fa.jpg,sunaaheqzstzxuadglu.jpg,00115931230fa.jpg,sunaakmxzhuceuiryah.jpg,,Face,<,Place,1.0865089893341064,,,,1.0,,,3.0,,1554128685.697621,1554128688.663131,x,
40,250,15,Presentation,5,00221940128fa_sunabcfpwlpolnutyju.jpg,00132931230fb_sunaanjcbzdvtvblsdy.jpg,00221940128fa.jpg,sunabcfpwlpolnutyju.jpg,00132931230fb.jpg,sunaanjcbzdvtvblsdy.jpg,,Face,<,Face,0.9188480377197266,,,,1.0,,,3.0,,1554129981.020533,1554129984.065898,o,
41,251,15,Presentation,5,00838940307fa_sunaiozxhxgtfrmoagh.jpg,00780960530fa_sunagetqixeypsysbpn.jpg,00838940307fa.jpg,sunaiozxhxgtfrmoagh.jpg,00780960530fa.jpg,sunagetqixeypsysbpn.jpg,,Face,>,Face,1.0390310287475586,,,,1.0,,,3.0,,1554129988.784058,1554129991.769855,o,
42,252,15,Presentation,5,00129931230fb_sunaamsdyakblkfoydx.jpg,00675941121fa_sunadoxcchtmsxewsau.jpg,00129931230fb.jpg,sunaamsdyakblkfoydx.jpg,00675941121fa.jpg,sunadoxcchtmsxewsau.jpg,,Face,<,Place,1.1360878944396973,,,,1.0,,,1.0,,1554129996.607608,1554129999.5874438,x,
43,253,15,Presentation,5,00635941031fa_sunaddsaeicthrfbkhe.jpg,00260940128fa_sunabgfhvifeijihhjw.jpg,00635941031fa.jpg,sunaddsaeicthrfbkhe.jpg,00260940128fa.jpg,sunabgfhvifeijihhjw.jpg,,Face,<,Face,1.2074182033538818,,,,1.0,,,1.0,,1554130004.522423,1554130007.507543,x,
44,254,15,Presentation,5,00082931230fa_sunaafvitpexrpvumsa.jpg,00308940422fb_sunabwfvcqqidycwypa.jpg,00082931230fa.jpg,sunaafvitpexrpvumsa.jpg,00308940422fb.jpg,sunabwfvcqqidycwypa.jpg,,Face,>,Place,0.9502861499786376,,,,1.0,,,1.0,,1554130012.509448,1554130015.493877,x,
45,255,15,Presentation,5,00828940307fa_sunahuynahneraqftyz.jpg,00931960627fa_sunaptrqvaooxfvktvw.jpg,00828940307fa.jpg,sunahuynahneraqftyz.jpg,00931960627fa.jpg,sunaptrqvaooxfvktvw.jpg,,Face,<,Place,0.8353750705718994,,,,0.0,,,1.0,,1554130020.245598,1554130023.2287788,x,
46,256,15,Presentation,5,00557940519fa_sunachtuarilwyqnvjx.jpg,00112931230fa_sunaakjaacuzulqckgl.jpg,00557940519fa.jpg,sunachtuarilwyqnvjx.jpg,00112931230fa.jpg,sunaakjaacuzulqckgl.jpg,,Face,>,Face,1.43576979637146,,,,1.0,,,1.0,,1554130027.847922,1554130030.833573,x,
47,257,15,Presentation,5,00926960627Fa_sunapqwoeotxshkukbh.jpg,00210940128fb_sunabanoxjtqxamkucc.jpg,00926960627Fa.jpg,sunapqwoeotxshkukbh.jpg,00210940128fb.jpg,sunabanoxjtqxamkucc.jpg,,Face,<,Place,0.8466191291809082,,,,1.0,,,3.0,,1554130036.050888,1554130039.036491,o,
48,258,15,Presentation,5,00663941121fa_sunadnjjzohjhbohlwq.jpg,00576941031fa_sunacvjlsylseoghjup.jpg,00663941121fa.jpg,sunadnjjzohjhbohlwq.jpg,00576941031fa.jpg,sunacvjlsylseoghjup.jpg,,Face,>,Place,1.2188198566436768,,,,1.0,,,1.0,,1554130043.6525722,1554130046.636714,x,
49,259,15,Presentation,5,00633940928fa_sunadbhmrgrrpyzglxs.jpg,00305940422fa_sunabtrnbvpppgczjim.jpg,00633940928fa.jpg,sunadbhmrgrrpyzglxs.jpg,00305940422fa.jpg,sunabtrnbvpppgczjim.jpg,,Face,>,Face,1.6535248756408691,,,,1.0,,,3.0,,1554130051.6429448,1554130054.623543,o,
50,200,15,Presentation,4,00935960627fa_sunaqbmgkgqucajzrkp.jpg,00774941201fa_sunafvtpfczkzopbgue.jpg,00935960627fa.jpg,sunaqbmgkgqucajzrkp.jpg,00774941201fa.jpg,sunafvtpfczkzopbgue.jpg,,Face,>,Place,1.2054901123046875,,,,1.0,,,1.0,,1554129660.294867,1554129663.3292449,x,
51,201,15,Presentation,4,00885960530fa_sunakwlvxjpddialozd.jpg,00773941201fa_sunafvcflzhlqloapyo.jpg,00885960530fa.jpg,sunakwlvxjpddialozd.jpg,00773941201fa.jpg,sunafvcflzhlqloapyo.jpg,,Face,>,Face,0.9518229961395264,,,,1.0,,,1.0,,1554129668.367817,1554129671.3484151,x,
52,202,15,Presentation,4,00961960627fa_sunawotxrevnqvamsfp.jpg,00744941201fa_sunaeomlfaabhpswasy.jpg,00961960627fa.jpg,sunawotxrevnqvamsfp.jpg,00744941201fa.jpg,sunaeomlfaabhpswasy.jpg,,Face,<,Face,0.7840859889984131,,,,1.0,,,1.0,,1554129676.1002722,1554129679.083529,x,
53,203,15,Presentation,4,00211940128fa_sunabasphceswhwwqvv.jpg,00267940128fb_sunablfqiwfqomjarht.jpg,00211940128fa.jpg,sunabasphceswhwwqvv.jpg,00267940128fb.jpg,sunablfqiwfqomjarht.jpg,,Face,>,Place,0.8488070964813232,,,,1.0,,,3.0,,1554129683.6683538,1554129686.6543038,x,
54,204,15,Presentation,4,00839940307fa_sunaipyohrqlwngaqif.jpg,00807941205fa_sunahawfngukizslzsd.jpg,00839940307fa.jpg,sunaipyohrqlwngaqif.jpg,00807941205fa.jpg,sunahawfngukizslzsd.jpg,,Face,<,Place,0.7357809543609619,,,,1.0,,,3.0,,1554129691.325978,1554129694.305182,o,
55,205,15,Presentation,4,00727941205fa_sunaeisnjeetzmkbuad.jpg,00670941121fa_sunadochqcucscehsgk.jpg,00727941205fa.jpg,sunaeisnjeetzmkbuad.jpg,00670941121fa.jpg,sunadochqcucscehsgk.jpg,,Face,>,Place,1.0501539707183838,,,,1.0,,,3.0,,1554129698.928626,1554129701.908922,o,
56,206,15,Presentation,4,00937960627fa_sunaqsolmfydodnakub.jpg,01005960627fa_sunbwyuesflwdpqtgoy.jpg,00937960627fa.jpg,sunaqsolmfydodnakub.jpg,01005960627fa.jpg,sunbwyuesflwdpqtgoy.jpg,,Face,<,Place,0.7475590705871582,,,,1.0,,,1.0,,1554129706.759983,1554129709.7471519,x,
57,207,15,Presentation,4,00893960530Fa_sunaloffvbvysigxent.jpg,00786941205fa_sunagmhildamktmqjss.jpg,00893960530Fa.jpg,sunaloffvbvysigxent.jpg,00786941205fa.jpg,sunagmhildamktmqjss.jpg,,Face,>,Face,1.5520620346069336,,,,1.0,,,3.0,,1554129714.316667,1554129717.298044,o,
58,208,15,Presentation,4,00933960627fa_sunapwjkcxdaeqehfql.jpg,00914960620fa_sunaozisvwfbmlkfhzv.jpg,00933960627fa.jpg,sunapwjkcxdaeqehfql.jpg,00914960620fa.jpg,sunaozisvwfbmlkfhzv.jpg,,Face,<,Face,1.0335209369659424,,,,1.0,,,3.0,,1554129722.614656,1554129725.5998518,o,
59,209,15,Presentation,4,00793941205fa_sunagtjwilqjvxohypn.jpg,00908960530fa_sunanwjjyqqwzqrqagd.jpg,00793941205fa.jpg,sunagtjwilqjvxohypn.jpg,00908960530fa.jpg,sunanwjjyqqwzqrqagd.jpg,,Face,<,Face,1.0334310531616209,,,,1.0,,,1.0,,1554129730.417386,1554129733.40454,x,
60,300,15,Presentation,6,00620940928fa_sunacypmnujalygkunp.jpg,00977960627fa_sunbbxkanhzjgbwyxqs.jpg,00620940928fa.jpg,sunacypmnujalygkunp.jpg,00977960627fa.jpg,sunbbxkanhzjgbwyxqs.jpg,,Face,>,Face,1.002086162567139,,,,1.0,,,3.0,,1554130299.4192731,1554130302.454129,o,
61,301,15,Presentation,6,00874940307fa_sunajtrfunvzdfticna.jpg,00866940307fa_sunajbwkywmsqkldfml.jpg,00874940307fa.jpg,sunajtrfunvzdfticna.jpg,00866940307fa.jpg,sunajbwkywmsqkldfml.jpg,,Face,<,Place,0.8243131637573242,,,,1.0,,,1.0,,1554130307.238964,1554130310.223813,x,
62,302,15,Presentation,6,00877960530fa_sunajxpkuhbizeveguy.jpg,00791941205fa_sunagrmyoovzukhxmlo.jpg,00877960530fa.jpg,sunajxpkuhbizeveguy.jpg,00791941205fa.jpg,sunagrmyoovzukhxmlo.jpg,,Face,<,Face,0.7675611972808838,,,,1.0,,,3.0,,1554130314.8114018,1554130317.792067,o,
63,303,15,Presentation,6,00835940307fa_sunaijsqpvodplbwxkf.jpg,00911960530fa_sunaooaqzputrowwbsw.jpg,00835940307fa.jpg,sunaijsqpvodplbwxkf.jpg,00911960530fa.jpg,sunaooaqzputrowwbsw.jpg,,Face,>,Face,0.9014630317687988,,,,0.0,,,3.0,,1554130322.3641381,1554130325.344902,o,
64,304,15,Presentation,6,00638941031fa_sunadfktsqjthoglcsm.jpg,00816941205fa_sunahmhrncocyhsjpxk.jpg,00638941031fa.jpg,sunadfktsqjthoglcsm.jpg,00816941205fa.jpg,sunahmhrncocyhsjpxk.jpg,,Face,<,Face,1.0370240211486816,,,,1.0,,,1.0,,1554130330.0327551,1554130333.013515,x,
65,305,15,Presentation,6,00482940519fa_sunabyfxcxhdebvdyfd.jpg,00076931230fa_sunaafewhewbxmjiurz.jpg,00482940519fa.jpg,sunabyfxcxhdebvdyfd.jpg,00076931230fa.jpg,sunaafewhewbxmjiurz.jpg,,Face,>,Place,0.9859259128570556,,,,1.0,,,3.0,,1554130337.83148,1554130340.819761,o,
66,306,15,Presentation,6,00785941205fa_sunaglqunwuycxydmyu.jpg,00498960627fa_sunabzjxlmkwnwzimua.jpg,00785941205fa.jpg,sunaglqunwuycxydmyu.jpg,00498960627fa.jpg,sunabzjxlmkwnwzimua.jpg,,Face,>,Place,0.8511919975280762,,,,1.0,,,3.0,,1554130345.655995,1554130348.635078,o,
67,307,15,Presentation,6,00982960627fa_sunbesrwkdsffeogeqq.jpg,00747941201fa_sunaeutbrtswvsozxyk.jpg,00982960627fa.jpg,sunbesrwkdsffeogeqq.jpg,00747941201fa.jpg,sunaeutbrtswvsozxyk.jpg,,Face,<,Place,0.7977461814880371,,,,1.0,,,1.0,,1554130353.257926,1554130356.242794,x,
68,308,15,Presentation,6,00892960530fa_sunalntxqqadigcletd.jpg,00989960627fa_sunbondbduabvijnmch.jpg,00892960530fa.jpg,sunalntxqqadigcletd.jpg,00989960627fa.jpg,sunbondbduabvijnmch.jpg,,Face,<,Place,1.0352590084075928,,,,1.0,,,1.0,,1554130360.84429,1554130363.8233972,x,
69,309,15,Presentation,6,00681941121fa_sunadqmjrhfjyuzyvdd.jpg,00818940307fa_sunahpblecxtmuzkmxb.jpg,00681941121fa.jpg,sunadqmjrhfjyuzyvdd.jpg,00818940307fa.jpg,sunahpblecxtmuzkmxb.jpg,,Face,>,Face,1.5787131786346436,,,,1.0,,,3.0,,1554130368.642202,1554130371.716332,o,
70,350,15,Presentation,7,00773960620fa_sunafvsxtzaizojicxx.jpg,00694941121fa_sunadrmfzmstgdjdcod.jpg,00773960620fa.jpg,sunafvsxtzaizojicxx.jpg,00694941121fa.jpg,sunadrmfzmstgdjdcod.jpg,,Face,>,Face,0.982830047607422,,,,0.0,,,1.0,,1554130610.3208768,1554130613.360224,x,
71,351,15,Presentation,7,00776941205fa_sunafxokyavhgptyfye.jpg,00797960620fa_sunagufzbeteqdjxais.jpg,00776941205fa.jpg,sunafxokyavhgptyfye.jpg,00797960620fa.jpg,sunagufzbeteqdjxais.jpg,,Face,>,Place,1.0515599250793457,,,,1.0,,,1.0,,1554130618.161205,1554130621.149499,x,
72,352,15,Presentation,7,00943960627fa_sunarpsxqkduedrrzyi.jpg,00280940422fb_sunabohxbskznglnrhv.jpg,00943960627fa.jpg,sunarpsxqkduedrrzyi.jpg,00280940422fb.jpg,sunabohxbskznglnrhv.jpg,,Face,>,Face,0.9349708557128906,,,,1.0,,,3.0,,1554130626.0136302,1554130629.0020778,o,
73,353,15,Presentation,7,00162931230fb_sunaavjinpnkappuonm.jpg,00970960627fa_sunbasypfgzjtomktmu.jpg,00162931230fb.jpg,sunaavjinpnkappuonm.jpg,00970960627fa.jpg,sunbasypfgzjtomktmu.jpg,,Face,<,Place,0.9160928726196288,,,,0.0,,,3.0,,1554130633.715761,1554130636.696657,o,
74,354,15,Presentation,7,00777941205fa_sunagcinxkccdtrjmlv.jpg,00071941031fa_sunaaexqbtdswxrqjvz.jpg,00777941205fa.jpg,sunagcinxkccdtrjmlv.jpg,00071941031fa.jpg,sunaaexqbtdswxrqjvz.jpg,,Face,>,Face,0.8560888767242432,,,,1.0,,,1.0,,1554130641.414705,1554130644.398442,x,
75,355,15,Presentation,7,00901960530fa_sunammbnoambmhdxdwd.jpg,00834940307fa_sunaibnpvhkdpdnzcnz.jpg,00901960530fa.jpg,sunammbnoambmhdxdwd.jpg,00834940307fa.jpg,sunaibnpvhkdpdnzcnz.jpg,,Face,<,Face,0.8793079853057861,,,,0.0,,,3.0,,1554130649.049703,1554130652.040269,o,
76,356,15,Presentation,7,00062931230fb_sunaaelotvjgibjtjhs.jpg,00147931230fb_sunaatpkocdkocwxpkb.jpg,00062931230fb.jpg,sunaaelotvjgibjtjhs.jpg,00147931230fb.jpg,sunaatpkocdkocwxpkb.jpg,,Face,<,Place,1.0414061546325684,,,,1.0,,,3.0,,1554130656.723958,1554130659.704377,o,
77,357,15,Presentation,7,00985960627fa_sunbgklxeqjhdbyfhhy.jpg,00065931230fb_sunaaemixhfquhnxxlm.jpg,00985960627fa.jpg,sunbgklxeqjhdbyfhhy.jpg,00065931230fb.jpg,sunaaemixhfquhnxxlm.jpg,,Face,<,Face,0.8313000202178955,,,,1.0,,,3.0,,1554130664.538043,1554130667.528653,o,
78,358,15,Presentation,7,00768941205fa_sunafkmnlytenlsywia.jpg,00800941205fb_sunagvjurcwdbixvnyi.jpg,00768941205fa.jpg,sunafkmnlytenlsywia.jpg,00800941205fb.jpg,sunagvjurcwdbixvnyi.jpg,,Face,>,Place,0.8135550022125244,,,,1.0,,,3.0,,1554130672.129038,1554130675.115447,o,
79,359,15,Presentation,7,00778941205fa_sunagcthdfirrcawoic.jpg,00146960620fb_sunaatpeezlljqaxlhj.jpg,00778941205fa.jpg,sunagcthdfirrcawoic.jpg,00146960620fb.jpg,sunaatpeezlljqaxlhj.jpg,,Face,<,Place,0.7364428043365479,,,,1.0,,,1.0,,1554130679.709409,1554130682.700964,x,
80,10,15,Memory,0,,,,,,,00069931230fb.jpg,Face,,,,2.002,2.0,Place,,,,,,1554128361.343083,1554128363.505337,,Face
81,11,15,Memory,0,,,,,,,sunanaacmmosxrfwmvl.jpg,Place,,,,1.6769999999999998,1.0,Nov_Un,,,,,,1554128364.794885,1554128366.9563491,,Face
82,12,15,Memory,0,,,,,,,sunafhmnhsdurlvddpw.jpg,Place,,,,1.7690000000000001,1.0,Face,,,,,,1554128368.239383,1554128370.22872,,Face
83,13,15,Memory,0,,,,,,,sunadikxpvqeabxrvvc.jpg,Place,,,,0.0,,Nov_Un,,,,,,1554128371.490849,1554128373.566583,,Face
84,14,15,Memory,0,,,,,,,sunaprnrbmgkomdbchr.jpg,Place,,,,0.0,,Nov_Un,,,,,,1554128374.864794,1554128376.860189,,Face
85,15,15,Memory,0,,,,,,,00650941031fa.jpg,Face,,,,1.4909999999999999,4.0,Nov_Cued,,,,,,1554128378.132016,1554128380.160984,,Face
86,16,15,Memory,0,,,,,,,00483940519fa.jpg,Face,,,,1.172,3.0,Place,,,,,,1554128381.4324539,1554128383.462649,,Face
87,17,15,Memory,0,,,,,,,00145931230fb.jpg,Face,,,,1.234,4.0,Nov_Cued,,,,,,1554128384.733648,1554128386.729675,,Face
88,18,15,Memory,0,,,,,,,00751960620fa.jpg,Face,,,,1.382,2.0,Nov_Cued,,,,,,1554128387.9961731,1554128390.006104,,Face
89,19,15,Memory,0,,,,,,,sunaatjesvdupctftmn.jpg,Place,,,,1.5330000000000001,2.0,Nov_Un,,,,,,1554128391.285601,1554128393.387069,,Face
90,20,15,Memory,0,,,,,,,00198940128fb.jpg,Face,,,,1.1909999999999998,4.0,Face,,,,,,1554128394.64889,1554128396.691416,,Face
91,21,15,Memory,0,,,,,,,00242940128fa.jpg,Face,,,,1.069,3.0,Face,,,,,,1554128397.987102,1554128400.01722,,Face
92,22,15,Memory,0,,,,,,,00763941205fa.jpg,Face,,,,1.291,2.0,Face,,,,,,1554128401.289584,1554128403.357881,,Face
93,23,15,Memory,0,,,,,,,sunajoveqhiprwqgoco.jpg,Place,,,,1.101,2.0,Nov_Un,,,,,,1554128404.674485,1554128406.754606,,Face
94,24,15,Memory,0,,,,,,,sunafcofuuzebuadceo.jpg,Place,,,,1.392,2.0,Place,,,,,,1554128408.0234869,1554128410.0711222,,Face
95,25,15,Memory,0,,,,,,,00921960627fa.jpg,Face,,,,0.966,2.0,Place,,,,,,1554128411.392161,1554128413.444819,,Face
96,26,15,Memory,0,,,,,,,00809960620fa.jpg,Face,,,,1.735,3.0,Nov_Cued,,,,,,1554128414.760374,1554128416.790013,,Face
97,27,15,Memory,0,,,,,,,00869940307fa.jpg,Face,,,,0.833,2.0,Nov_Cued,,,,,,1554128418.039271,1554128420.040995,,Face
98,28,15,Memory,0,,,,,,,sunbdycacjfaujxitbw.jpg,Place,,,,1.4380000000000002,2.0,Place,,,,,,1554128421.307428,1554128423.340682,,Face
99,29,15,Memory,0,,,,,,,sunaizeyhvjzknwjudw.jpg,Place,,,,1.774,3.0,Nov_Un,,,,,,1554128424.591836,1554128426.7289882,,Face
100,30,15,Memory,0,,,,,,,sunapqkpqdfvxlbqwyo.jpg,Place,,,,0.941,2.0,Place,,,,,,1554128428.0146391,1554128430.110341,,Face
101,31,15,Memory,0,,,,,,,sunabcuurugvxwparpk.jpg,Place,,,,1.359,4.0,Face,,,,,,1554128431.398918,1554128433.683754,,Face
102,32,15,Memory,0,,,,,,,00306940422fa.jpg,Face,,,,1.7169999999999999,2.0,Place,,,,,,1554128434.961825,1554128437.029696,,Face
103,33,15,Memory,0,,,,,,,00245940128fa.jpg,Face,,,,1.338,2.0,Place,,,,,,1554128438.301276,1554128440.332133,,Face
104,34,15,Memory,0,,,,,,,sunabueyoajufbkraki.jpg,Place,,,,1.4069999999999998,1.0,Place,,,,,,1554128441.652573,1554128443.681469,,Face
105,35,15,Memory,0,,,,,,,00987960627fa.jpg,Face,,,,1.216,1.0,Nov_Cued,,,,,,1554128444.970649,1554128447.1163561,,Face
106,36,15,Memory,0,,,,,,,sunabyvpwkgsjtijdwj.jpg,Place,,,,1.12,4.0,Place,,,,,,1554128448.403918,1554128450.403831,,Face
107,37,15,Memory,0,,,,,,,sunabeyhmxodahoieyk.jpg,Place,,,,1.14,1.0,Place,,,,,,1554128451.789143,1554128453.8049471,,Face
108,38,15,Memory,0,,,,,,,00929960627fa.jpg,Face,,,,0.0,,Nov_Cued,,,,,,1554128455.073307,1554128457.153305,,Face
109,39,15,Memory,0,,,,,,,sunaaeowapdkwzqpgqr.jpg,Place,,,,1.642,2.0,Place,,,,,,1554128458.540458,1554128460.607768,,Face
110,40,15,Memory,0,,,,,,,sunaazezcsunmhttzxz.jpg,Place,,,,1.016,2.0,Face,,,,,,1554128461.8748732,1554128463.871249,,Face
111,41,15,Memory,0,,,,,,,00996960627fa.jpg,Face,,,,0.9229999999999999,2.0,Nov_Cued,,,,,,1554128465.159831,1554128467.171896,,Face
112,42,15,Memory,0,,,,,,,00979960627fa.jpg,Face,,,,1.1,2.0,Place,,,,,,1554128468.477095,1554128470.579072,,Face
113,43,15,Memory,0,,,,,,,00902960530fa.jpg,Face,,,,0.815,2.0,Nov_Cued,,,,,,1554128471.8786778,1554128473.8662221,,Face
114,44,15,Memory,0,,,,,,,sunahbvlpavurqoxdeq.jpg,Place,,,,1.1540000000000001,2.0,Nov_Un,,,,,,1554128475.1632712,1554128477.209531,,Face
115,45,15,Memory,0,,,,,,,00860940307fa.jpg,Face,,,,0.672,2.0,Nov_Cued,,,,,,1554128478.496681,1554128480.5266972,,Face
116,46,15,Memory,0,,,,,,,sunbpvgllfdejxcpjqp.jpg,Place,,,,1.4680000000000002,1.0,Nov_Un,,,,,,1554128481.815574,1554128483.817048,,Face
117,47,15,Memory,0,,,,,,,sunaezuszgtxnmsxdbk.jpg,Place,,,,0.919,1.0,Nov_Un,,,,,,1554128485.116856,1554128487.233512,,Face
118,48,15,Memory,0,,,,,,,sunbloeoiozwjjsiamp.jpg,Place,,,,1.225,1.0,Nov_Un,,,,,,1554128488.5331302,1554128490.5347881,,Face
119,49,15,Memory,0,,,,,,,00753941201fa.jpg,Face,,,,1.171,1.0,Place,,,,,,1554128491.969309,1554128494.180992,,Face
120,60,15,Memory,1,,,,,,,sunagpjzsbltchlwvou.jpg,Place,,,,0.0,,Face,,,,,,1554128694.300299,1554128696.468243,,Place
121,61,15,Memory,1,,,,,,,01000960627fa.jpg,Face,,,,0.0,,Nov_Un,,,,,,1554128697.785569,1554128699.773524,,Place
122,62,15,Memory,1,,,,,,,00959960627fa.jpg,Face,,,,1.104,2.0,Nov_Un,,,,,,1554128701.236125,1554128703.2214382,,Place
123,63,15,Memory,1,,,,,,,00102931230fa.jpg,Face,,,,1.042,4.0,Place,,,,,,1554128704.6220539,1554128706.683767,,Place
124,64,15,Memory,1,,,,,,,00811960530fa.jpg,Face,,,,1.147,2.0,Nov_Un,,,,,,1554128707.955346,1554128710.005252,,Place
125,65,15,Memory,1,,,,,,,00532960627fa.jpg,Face,,,,1.3980000000000001,2.0,Place,,,,,,1554128711.357293,1554128713.341385,,Place
126,66,15,Memory,1,,,,,,,sunadvithllcgmfxsrn.jpg,Place,,,,1.165,3.0,Face,,,,,,1554128714.641712,1554128716.6875381,,Place
127,67,15,Memory,1,,,,,,,sunakmnfgklupjijsgf.jpg,Place,,,,1.114,2.0,Nov_Cued,,,,,,1554128718.025831,1554128720.0395699,,Place
128,68,15,Memory,1,,,,,,,00939960627fa.jpg,Face,,,,1.439,1.0,Nov_Un,,,,,,1554128721.4770901,1554128723.475591,,Place
129,69,15,Memory,1,,,,,,,sunagmwxxwymwojbvgi.jpg,Place,,,,1.568,2.0,Face,,,,,,1554128724.76226,1554128726.7583609,,Place
130,70,15,Memory,1,,,,,,,sunarfdklgdnjgeqfjg.jpg,Place,,,,0.672,2.0,Face,,,,,,1554128728.04462,1554128730.066248,,Place
131,71,15,Memory,1,,,,,,,00880960530fa.jpg,Face,,,,1.6909999999999998,2.0,Nov_Un,,,,,,1554128731.379625,1554128733.476202,,Place
132,72,15,Memory,1,,,,,,,sunagwswhkvnsmuszlz.jpg,Place,,,,1.253,2.0,Face,,,,,,1554128734.781681,1554128736.793024,,Place
133,73,15,Memory,1,,,,,,,00140931230fb.jpg,Face,,,,0.0,,Place,,,,,,1554128738.076824,1554128740.213692,,Place
134,74,15,Memory,1,,,,,,,00909960530.jpg,Face,,,,0.966,3.0,Nov_Un,,,,,,1554128741.516325,1554128743.482255,,Place
135,75,15,Memory,1,,,,,,,sunaccdtpgenvcbcbcf.jpg,Place,,,,0.0,,Place,,,,,,1554128744.78444,1554128746.763483,,Place
136,76,15,Memory,1,,,,,,,sunaapllqyqlykszopd.jpg,Place,,,,0.0,,Place,,,,,,1554128748.068794,1554128750.070592,,Place
137,77,15,Memory,1,,,,,,,sunbvzmgrdvaakxusbu.jpg,Place,,,,1.032,1.0,Nov_Cued,,,,,,1554128751.436608,1554128753.432447,,Place
138,78,15,Memory,1,,,,,,,01003960627fb.jpg,Face,,,,1.641,1.0,Nov_Un,,,,,,1554128754.7380118,1554128756.849373,,Place
139,79,15,Memory,1,,,,,,,sunahedfrhtcwpneund.jpg,Place,,,,1.273,1.0,Nov_Cued,,,,,,1554128758.171192,1554128760.1363301,,Place
140,80,15,Memory,1,,,,,,,00784941205fb.jpg,Face,,,,1.2409999999999999,1.0,Nov_Un,,,,,,1554128761.423197,1554128763.4067302,,Place
141,81,15,Memory,1,,,,,,,00958960627fa.jpg,Face,,,,1.35,1.0,Nov_Un,,,,,,1554128764.6915631,1554128766.752951,,Place
142,82,15,Memory,1,,,,,,,sunavxokzybtomhbmvm.jpg,Place,,,,1.202,2.0,Nov_Cued,,,,,,1554128768.074744,1554128770.1081269,,Place
143,83,15,Memory,1,,,,,,,00647941031fa.jpg,Face,,,,1.702,2.0,Face,,,,,,1554128771.40907,1554128773.5581038,,Place
144,84,15,Memory,1,,,,,,,00719941201fa.jpg,Face,,,,1.5830000000000002,3.0,Face,,,,,,1554128774.8391821,1554128776.8241198,,Place
145,85,15,Memory,1,,,,,,,00092931230fa.jpg,Face,,,,0.0,,Place,,,,,,1554128778.128446,1554128780.148269,,Place
146,86,15,Memory,1,,,,,,,00790941205fa.jpg,Face,,,,1.636,3.0,Face,,,,,,1554128781.562659,1554128783.524817,,Place
147,87,15,Memory,1,,,,,,,sunaobtizabegtwfwul.jpg,Place,,,,1.036,1.0,Nov_Cued,,,,,,1554128784.8136652,1554128786.782203,,Place
148,88,15,Memory,1,,,,,,,sunadflbrkckmepztql.jpg,Place,,,,0.966,2.0,Face,,,,,,1554128788.147887,1554128790.144044,,Place
149,89,15,Memory,1,,,,,,,00787941205fa.jpg,Face,,,,1.089,2.0,Face,,,,,,1554128791.477463,1554128793.451488,,Place
150,90,15,Memory,1,,,,,,,sunaajspcoepticvplv.jpg,Place,,,,0.0,,Place,,,,,,1554128794.717099,1554128796.6967618,,Place
151,91,15,Memory,1,,,,,,,sunarceibpcyacbmfga.jpg,Place,,,,1.1520000000000001,1.0,Nov_Cued,,,,,,1554128798.001195,1554128799.99913,,Place
152,92,15,Memory,1,,,,,,,00804960530fa.jpg,Face,,,,1.1159999999999999,1.0,Face,,,,,,1554128801.319493,1554128803.317585,,Place
153,93,15,Memory,1,,,,,,,sunavspxmxubqaeidjt.jpg,Place,,,,0.9840000000000001,1.0,Nov_Cued,,,,,,1554128804.6032991,1554128806.570169,,Place
154,94,15,Memory,1,,,,,,,sundahdxwmcdluscvot.jpg,Place,,,,1.014,1.0,Nov_Cued,,,,,,1554128807.833386,1554128809.801139,,Place
155,95,15,Memory,1,,,,,,,sunbwdrdvsweerwsdrj.jpg,Place,,,,0.899,2.0,Nov_Cued,,,,,,1554128811.051243,1554128813.023322,,Place
156,96,15,Memory,1,,,,,,,sunaaheqzstzxuadglu.jpg,Place,,,,1.004,2.0,Place,,,,,,1554128814.289297,1554128816.2591698,,Place
157,97,15,Memory,1,,,,,,,00942960627fa.jpg,Face,,,,1.4409999999999998,3.0,Face,,,,,,1554128817.5412,1554128819.552625,,Place
158,98,15,Memory,1,,,,,,,sunagjzcrjvmxzqzljx.jpg,Place,,,,1.069,1.0,Nov_Cued,,,,,,1554128820.941411,1554128823.024246,,Place
159,99,15,Memory,1,,,,,,,01011960627fa.jpg,Face,,,,1.171,1.0,Nov_Un,,,,,,1554128824.3257642,1554128826.290224,,Place
160,160,15,Memory,3,,,,,,,01010960627fa.jpg,Face,,,,0.0,,Face,,,,,,1554129376.456618,1554129378.519477,,Place
161,161,15,Memory,3,,,,,,,00080931230fb.jpg,Face,,,,1.051,1.0,Nov_Un,,,,,,1554129379.790825,1554129381.755721,,Place
162,162,15,Memory,3,,,,,,,sunaemcowdozyphwknd.jpg,Place,,,,1.034,1.0,Face,,,,,,1554129383.008728,1554129384.989283,,Place
163,163,15,Memory,3,,,,,,,sunabqowuarvqqcnipn.jpg,Place,,,,0.69,1.0,Nov_Cued,,,,,,1554129386.238497,1554129388.211939,,Place
164,164,15,Memory,3,,,,,,,sunaahwnmtqsrhocysw.jpg,Place,,,,1.486,3.0,Face,,,,,,1554129389.455437,1554129391.4406269,,Place
165,165,15,Memory,3,,,,,,,sunaygrtwrwfezqjizr.jpg,Place,,,,1.138,2.0,Face,,,,,,1554129392.677465,1554129394.657691,,Place
166,166,15,Memory,3,,,,,,,00086931230fa.jpg,Face,,,,0.8740000000000001,1.0,Nov_Un,,,,,,1554129395.913009,1554129397.9476562,,Place
167,167,15,Memory,3,,,,,,,00133931230fa.jpg,Face,,,,1.0170000000000001,1.0,Place,,,,,,1554129399.212572,1554129401.161269,,Place
168,168,15,Memory,3,,,,,,,sunacvbrcejzwmcgnoq.jpg,Place,,,,1.2209999999999999,2.0,Place,,,,,,1554129402.397595,1554129404.377763,,Place
169,169,15,Memory,3,,,,,,,00073931230fa.jpg,Face,,,,0.601,1.0,Face,,,,,,1554129405.6666028,1554129407.719681,,Place
170,170,15,Memory,3,,,,,,,sunaafbmtoniaasysgu.jpg,Place,,,,1.355,1.0,Face,,,,,,1554129408.983562,1554129410.980149,,Place
171,171,15,Memory,3,,,,,,,00093931230fa.jpg,Face,,,,1.14,2.0,Face,,,,,,1554129412.251583,1554129414.380022,,Place
172,172,15,Memory,3,,,,,,,sunaafjszryxyavjzln.jpg,Place,,,,0.94,1.0,Nov_Cued,,,,,,1554129415.669964,1554129417.74827,,Place
173,173,15,Memory,3,,,,,,,01009960627fa.jpg,Face,,,,0.987,1.0,Place,,,,,,1554129419.002444,1554129420.967091,,Place
174,174,15,Memory,3,,,,,,,sunacacflqoyxhsqzhe.jpg,Place,,,,1.252,2.0,Nov_Cued,,,,,,1554129422.200042,1554129424.251287,,Place
175,175,15,Memory,3,,,,,,,sunacsaovnjezqwbykf.jpg,Place,,,,1.051,1.0,Face,,,,,,1554129425.639574,1554129427.587029,,Place
176,176,15,Memory,3,,,,,,,00564941031fa.jpg,Face,,,,0.8490000000000001,1.0,Face,,,,,,1554129428.8908482,1554129430.860539,,Place
177,177,15,Memory,3,,,,,,,sunawksfbacycuhbrsc.jpg,Place,,,,1.301,2.0,Nov_Cued,,,,,,1554129432.27484,1554129434.322324,,Place
178,178,15,Memory,3,,,,,,,00741941201fa.jpg,Face,,,,0.758,1.0,Face,,,,,,1554129435.610074,1554129437.640739,,Place
179,179,15,Memory,3,,,,,,,00794960620fa.jpg,Face,,,,0.741,1.0,Nov_Un,,,,,,1554129438.89327,1554129440.897146,,Place
180,180,15,Memory,3,,,,,,,suncnkvbhypnivcohyx.jpg,Place,,,,0.0,,Face,,,,,,1554129442.1567051,1554129444.19752,,Place
181,181,15,Memory,3,,,,,,,00290940422fa.jpg,Face,,,,0.0,,Nov_Un,,,,,,1554129445.624857,1554129447.5770311,,Place
182,182,15,Memory,3,,,,,,,00574940928fa.jpg,Face,,,,0.789,1.0,Place,,,,,,1554129448.829873,1554129450.87694,,Place
183,183,15,Memory,3,,,,,,,00507940519fa.jpg,Face,,,,0.782,1.0,Nov_Un,,,,,,1554129452.131168,1554129454.10982,,Place
184,184,15,Memory,3,,,,,,,00559940519fa.jpg,Face,,,,1.188,2.0,Nov_Un,,,,,,1554129455.365937,1554129457.365798,,Place
185,185,15,Memory,3,,,,,,,00782941205fa.jpg,Face,,,,0.8320000000000001,1.0,Nov_Un,,,,,,1554129458.615916,1554129460.582717,,Place
186,186,15,Memory,3,,,,,,,00098931230fa.jpg,Face,,,,1.5319999999999998,1.0,Nov_Un,,,,,,1554129461.850647,1554129463.831399,,Place
187,187,15,Memory,3,,,,,,,00966960627fa.jpg,Face,,,,0.8490000000000001,1.0,Face,,,,,,1554129465.247428,1554129467.2324278,,Place
188,188,15,Memory,3,,,,,,,sunacjkmnpawfzbyvae.jpg,Place,,,,1.121,1.0,Nov_Cued,,,,,,1554129468.5868618,1554129470.568687,,Place
189,189,15,Memory,3,,,,,,,sunaajpqmulidejvjsr.jpg,Place,,,,1.475,2.0,Nov_Cued,,,,,,1554129471.871317,1554129473.933413,,Place
190,190,15,Memory,3,,,,,,,sunbxzweleltykebgan.jpg,Place,,,,1.591,1.0,Place,,,,,,1554129475.289438,1554129477.3598962,,Place
191,191,15,Memory,3,,,,,,,sunaanlwnpqndclffxt.jpg,Place,,,,1.686,3.0,Place,,,,,,1554129478.723351,1554129480.7365491,,Place
192,192,15,Memory,3,,,,,,,sunagtqhhwxjeuxdebe.jpg,Place,,,,0.892,1.0,Nov_Cued,,,,,,1554129482.008635,1554129484.057828,,Place
193,193,15,Memory,3,,,,,,,00960960627fa.jpg,Face,,,,1.015,2.0,Nov_Un,,,,,,1554129485.342025,1554129487.377868,,Place
194,194,15,Memory,3,,,,,,,sunagdzlvkqtpnfxfcg.jpg,Place,,,,1.185,2.0,Nov_Cued,,,,,,1554129488.643211,1554129490.6559598,,Place
195,195,15,Memory,3,,,,,,,00142931230fb.jpg,Face,,,,0.9329999999999999,1.0,Place,,,,,,1554129492.078223,1554129494.060278,,Place
196,196,15,Memory,3,,,,,,,00779941205fa.jpg,Face,,,,0.6559999999999999,1.0,Nov_Un,,,,,,1554129495.37833,1554129497.328664,,Place
197,197,15,Memory,3,,,,,,,sunaafynehyrzpsoaml.jpg,Place,,,,1.4340000000000002,1.0,Nov_Cued,,,,,,1554129498.5913599,1554129500.5835788,,Place
198,198,15,Memory,3,,,,,,,sunaapxkpvrhpjplsok.jpg,Place,,,,1.123,1.0,Place,,,,,,1554129501.847709,1554129503.815667,,Place
199,199,15,Memory,3,,,,,,,sunagfvluwixdsozaql.jpg,Place,,,,0.866,1.0,Nov_Cued,,,,,,1554129505.0820339,1554129507.027502,,Place
200,110,15,Memory,2,,,,,,,sunabbafjowbzcvbucc.jpg,Place,,,,0.0,,Place,,,,,,1554129059.31917,1554129061.949728,,Place
201,111,15,Memory,2,,,,,,,00950960627fa.jpg,Face,,,,0.9420000000000001,2.0,Face,,,,,,1554129063.3037698,1554129065.372015,,Place
202,112,15,Memory,2,,,,,,,00805941205fa.jpg,Face,,,,0.0,,Place,,,,,,1554129066.688587,1554129068.822221,,Place
203,113,15,Memory,2,,,,,,,sunatstrpjxhvtbaczf.jpg,Place,,,,2.542,1.0,Face,,,,,,1554129070.123665,1554129072.657779,,Place
204,114,15,Memory,2,,,,,,,sunaapfaivxqoynnwwp.jpg,Place,,,,1.6880000000000002,2.0,Place,,,,,,1554129073.9409971,1554129076.16062,,Place
205,115,15,Memory,2,,,,,,,sunagwzdbtlixdhgolm.jpg,Place,,,,1.37,3.0,Place,,,,,,1554129077.4250062,1554129079.759279,,Place
206,116,15,Memory,2,,,,,,,00870940307fa.jpg,Face,,,,1.604,2.0,Nov_Un,,,,,,1554129081.060305,1554129083.255841,,Place
207,117,15,Memory,2,,,,,,,00953960627fa.jpg,Face,,,,1.57,1.0,Face,,,,,,1554129084.527226,1554129086.840796,,Place
208,118,15,Memory,2,,,,,,,sunasrjlmglmjzbmqxb.jpg,Place,,,,1.2,1.0,Face,,,,,,1554129088.22954,1554129090.3629081,,Place
209,119,15,Memory,2,,,,,,,00938960627fa.jpg,Face,,,,1.358,1.0,Place,,,,,,1554129091.6628392,1554129093.7106302,,Place
210,120,15,Memory,2,,,,,,,00108960530fa.jpg,Face,,,,0.0,,Nov_Un,,,,,,1554129094.999085,1554129097.501459,,Place
211,121,15,Memory,2,,,,,,,00947960627fa.jpg,Face,,,,0.986,1.0,Nov_Un,,,,,,1554129098.799094,1554129100.9303901,,Place
212,122,15,Memory,2,,,,,,,sunabckqabszusgcykj.jpg,Place,,,,1.3259999999999998,2.0,Nov_Cued,,,,,,1554129102.216505,1554129104.383322,,Place
213,123,15,Memory,2,,,,,,,00081941031fa.jpg,Face,,,,1.158,3.0,Face,,,,,,1554129105.6520278,1554129108.053659,,Place
214,124,15,Memory,2,,,,,,,00978960627fa.jpg,Face,,,,1.776,1.0,Face,,,,,,1554129109.319043,1554129111.517791,,Place
215,125,15,Memory,2,,,,,,,sunajrgtewnualfcerj.jpg,Place,,,,0.9329999999999999,1.0,Nov_Cued,,,,,,1554129112.88674,1554129114.887757,,Place
216,126,15,Memory,2,,,,,,,sunaqyylsngywqzwfmx.jpg,Place,,,,0.96,1.0,Place,,,,,,1554129116.138368,1554129118.500774,,Place
217,127,15,Memory,2,,,,,,,00214940128fa.jpg,Face,,,,0.8079999999999999,1.0,Place,,,,,,1554129119.807321,1554129122.051846,,Place
218,128,15,Memory,2,,,,,,,00554940519fa.jpg,Face,,,,1.7919999999999998,1.0,Nov_Un,,,,,,1554129123.34048,1554129125.6373198,,Place
219,129,15,Memory,2,,,,,,,00976960627fa.jpg,Face,,,,0.892,2.0,Nov_Un,,,,,,1554129126.908006,1554129129.03777,,Place
220,130,15,Memory,2,,,,,,,sunasmmcxdddtmtazwx.jpg,Place,,,,0.792,1.0,Nov_Cued,,,,,,1554129130.343029,1554129132.6551769,,Place
221,131,15,Memory,2,,,,,,,sunabbwggenhfbftyvi.jpg,Place,,,,1.0859999999999999,1.0,Nov_Cued,,,,,,1554129134.010259,1554129136.1951551,,Place
222,132,15,Memory,2,,,,,,,sunbbhqyyzmsxhsbjmp.jpg,Place,,,,0.0,,Nov_Cued,,,,,,1554129137.478502,1554129139.7943392,,Place
223,133,15,Memory,2,,,,,,,00193940928fa.jpg,Face,,,,1.422,1.0,Nov_Un,,,,,,1554129141.079616,1554129143.21007,,Place
