,Subject,Trial Type,Run,Cued Composite,Uncued Composite,Cued Face,Cued Place,Uncued Face,Uncued Place,Memory Image,Category,Cued Side,Cued Category,Attention Response Time (s),Familiarity Reaction Time (s),Familiarity Rating,Attention Level,Cue Validity,Post Invalid Cue,Pre Invalid Cue,Attention Button,Rating History,Stimulus Onset,Stimulus End,Attention Probe
0,40,Presentation,0,00126931230fb_sunaamdjwemxpmmtypi.jpg,00149931230fa_sunaauglwmctnkxyird.jpg,00126931230fb.jpg,sunaamdjwemxpmmtypi.jpg,00149931230fa.jpg,sunaauglwmctnkxyird.jpg,,,<,Face,,,,,1,,,,,,,o
1,40,Presentation,0,00822940307fa_sunahqrxievfeusiqlt.jpg,00973960627fa_sunbbgtoeuzierkkajt.jpg,00822940307fa.jpg,sunahqrxievfeusiqlt.jpg,00973960627fa.jpg,sunbbgtoeuzierkkajt.jpg,,,<,Face,,,,,1,,,,,,,x
2,40,Presentation,0,00214940128fa_sunabbafjowbzcvbucc.jpg,00983960627fa_sunbfyvfqiimvdaxlqn.jpg,00214940128fa.jpg,sunabbafjowbzcvbucc.jpg,00983960627fa.jpg,sunbfyvfqiimvdaxlqn.jpg,,,<,Face,,,,,1,,,,,,,o
3,40,Presentation,0,00902960530fa_sunanaacmmosxrfwmvl.jpg,00308940422fb_sunabwfvcqqidycwypa.jpg,00902960530fa.jpg,sunanaacmmosxrfwmvl.jpg,00308940422fb.jpg,sunabwfvcqqidycwypa.jpg,,,<,Face,,,,,1,,,,,,,o
4,40,Presentation,0,00908960530fa_sunanwjjyqqwzqrqagd.jpg,00901960530fa_sunammbnoambmhdxdwd.jpg,00908960530fa.jpg,sunanwjjyqqwzqrqagd.jpg,00901960530fa.jpg,sunammbnoambmhdxdwd.jpg,,,<,Face,,,,,1,,,,,,,x
5,40,Presentation,0,00895960530fa_sunamczizlzavhzhpay.jpg,00073931230fa_sunaafbmtoniaasysgu.jpg,00895960530fa.jpg,sunamczizlzavhzhpay.jpg,00073931230fa.jpg,sunaafbmtoniaasysgu.jpg,,,<,Face,,,,,1,,,,,,,x
6,40,Presentation,0,00851940307fa_sunaivflshbyfrfzhqb.jpg,00789960620fa_sunagpancjmxqfazssf.jpg,00851940307fa.jpg,sunaivflshbyfrfzhqb.jpg,00789960620fa.jpg,sunagpancjmxqfazssf.jpg,,,<,Face,,,,,1,,,,,,,o
7,40,Presentation,0,00081941031fa_sunaaftlyfudyzuhqzf.jpg,00136931230fb_sunaanptmsknhirrzed.jpg,00081941031fa.jpg,sunaaftlyfudyzuhqzf.jpg,00136931230fb.jpg,sunaanptmsknhirrzed.jpg,,,<,Face,,,,,1,,,,,,,o
8,40,Presentation,0,00784941205fb_sunagjzcrjvmxzqzljx.jpg,00854940307fa_sunaiwduelojtwaqeyh.jpg,00784941205fb.jpg,sunagjzcrjvmxzqzljx.jpg,00854940307fa.jpg,sunaiwduelojtwaqeyh.jpg,,,<,Face,,,,,1,,,,,,,x
9,40,Presentation,0,00131931230fb_sunaangbuylfvckqqoo.jpg,00761960627fa_sunafgdqbclkwfocdhg.jpg,00131931230fb.jpg,sunaangbuylfvckqqoo.jpg,00761960627fa.jpg,sunafgdqbclkwfocdhg.jpg,,,<,Face,,,,,1,,,,,,,x
10,40,Memory,0,,,,,,,00124931230fa.jpg,,,,,,,,,,,,,,,
11,40,Memory,0,,,,,,,sunaetydippjxikifsb.jpg,,,,,,,,,,,,,,,
12,40,Memory,0,,,,,,,sunammbnoambmhdxdwd.jpg,,,,,,,,,,,,,,,
13,40,Memory,0,,,,,,,sunaiozxhxgtfrmoagh.jpg,,,,,,,,,,,,,,,
14,40,Memory,0,,,,,,,00081941031fa.jpg,,,,,,,,,,,,,,,
15,40,Memory,0,,,,,,,sunaaftlyfudyzuhqzf.jpg,,,,,,,,,,,,,,,
16,40,Memory,0,,,,,,,00838940307fa.jpg,,,,,,,,,,,,,,,
17,40,Memory,0,,,,,,,sunaayehfdqcyxggsej.jpg,,,,,,,,,,,,,,,
18,40,Memory,0,,,,,,,sunagjzcrjvmxzqzljx.jpg,,,,,,,,,,,,,,,
19,40,Memory,0,,,,,,,00507940519fa.jpg,,,,,,,,,,,,,,,
20,40,Memory,0,,,,,,,sunagvprlbprarvgdvj.jpg,,,,,,,,,,,,,,,
21,40,Memory,0,,,,,,,00851940307fa.jpg,,,,,,,,,,,,,,,
22,40,Memory,0,,,,,,,sunaalhlvzmjmitybdn.jpg,,,,,,,,,,,,,,,
23,40,Memory,0,,,,,,,sunabppokiyglaxpcha.jpg,,,,,,,,,,,,,,,
24,40,Memory,0,,,,,,,sunadrmfzmstgdjdcod.jpg,,,,,,,,,,,,,,,
25,40,Memory,0,,,,,,,sunaauglwmctnkxyird.jpg,,,,,,,,,,,,,,,
26,40,Memory,0,,,,,,,00288940422fa.jpg,,,,,,,,,,,,,,,
27,40,Memory,0,,,,,,,sunantryfbloeaomfta.jpg,,,,,,,,,,,,,,,
28,40,Memory,0,,,,,,,sunanwjjyqqwzqrqagd.jpg,,,,,,,,,,,,,,,
29,40,Memory,0,,,,,,,00902960530fa.jpg,,,,,,,,,,,,,,,
30,40,Memory,0,,,,,,,00073931230fa.jpg,,,,,,,,,,,,,,,
31,40,Memory,0,,,,,,,sunbfyvfqiimvdaxlqn.jpg,,,,,,,,,,,,,,,
32,40,Memory,0,,,,,,,sunaafbmtoniaasysgu.jpg,,,,,,,,,,,,,,,
33,40,Memory,0,,,,,,,sunabwfvcqqidycwypa.jpg,,,,,,,,,,,,,,,
34,40,Memory,0,,,,,,,00149931230fa.jpg,,,,,,,,,,,,,,,
35,40,Memory,0,,,,,,,00901960530fa.jpg,,,,,,,,,,,,,,,
36,40,Memory,0,,,,,,,00308940422fb.jpg,,,,,,,,,,,,,,,
37,40,Memory,0,,,,,,,00983960627fa.jpg,,,,,,,,,,,,,,,
38,40,Memory,0,,,,,,,00906960530fa.jpg,,,,,,,,,,,,,,,
39,40,Memory,0,,,,,,,sunaivflshbyfrfzhqb.jpg,,,,,,,,,,,,,,,
40,40,Memory,0,,,,,,,00746941201fa.jpg,,,,,,,,,,,,,,,
41,40,Memory,0,,,,,,,sunacacflqoyxhsqzhe.jpg,,,,,,,,,,,,,,,
42,40,Memory,0,,,,,,,00694941121fa.jpg,,,,,,,,,,,,,,,
43,40,Memory,0,,,,,,,00784941205fb.jpg,,,,,,,,,,,,,,,
44,40,Memory,0,,,,,,,sunanaacmmosxrfwmvl.jpg,,,,,,,,,,,,,,,
45,40,Memory,0,,,,,,,00908960530fa.jpg,,,,,,,,,,,,,,,
46,40,Memory,0,,,,,,,sunaddtdkycxbqlpfqa.jpg,,,,,,,,,,,,,,,
47,40,Memory,0,,,,,,,00636941031fa.jpg,,,,,,,,,,,,,,,
48,40,Memory,0,,,,,,,00194940128fb.jpg,,,,,,,,,,,,,,,
49,40,Memory,0,,,,,,,00801941205fa.jpg,,,,,,,,,,,,,,,
50,40,Presentation,1,00859940307fa_sunaiycurtqsfkvcaso.jpg,00060931230fa_sunaaehaikpckyjsety.jpg,00859940307fa.jpg,sunaiycurtqsfkvcaso.jpg,00060931230fa.jpg,sunaaehaikpckyjsety.jpg,,,>,Place,,,,,1,,,,,,,x
51,40,Presentation,1,00130931230fa_sunaamvxnvouicstkjb.jpg,00631940928fa_sunadbdqzigzwipuipr.jpg,00130931230fa.jpg,sunaamvxnvouicstkjb.jpg,00631940928fa.jpg,sunadbdqzigzwipuipr.jpg,,,>,Place,,,,,1,,,,,,,o
52,40,Presentation,1,00647941031fa_sunadflbrkckmepztql.jpg,00705960530fa_sunaduslxfzlbxlllnz.jpg,00647941031fa.jpg,sunadflbrkckmepztql.jpg,00705960530fa.jpg,sunaduslxfzlbxlllnz.jpg,,,>,Place,,,,,1,,,,,,,x
53,40,Presentation,1,00227940128fa_sunabckqabszusgcykj.jpg,00776941205fa_sunafxokyavhgptyfye.jpg,00227940128fa.jpg,sunabckqabszusgcykj.jpg,00776941205fa.jpg,sunafxokyavhgptyfye.jpg,,,>,Place,,,,,1,,,,,,,x
54,40,Presentation,1,00772941201fa_sunafpfpiiujzoesnqg.jpg,00911960530fa_sunaooaqzputrowwbsw.jpg,00772941201fa.jpg,sunafpfpiiujzoesnqg.jpg,00911960530fa.jpg,sunaooaqzputrowwbsw.jpg,,,>,Place,,,,,1,,,,,,,o
55,40,Presentation,1,00961960627fa_sunawotxrevnqvamsfp.jpg,00670941121fa_sunadochqcucscehsgk.jpg,00961960627fa.jpg,sunawotxrevnqvamsfp.jpg,00670941121fa.jpg,sunadochqcucscehsgk.jpg,,,>,Place,,,,,1,,,,,,,x
56,40,Presentation,1,00146960620fb_sunaatpeezlljqaxlhj.jpg,00799941205fa_sunagutjvdvnhxejerz.jpg,00146960620fb.jpg,sunaatpeezlljqaxlhj.jpg,00799941205fa.jpg,sunagutjvdvnhxejerz.jpg,,,>,Place,,,,,1,,,,,,,o
57,40,Presentation,1,00987960627fa_sunbloeoiozwjjsiamp.jpg,00770941201fa_sunaflojskatpeqyzqp.jpg,00987960627fa.jpg,sunbloeoiozwjjsiamp.jpg,00770941201fa.jpg,sunaflojskatpeqyzqp.jpg,,,>,Place,,,,,1,,,,,,,o
58,40,Presentation,1,00142931230fb_sunaapxkpvrhpjplsok.jpg,00218940128fa_sunabbwggenhfbftyvi.jpg,00142931230fb.jpg,sunaapxkpvrhpjplsok.jpg,00218940128fa.jpg,sunabbwggenhfbftyvi.jpg,,,>,Place,,,,,1,,,,,,,o
59,40,Presentation,1,00752960620fa_sunafbwnojpqeyzssoe.jpg,00263940128fb_sunabjuovqvyfuzvqwt.jpg,00752960620fa.jpg,sunafbwnojpqeyzssoe.jpg,00263940128fb.jpg,sunabjuovqvyfuzvqwt.jpg,,,>,Place,,,,,1,,,,,,,o
60,40,Memory,1,,,,,,,sunabohxbskznglnrhv.jpg,,,,,,,,,,,,,,,
61,40,Memory,1,,,,,,,00742941201fa.jpg,,,,,,,,,,,,,,,
62,40,Memory,1,,,,,,,sunagtumacdlmciqamz.jpg,,,,,,,,,,,,,,,
63,40,Memory,1,,,,,,,sunadpnqovzckyikrjo.jpg,,,,,,,,,,,,,,,
64,40,Memory,1,,,,,,,00874940307fa.jpg,,,,,,,,,,,,,,,
65,40,Memory,1,,,,,,,00772941201fa.jpg,,,,,,,,,,,,,,,
66,40,Memory,1,,,,,,,sunaaehaikpckyjsety.jpg,,,,,,,,,,,,,,,
67,40,Memory,1,,,,,,,00060931230fa.jpg,,,,,,,,,,,,,,,
68,40,Memory,1,,,,,,,00630941031fa.jpg,,,,,,,,,,,,,,,
69,40,Memory,1,,,,,,,00142931230fb.jpg,,,,,,,,,,,,,,,
70,40,Memory,1,,,,,,,sunarfdklgdnjgeqfjg.jpg,,,,,,,,,,,,,,,
71,40,Memory,1,,,,,,,00942960627fa.jpg,,,,,,,,,,,,,,,
72,40,Memory,1,,,,,,,00752960620fa.jpg,,,,,,,,,,,,,,,
73,40,Memory,1,,,,,,,00218940128fa.jpg,,,,,,,,,,,,,,,
74,40,Memory,1,,,,,,,sunabckqabszusgcykj.jpg,,,,,,,,,,,,,,,
75,40,Memory,1,,,,,,,00063931230fa.jpg,,,,,,,,,,,,,,,
76,40,Memory,1,,,,,,,00705960530fa.jpg,,,,,,,,,,,,,,,
77,40,Memory,1,,,,,,,00799941205fa.jpg,,,,,,,,,,,,,,,
78,40,Memory,1,,,,,,,sunadochqcucscehsgk.jpg,,,,,,,,,,,,,,,
79,40,Memory,1,,,,,,,sunaavchcbptaerhcfy.jpg,,,,,,,,,,,,,,,
80,40,Memory,1,,,,,,,00819940307fa.jpg,,,,,,,,,,,,,,,
81,40,Memory,1,,,,,,,sunawotxrevnqvamsfp.jpg,,,,,,,,,,,,,,,
82,40,Memory,1,,,,,,,00158931230fb.jpg,,,,,,,,,,,,,,,
83,40,Memory,1,,,,,,,sunaaelyvurpntclgau.jpg,,,,,,,,,,,,,,,
84,40,Memory,1,,,,,,,sunafbwnojpqeyzssoe.jpg,,,,,,,,,,,,,,,
85,40,Memory,1,,,,,,,sunagutjvdvnhxejerz.jpg,,,,,,,,,,,,,,,
86,40,Memory,1,,,,,,,sunabbwggenhfbftyvi.jpg,,,,,,,,,,,,,,,
87,40,Memory,1,,,,,,,sunaduslxfzlbxlllnz.jpg,,,,,,,,,,,,,,,
88,40,Memory,1,,,,,,,sunafpfpiiujzoesnqg.jpg,,,,,,,,,,,,,,,
89,40,Memory,1,,,,,,,sunaapxkpvrhpjplsok.jpg,,,,,,,,,,,,,,,
90,40,Memory,1,,,,,,,00961960627fa.jpg,,,,,,,,,,,,,,,
91,40,Memory,1,,,,,,,sunahqldjibofgsfdgb.jpg,,,,,,,,,,,,,,,
92,40,Memory,1,,,,,,,sunaenwuebvlpdmntju.jpg,,,,,,,,,,,,,,,
93,40,Memory,1,,,,,,,sunajtrfunvzdfticna.jpg,,,,,,,,,,,,,,,
94,40,Memory,1,,,,,,,sunadakkdovnuzlycvp.jpg,,,,,,,,,,,,,,,
95,40,Memory,1,,,,,,,00795941205fa.jpg,,,,,,,,,,,,,,,
96,40,Memory,1,,,,,,,00670941121fa.jpg,,,,,,,,,,,,,,,
97,40,Memory,1,,,,,,,00227940128fa.jpg,,,,,,,,,,,,,,,
98,40,Memory,1,,,,,,,00280940422fb.jpg,,,,,,,,,,,,,,,
99,40,Memory,1,,,,,,,00676941121fa.jpg,,,,,,,,,,,,,,,
100,40,Presentation,2,00864940307fa_sunajawzbrlrwafowen.jpg,00997960627fa_sunbtpilbhhbmhmeuzq.jpg,00864940307fa.jpg,sunajawzbrlrwafowen.jpg,00997960627fa.jpg,sunbtpilbhhbmhmeuzq.jpg,,,<,Place,,,,,0,,,,,,,x
101,40,Presentation,2,00903960620fa_sunanainkqdvktzoxyl.jpg,01009960627fa_sunbxzweleltykebgan.jpg,00903960620fa.jpg,sunanainkqdvktzoxyl.jpg,01009960627fa.jpg,sunbxzweleltykebgan.jpg,,,<,Place,,,,,1,,,,,,,o
102,40,Presentation,2,00804960530fa_sunagwswhkvnsmuszlz.jpg,00633940928fa_sunadbhmrgrrpyzglxs.jpg,00804960530fa.jpg,sunagwswhkvnsmuszlz.jpg,00633940928fa.jpg,sunadbhmrgrrpyzglxs.jpg,,,<,Place,,,,,1,,,,,,,x
103,40,Presentation,2,00857940307fa_sunaiwfobocrruqznsv.jpg,00630940928fa_sunaczwgyukesaajxnx.jpg,00857940307fa.jpg,sunaiwfobocrruqznsv.jpg,00630940928fa.jpg,sunaczwgyukesaajxnx.jpg,,,<,Place,,,,,1,,,,,,,o
104,40,Presentation,2,00965960627fa_sunaydywdmvlfddbxbk.jpg,00747941201fa_sunaeutbrtswvsozxyk.jpg,00965960627fa.jpg,sunaydywdmvlfddbxbk.jpg,00747941201fa.jpg,sunaeutbrtswvsozxyk.jpg,,,<,Place,,,,,1,,,,,,,x
105,40,Presentation,2,00786941205fa_sunagmhildamktmqjss.jpg,00540940519fa_sunacdnquypmsshhsbk.jpg,00786941205fa.jpg,sunagmhildamktmqjss.jpg,00540940519fa.jpg,sunacdnquypmsshhsbk.jpg,,,<,Place,,,,,0,,,,,,,o
106,40,Presentation,2,00262940128fa_sunabizydfotqddlnjp.jpg,00101931230fb_sunaajqmsaavkmgbsth.jpg,00262940128fa.jpg,sunabizydfotqddlnjp.jpg,00101931230fb.jpg,sunaajqmsaavkmgbsth.jpg,,,<,Place,,,,,1,,,,,,,o
107,40,Presentation,2,00314940422fa_sunabwmcbaxwioksdgw.jpg,00836940307fa_sunainqelldeebvxtcz.jpg,00314940422fa.jpg,sunabwmcbaxwioksdgw.jpg,00836940307fa.jpg,sunainqelldeebvxtcz.jpg,,,<,Place,,,,,1,,,,,,,o
108,40,Presentation,2,00568940928fa_sunacsdhbbsybcyxnel.jpg,00972960627fa_sunbbfqwjpdxniyhies.jpg,00568940928fa.jpg,sunacsdhbbsybcyxnel.jpg,00972960627fa.jpg,sunbbfqwjpdxniyhies.jpg,,,<,Place,,,,,1,,,,,,,o
109,40,Presentation,2,00810941205fa_sunahctntqrunhdxhtb.jpg,00871940307_sunajrujcsdxmfbssmc.jpg,00810941205fa.jpg,sunahctntqrunhdxhtb.jpg,00871940307.jpg,sunajrujcsdxmfbssmc.jpg,,,<,Place,,,,,1,,,,,,,o
110,40,Memory,2,,,,,,,sunajrujcsdxmfbssmc.jpg,,,,,,,,,,,,,,,
111,40,Memory,2,,,,,,,00633940928fa.jpg,,,,,,,,,,,,,,,
112,40,Memory,2,,,,,,,sunadbhmrgrrpyzglxs.jpg,,,,,,,,,,,,,,,
113,40,Memory,2,,,,,,,00568940928fa.jpg,,,,,,,,,,,,,,,
114,40,Memory,2,,,,,,,00581940928fa.jpg,,,,,,,,,,,,,,,
115,40,Memory,2,,,,,,,00829940307fa.jpg,,,,,,,,,,,,,,,
116,40,Memory,2,,,,,,,sunaydywdmvlfddbxbk.jpg,,,,,,,,,,,,,,,
117,40,Memory,2,,,,,,,sunakodkcslgqhqlgwl.jpg,,,,,,,,,,,,,,,
118,40,Memory,2,,,,,,,00314940422fa.jpg,,,,,,,,,,,,,,,
119,40,Memory,2,,,,,,,sunaczwgyukesaajxnx.jpg,,,,,,,,,,,,,,,
120,40,Memory,2,,,,,,,00747941201fa.jpg,,,,,,,,,,,,,,,
121,40,Memory,2,,,,,,,00540940519fa.jpg,,,,,,,,,,,,,,,
122,40,Memory,2,,,,,,,00210940128fb.jpg,,,,,,,,,,,,,,,
123,40,Memory,2,,,,,,,sunaecpkgfewqqreqwe.jpg,,,,,,,,,,,,,,,
124,40,Memory,2,,,,,,,sunabanoxjtqxamkucc.jpg,,,,,,,,,,,,,,,
125,40,Memory,2,,,,,,,00745941205fa.jpg,,,,,,,,,,,,,,,
126,40,Memory,2,,,,,,,sunacsdhbbsybcyxnel.jpg,,,,,,,,,,,,,,,
127,40,Memory,2,,,,,,,sunacdnquypmsshhsbk.jpg,,,,,,,,,,,,,,,
128,40,Memory,2,,,,,,,00705941205fa.jpg,,,,,,,,,,,,,,,
129,40,Memory,2,,,,,,,sunagmhildamktmqjss.jpg,,,,,,,,,,,,,,,
130,40,Memory,2,,,,,,,00884960530fa.jpg,,,,,,,,,,,,,,,
131,40,Memory,2,,,,,,,00871940307.jpg,,,,,,,,,,,,,,,
132,40,Memory,2,,,,,,,sunahwgbqkqcrwprgvh.jpg,,,,,,,,,,,,,,,
133,40,Memory,2,,,,,,,00630940928fa.jpg,,,,,,,,,,,,,,,
134,40,Memory,2,,,,,,,sunaaelotvjgibjtjhs.jpg,,,,,,,,,,,,,,,
135,40,Memory,2,,,,,,,00062931230fb.jpg,,,,,,,,,,,,,,,
136,40,Memory,2,,,,,,,sunabwmcbaxwioksdgw.jpg,,,,,,,,,,,,,,,
137,40,Memory,2,,,,,,,sunbbhqyyzmsxhsbjmp.jpg,,,,,,,,,,,,,,,
138,40,Memory,2,,,,,,,sunaaemixhfquhnxxlm.jpg,,,,,,,,,,,,,,,
139,40,Memory,2,,,,,,,00786941205fa.jpg,,,,,,,,,,,,,,,
140,40,Memory,2,,,,,,,sunaeouogqolxvggaoq.jpg,,,,,,,,,,,,,,,
141,40,Memory,2,,,,,,,00976960627fa.jpg,,,,,,,,,,,,,,,
142,40,Memory,2,,,,,,,00720960620fa.jpg,,,,,,,,,,,,,,,
143,40,Memory,2,,,,,,,sunajawzbrlrwafowen.jpg,,,,,,,,,,,,,,,
144,40,Memory,2,,,,,,,sunaeutbrtswvsozxyk.jpg,,,,,,,,,,,,,,,
145,40,Memory,2,,,,,,,00864940307fa.jpg,,,,,,,,,,,,,,,
146,40,Memory,2,,,,,,,00065931230fb.jpg,,,,,,,,,,,,,,,
147,40,Memory,2,,,,,,,00965960627fa.jpg,,,,,,,,,,,,,,,
148,40,Memory,2,,,,,,,sunacvzhvcksnwqcqbw.jpg,,,,,,,,,,,,,,,
149,40,Memory,2,,,,,,,sunadtlxenqqxsyjvix.jpg,,,,,,,,,,,,,,,
150,40,Presentation,3,00794960620fa_sunagtqhhwxjeuxdebe.jpg,00102931230fa_sunaajspcoepticvplv.jpg,00794960620fa.jpg,sunagtqhhwxjeuxdebe.jpg,00102931230fa.jpg,sunaajspcoepticvplv.jpg,,,>,Face,,,,,0,,,,,,,o
151,40,Presentation,3,00163931230fb_sunaavodbcpygkggnfp.jpg,00977960627fa_sunbbxkanhzjgbwyxqs.jpg,00163931230fb.jpg,sunaavodbcpygkggnfp.jpg,00977960627fa.jpg,sunbbxkanhzjgbwyxqs.jpg,,,>,Face,,,,,1,,,,,,,x
152,40,Presentation,3,00963960627fa_sunayaepykrqvenaqqy.jpg,00862940307fa_sunaizgnnplsvajzhkc.jpg,00963960627fa.jpg,sunayaepykrqvenaqqy.jpg,00862940307fa.jpg,sunaizgnnplsvajzhkc.jpg,,,>,Face,,,,,1,,,,,,,x
153,40,Presentation,3,00598940928fa_sunacxeheuiigkcgquf.jpg,00147931230fb_sunaatpkocdkocwxpkb.jpg,00598940928fa.jpg,sunacxeheuiigkcgquf.jpg,00147931230fb.jpg,sunaatpkocdkocwxpkb.jpg,,,>,Face,,,,,1,,,,,,,x
154,40,Presentation,3,00773960620fa_sunafvsxtzaizojicxx.jpg,00966960627fa_sunaygrtwrwfezqjizr.jpg,00773960620fa.jpg,sunafvsxtzaizojicxx.jpg,00966960627fa.jpg,sunaygrtwrwfezqjizr.jpg,,,>,Face,,,,,1,,,,,,,x
155,40,Presentation,3,00122931230fa_sunaakxjfbrrequcjmx.jpg,00313940422fa_sunabwjvmoaddlyxfjr.jpg,00122931230fa.jpg,sunaakxjfbrrequcjmx.jpg,00313940422fa.jpg,sunabwjvmoaddlyxfjr.jpg,,,>,Face,,,,,0,,,,,,,o
156,40,Presentation,3,00245940128fa_sunabeyhmxodahoieyk.jpg,00800941205fb_sunagvjurcwdbixvnyi.jpg,00245940128fa.jpg,sunabeyhmxodahoieyk.jpg,00800941205fb.jpg,sunagvjurcwdbixvnyi.jpg,,,>,Face,,,,,1,,,,,,,o
157,40,Presentation,3,00805941205fa_sunagwzdbtlixdhgolm.jpg,00725941201fa_sunaefgzwiramypjvtd.jpg,00805941205fa.jpg,sunagwzdbtlixdhgolm.jpg,00725941201fa.jpg,sunaefgzwiramypjvtd.jpg,,,>,Face,,,,,1,,,,,,,o
158,40,Presentation,3,00071941031fa_sunaaexqbtdswxrqjvz.jpg,01010960627fa_suncnkvbhypnivcohyx.jpg,00071941031fa.jpg,sunaaexqbtdswxrqjvz.jpg,01010960627fa.jpg,suncnkvbhypnivcohyx.jpg,,,>,Face,,,,,0,,,,,,,x
159,40,Presentation,3,00089931230fa_sunaagcpoejbuzyvddd.jpg,00943960627fa_sunarpsxqkduedrrzyi.jpg,00089931230fa.jpg,sunaagcpoejbuzyvddd.jpg,00943960627fa.jpg,sunarpsxqkduedrrzyi.jpg,,,>,Face,,,,,1,,,,,,,o
160,40,Memory,3,,,,,,,sunaqbmgkgqucajzrkp.jpg,,,,,,,,,,,,,,,
161,40,Memory,3,,,,,,,00935960627fa.jpg,,,,,,,,,,,,,,,
162,40,Memory,3,,,,,,,00598940928fa.jpg,,,,,,,,,,,,,,,
163,40,Memory,3,,,,,,,00122931230fa.jpg,,,,,,,,,,,,,,,
164,40,Memory,3,,,,,,,00071941031fa.jpg,,,,,,,,,,,,,,,
165,40,Memory,3,,,,,,,00950960627fa.jpg,,,,,,,,,,,,,,,
166,40,Memory,3,,,,,,,sunaefgzwiramypjvtd.jpg,,,,,,,,,,,,,,,
167,40,Memory,3,,,,,,,00966960627fa.jpg,,,,,,,,,,,,,,,
168,40,Memory,3,,,,,,,sunaaexpnawiehinlpy.jpg,,,,,,,,,,,,,,,
169,40,Memory,3,,,,,,,sunaakxjfbrrequcjmx.jpg,,,,,,,,,,,,,,,
170,40,Memory,3,,,,,,,sunasrjlmglmjzbmqxb.jpg,,,,,,,,,,,,,,,
171,40,Memory,3,,,,,,,00775941205fa.jpg,,,,,,,,,,,,,,,
172,40,Memory,3,,,,,,,00959960627fa.jpg,,,,,,,,,,,,,,,
173,40,Memory,3,,,,,,,00562941031fa.jpg,,,,,,,,,,,,,,,
174,40,Memory,3,,,,,,,00313940422fa.jpg,,,,,,,,,,,,,,,
175,40,Memory,3,,,,,,,00089931230fa.jpg,,,,,,,,,,,,,,,
176,40,Memory,3,,,,,,,00788941205fa.jpg,,,,,,,,,,,,,,,
177,40,Memory,3,,,,,,,sunaygrtwrwfezqjizr.jpg,,,,,,,,,,,,,,,
178,40,Memory,3,,,,,,,sunavxokzybtomhbmvm.jpg,,,,,,,,,,,,,,,
179,40,Memory,3,,,,,,,00805941205fa.jpg,,,,,,,,,,,,,,,
180,40,Memory,3,,,,,,,sunbbxkanhzjgbwyxqs.jpg,,,,,,,,,,,,,,,
181,40,Memory,3,,,,,,,sunacjnahdmqfnjfwqx.jpg,,,,,,,,,,,,,,,
182,40,Memory,3,,,,,,,sunakwlvxjpddialozd.jpg,,,,,,,,,,,,,,,
183,40,Memory,3,,,,,,,sunaaexqbtdswxrqjvz.jpg,,,,,,,,,,,,,,,
184,40,Memory,3,,,,,,,sunafvwfsmqkjrutjta.jpg,,,,,,,,,,,,,,,
185,40,Memory,3,,,,,,,suncnkvbhypnivcohyx.jpg,,,,,,,,,,,,,,,
186,40,Memory,3,,,,,,,00885960530fa.jpg,,,,,,,,,,,,,,,
187,40,Memory,3,,,,,,,sunabwjvmoaddlyxfjr.jpg,,,,,,,,,,,,,,,
188,40,Memory,3,,,,,,,sunbwyuesflwdpqtgoy.jpg,,,,,,,,,,,,,,,
189,40,Memory,3,,,,,,,00977960627fa.jpg,,,,,,,,,,,,,,,
190,40,Memory,3,,,,,,,00725941201fa.jpg,,,,,,,,,,,,,,,
191,40,Memory,3,,,,,,,01010960627fa.jpg,,,,,,,,,,,,,,,
192,40,Memory,3,,,,,,,sunacxeheuiigkcgquf.jpg,,,,,,,,,,,,,,,
193,40,Memory,3,,,,,,,sunapqkyghktgtosuuk.jpg,,,,,,,,,,,,,,,
194,40,Memory,3,,,,,,,sunagountlxpzkytsmp.jpg,,,,,,,,,,,,,,,
195,40,Memory,3,,,,,,,01005960627fa.jpg,,,,,,,,,,,,,,,
196,40,Memory,3,,,,,,,sunaagcpoejbuzyvddd.jpg,,,,,,,,,,,,,,,
197,40,Memory,3,,,,,,,00071940128fa.jpg,,,,,,,,,,,,,,,
198,40,Memory,3,,,,,,,00922960627fa.jpg,,,,,,,,,,,,,,,
199,40,Memory,3,,,,,,,sunagwzdbtlixdhgolm.jpg,,,,,,,,,,,,,,,
200,40,Presentation,4,00803941205fa_sunagvxkjokqimstxpe.jpg,01003960627fb_sunbwdrdvsweerwsdrj.jpg,00803941205fa.jpg,sunagvxkjokqimstxpe.jpg,01003960627fb.jpg,sunbwdrdvsweerwsdrj.jpg,,,<,Place,,,,,1,,,,,,,o
201,40,Presentation,4,00109931230fa_sunaajuzribjrizdshh.jpg,00763941205fa_sunafhmnhsdurlvddpw.jpg,00109931230fa.jpg,sunaajuzribjrizdshh.jpg,00763941205fa.jpg,sunafhmnhsdurlvddpw.jpg,,,<,Place,,,,,1,,,,,,,o
202,40,Presentation,4,00887960530_sunalcrtwiycqobgelp.jpg,00093931230fa_sunaahwnmtqsrhocysw.jpg,00887960530.jpg,sunalcrtwiycqobgelp.jpg,00093931230fa.jpg,sunaahwnmtqsrhocysw.jpg,,,<,Place,,,,,1,,,,,,,x
203,40,Presentation,4,00211940128fa_sunabasphceswhwwqvv.jpg,00140931230fb_sunaapllqyqlykszopd.jpg,00211940128fa.jpg,sunabasphceswhwwqvv.jpg,00140931230fb.jpg,sunaapllqyqlykszopd.jpg,,,<,Place,,,,,1,,,,,,,x
204,40,Presentation,4,00807941205fa_sunahawfngukizslzsd.jpg,00554940519fa_sunacfdkbsrughwqwtt.jpg,00807941205fa.jpg,sunahawfngukizslzsd.jpg,00554940519fa.jpg,sunacfdkbsrughwqwtt.jpg,,,<,Place,,,,,1,,,,,,,x
205,40,Presentation,4,00112931230fa_sunaakjaacuzulqckgl.jpg,00145931230fb_sunaatjesvdupctftmn.jpg,00112931230fa.jpg,sunaakjaacuzulqckgl.jpg,00145931230fb.jpg,sunaatjesvdupctftmn.jpg,,,<,Place,,,,,1,,,,,,,o
206,40,Presentation,4,00662941121fa_sunadkazmlajmohnwfl.jpg,00111931230fb_sunaakgekhjklxmvulj.jpg,00662941121fa.jpg,sunadkazmlajmohnwfl.jpg,00111931230fb.jpg,sunaakgekhjklxmvulj.jpg,,,<,Place,,,,,1,,,,,,,o
207,40,Presentation,4,01000960627fa_sunbvzmgrdvaakxusbu.jpg,00868960307fa_sunajjxttslobudoqbv.jpg,01000960627fa.jpg,sunbvzmgrdvaakxusbu.jpg,00868960307fa.jpg,sunajjxttslobudoqbv.jpg,,,<,Place,,,,,1,,,,,,,o
208,40,Presentation,4,00144931230fb_sunaathajvxrgptwhoj.jpg,00869940307fa_sunajoveqhiprwqgoco.jpg,00144931230fb.jpg,sunaathajvxrgptwhoj.jpg,00869940307fa.jpg,sunajoveqhiprwqgoco.jpg,,,<,Place,,,,,1,,,,,,,x
209,40,Presentation,4,00825940307fa_sunahrltmuwbiehihpe.jpg,00909960530_sunaobtizabegtwfwul.jpg,00825940307fa.jpg,sunahrltmuwbiehihpe.jpg,00909960530.jpg,sunaobtizabegtwfwul.jpg,,,<,Place,,,,,1,,,,,,,o
210,40,Memory,4,,,,,,,sunavspxmxubqaeidjt.jpg,,,,,,,,,,,,,,,
211,40,Memory,4,,,,,,,00111931230fb.jpg,,,,,,,,,,,,,,,
212,40,Memory,4,,,,,,,sunaathajvxrgptwhoj.jpg,,,,,,,,,,,,,,,
213,40,Memory,4,,,,,,,00825940307fa.jpg,,,,,,,,,,,,,,,
214,40,Memory,4,,,,,,,sunajjxttslobudoqbv.jpg,,,,,,,,,,,,,,,
215,40,Memory,4,,,,,,,sunagufzbeteqdjxais.jpg,,,,,,,,,,,,,,,
216,40,Memory,4,,,,,,,sunauburywlkjszngcq.jpg,,,,,,,,,,,,,,,
217,40,Memory,4,,,,,,,00868960307fa.jpg,,,,,,,,,,,,,,,
218,40,Memory,4,,,,,,,00869940307fa.jpg,,,,,,,,,,,,,,,
219,40,Memory,4,,,,,,,sunajoveqhiprwqgoco.jpg,,,,,,,,,,,,,,,
220,40,Memory,4,,,,,,,sunaozisvwfbmlkfhzv.jpg,,,,,,,,,,,,,,,
221,40,Memory,4,,,,,,,sunahmhrncocyhsjpxk.jpg,,,,,,,,,,,,,,,
222,40,Memory,4,,,,,,,sunaajuzribjrizdshh.jpg,,,,,,,,,,,,,,,
223,40,Memory,4,,,,,,,sunadkazmlajmohnwfl.jpg,,,,,,,,,,,,,,,
224,40,Memory,4,,,,,,,00109931230fa.jpg,,,,,,,,,,,,,,,
225,40,Memory,4,,,,,,,00955960627fb.jpg,,,,,,,,,,,,,,,
226,40,Memory,4,,,,,,,sunabmytpyhsgigllxu.jpg,,,,,,,,,,,,,,,
227,40,Memory,4,,,,,,,sunahedfrhtcwpneund.jpg,,,,,,,,,,,,,,,
228,40,Memory,4,,,,,,,sunagoufulkpsxrmklt.jpg,,,,,,,,,,,,,,,
229,40,Memory,4,,,,,,,sunahrltmuwbiehihpe.jpg,,,,,,,,,,,,,,,
230,40,Memory,4,,,,,,,sunalntxqqadigcletd.jpg,,,,,,,,,,,,,,,
231,40,Memory,4,,,,,,,00947960627fa.jpg,,,,,,,,,,,,,,,
232,40,Memory,4,,,,,,,00276940422fa.jpg,,,,,,,,,,,,,,,
233,40,Memory,4,,,,,,,sunaakgekhjklxmvulj.jpg,,,,,,,,,,,,,,,
234,40,Memory,4,,,,,,,sunasmmcxdddtmtazwx.jpg,,,,,,,,,,,,,,,
235,40,Memory,4,,,,,,,00811960530fa.jpg,,,,,,,,,,,,,,,
236,40,Memory,4,,,,,,,00145931230fb.jpg,,,,,,,,,,,,,,,
237,40,Memory,4,,,,,,,01003960627fb.jpg,,,,,,,,,,,,,,,
238,40,Memory,4,,,,,,,00892960530fa.jpg,,,,,,,,,,,,,,,
239,40,Memory,4,,,,,,,00144931230fb.jpg,,,,,,,,,,,,,,,
240,40,Memory,4,,,,,,,sunbwdrdvsweerwsdrj.jpg,,,,,,,,,,,,,,,
241,40,Memory,4,,,,,,,sunabasphceswhwwqvv.jpg,,,,,,,,,,,,,,,
242,40,Memory,4,,,,,,,00211940128fa.jpg,,,,,,,,,,,,,,,
243,40,Memory,4,,,,,,,00958960627fa.jpg,,,,,,,,,,,,,,,
244,40,Memory,4,,,,,,,00816941205fa.jpg,,,,,,,,,,,,,,,
245,40,Memory,4,,,,,,,00914960620fa.jpg,,,,,,,,,,,,,,,
246,40,Memory,4,,,,,,,00787960620fa.jpg,,,,,,,,,,,,,,,
247,40,Memory,4,,,,,,,00662941121fa.jpg,,,,,,,,,,,,,,,
248,40,Memory,4,,,,,,,00797960620fa.jpg,,,,,,,,,,,,,,,
249,40,Memory,4,,,,,,,sunaatjesvdupctftmn.jpg,,,,,,,,,,,,,,,
250,40,Presentation,5,00979960627fa_sunbdycacjfaujxitbw.jpg,00953960627fa_sunatstrpjxhvtbaczf.jpg,00979960627fa.jpg,sunbdycacjfaujxitbw.jpg,00953960627fa.jpg,sunatstrpjxhvtbaczf.jpg,,,>,Face,,,,,1,,,,,,,x
251,40,Presentation,5,00938960627fa_sunaqyylsngywqzwfmx.jpg,00812941205fa_sunahgtbwgsmtqeodwh.jpg,00938960627fa.jpg,sunaqyylsngywqzwfmx.jpg,00812941205fa.jpg,sunahgtbwgsmtqeodwh.jpg,,,>,Face,,,,,1,,,,,,,o
252,40,Presentation,5,00841940307fa_sunaisiwfgppimtnmxl.jpg,00115931230fa_sunaakmxzhuceuiryah.jpg,00841940307fa.jpg,sunaisiwfgppimtnmxl.jpg,00115931230fa.jpg,sunaakmxzhuceuiryah.jpg,,,>,Face,,,,,1,,,,,,,x
253,40,Presentation,5,00609940928fa_sunacycdoztxoluxjyk.jpg,00266940128fb_sunabkngeblodihjvbk.jpg,00609940928fa.jpg,sunacycdoztxoluxjyk.jpg,00266940128fb.jpg,sunabkngeblodihjvbk.jpg,,,>,Face,,,,,1,,,,,,,o
254,40,Presentation,5,00858940307fa_sunaixpqndlwhwjtjek.jpg,00197940128fa_sunaaylzyqlqrsmfwif.jpg,00858940307fa.jpg,sunaixpqndlwhwjtjek.jpg,00197940128fa.jpg,sunaaylzyqlqrsmfwif.jpg,,,>,Face,,,,,1,,,,,,,x
255,40,Presentation,5,00481940519fa_sunabxsuqbleluwczoy.jpg,00719960620fa_sunadzuvtmtmgupotmf.jpg,00481940519fa.jpg,sunabxsuqbleluwczoy.jpg,00719960620fa.jpg,sunadzuvtmtmgupotmf.jpg,,,>,Face,,,,,1,,,,,,,x
256,40,Presentation,5,00675941121fa_sunadoxcchtmsxewsau.jpg,00265940128fb_sunabkmdplkdbvxriff.jpg,00675941121fa.jpg,sunadoxcchtmsxewsau.jpg,00265940128fb.jpg,sunabkmdplkdbvxriff.jpg,,,>,Face,,,,,1,,,,,,,o
257,40,Presentation,5,00095931230fa_sunaahzooisqkwlxwoz.jpg,00185940422fb_sunaawqdbpihmlbwyyn.jpg,00095931230fa.jpg,sunaahzooisqkwlxwoz.jpg,00185940422fb.jpg,sunaawqdbpihmlbwyyn.jpg,,,>,Face,,,,,0,,,,,,,x
258,40,Presentation,5,00969960627fa_sunbaoizrfijvhpnnjn.jpg,00242940128fa_sunabcuurugvxwparpk.jpg,00969960627fa.jpg,sunbaoizrfijvhpnnjn.jpg,00242940128fa.jpg,sunabcuurugvxwparpk.jpg,,,>,Face,,,,,0,,,,,,,o
259,40,Presentation,5,00937960627fa_sunaqsolmfydodnakub.jpg,00635941031fa_sunaddsaeicthrfbkhe.jpg,00937960627fa.jpg,sunaqsolmfydodnakub.jpg,00635941031fa.jpg,sunaddsaeicthrfbkhe.jpg,,,>,Face,,,,,1,,,,,,,x
260,40,Memory,5,,,,,,,00812941205fa.jpg,,,,,,,,,,,,,,,
261,40,Memory,5,,,,,,,00589940928fa.jpg,,,,,,,,,,,,,,,
262,40,Memory,5,,,,,,,sunabyfxcxhdebvdyfd.jpg,,,,,,,,,,,,,,,
263,40,Memory,5,,,,,,,00082931230fa.jpg,,,,,,,,,,,,,,,
264,40,Memory,5,,,,,,,sunaahzooisqkwlxwoz.jpg,,,,,,,,,,,,,,,
265,40,Memory,5,,,,,,,sunadnjjzohjhbohlwq.jpg,,,,,,,,,,,,,,,
266,40,Memory,5,,,,,,,00953960627fa.jpg,,,,,,,,,,,,,,,
267,40,Memory,5,,,,,,,00938960627fa.jpg,,,,,,,,,,,,,,,
268,40,Memory,5,,,,,,,sunacycdoztxoluxjyk.jpg,,,,,,,,,,,,,,,
269,40,Memory,5,,,,,,,sunaazzyhbvqjpmazjq.jpg,,,,,,,,,,,,,,,
270,40,Memory,5,,,,,,,sunaqyylsngywqzwfmx.jpg,,,,,,,,,,,,,,,
271,40,Memory,5,,,,,,,00609940928fa.jpg,,,,,,,,,,,,,,,
272,40,Memory,5,,,,,,,00197940128fa.jpg,,,,,,,,,,,,,,,
273,40,Memory,5,,,,,,,00302940422fa.jpg,,,,,,,,,,,,,,,
274,40,Memory,5,,,,,,,00481940519fa.jpg,,,,,,,,,,,,,,,
275,40,Memory,5,,,,,,,00663941121fa.jpg,,,,,,,,,,,,,,,
276,40,Memory,5,,,,,,,sunacepzfrmtkiqonpy.jpg,,,,,,,,,,,,,,,
277,40,Memory,5,,,,,,,00479940519fa.jpg,,,,,,,,,,,,,,,
278,40,Memory,5,,,,,,,sunbdycacjfaujxitbw.jpg,,,,,,,,,,,,,,,
279,40,Memory,5,,,,,,,sunaafvitpexrpvumsa.jpg,,,,,,,,,,,,,,,
280,40,Memory,5,,,,,,,00635941031fa.jpg,,,,,,,,,,,,,,,
281,40,Memory,5,,,,,,,sunaaylzyqlqrsmfwif.jpg,,,,,,,,,,,,,,,
282,40,Memory,5,,,,,,,sunabxsuqbleluwczoy.jpg,,,,,,,,,,,,,,,
283,40,Memory,5,,,,,,,sunafowswglhxcsufpo.jpg,,,,,,,,,,,,,,,
284,40,Memory,5,,,,,,,sunatstrpjxhvtbaczf.jpg,,,,,,,,,,,,,,,
285,40,Memory,5,,,,,,,sunabkngeblodihjvbk.jpg,,,,,,,,,,,,,,,
286,40,Memory,5,,,,,,,sunabxsbfwjccqxxzxq.jpg,,,,,,,,,,,,,,,
287,40,Memory,5,,,,,,,sunaddsaeicthrfbkhe.jpg,,,,,,,,,,,,,,,
288,40,Memory,5,,,,,,,00208940128fa.jpg,,,,,,,,,,,,,,,
289,40,Memory,5,,,,,,,00069931230fb.jpg,,,,,,,,,,,,,,,
290,40,Memory,5,,,,,,,sunahgtbwgsmtqeodwh.jpg,,,,,,,,,,,,,,,
291,40,Memory,5,,,,,,,sunacwggadqsfpovdjv.jpg,,,,,,,,,,,,,,,
292,40,Memory,5,,,,,,,00979960627fa.jpg,,,,,,,,,,,,,,,
293,40,Memory,5,,,,,,,00266940128fb.jpg,,,,,,,,,,,,,,,
294,40,Memory,5,,,,,,,00095931230fa.jpg,,,,,,,,,,,,,,,
295,40,Memory,5,,,,,,,00543940519fa.jpg,,,,,,,,,,,,,,,
296,40,Memory,5,,,,,,,00771941205fa.jpg,,,,,,,,,,,,,,,
297,40,Memory,5,,,,,,,sunabtlfmiwtljmoues.jpg,,,,,,,,,,,,,,,
298,40,Memory,5,,,,,,,sunaaeowapdkwzqpgqr.jpg,,,,,,,,,,,,,,,
299,40,Memory,5,,,,,,,00482940519fa.jpg,,,,,,,,,,,,,,,
300,40,Presentation,6,00931960627fa_sunaptrqvaooxfvktvw.jpg,00898960530fa_sunamkmeblgteyggink.jpg,00931960627fa.jpg,sunaptrqvaooxfvktvw.jpg,00898960530fa.jpg,sunamkmeblgteyggink.jpg,,,<,Face,,,,,1,,,,,,,o
301,40,Presentation,6,00926960627Fa_sunapqwoeotxshkukbh.jpg,00809960620fa_sunahbvlpavurqoxdeq.jpg,00926960627Fa.jpg,sunapqwoeotxshkukbh.jpg,00809960620fa.jpg,sunahbvlpavurqoxdeq.jpg,,,<,Face,,,,,1,,,,,,,o
302,40,Presentation,6,00866940307fa_sunajbwkywmsqkldfml.jpg,00209940128fb_sunabaergayifsgacxt.jpg,00866940307fa.jpg,sunajbwkywmsqkldfml.jpg,00209940128fb.jpg,sunabaergayifsgacxt.jpg,,,<,Face,,,,,1,,,,,,,o
303,40,Presentation,6,00076931230fa_sunaafewhewbxmjiurz.jpg,00893960530Fa_sunaloffvbvysigxent.jpg,00076931230fa.jpg,sunaafewhewbxmjiurz.jpg,00893960530Fa.jpg,sunaloffvbvysigxent.jpg,,,<,Face,,,,,1,,,,,,,x
304,40,Presentation,6,00127931230fa_sunaampvucecsfbdafn.jpg,00968960627fa_sunbagfpovqwbuexqdn.jpg,00127931230fa.jpg,sunaampvucecsfbdafn.jpg,00968960627fa.jpg,sunbagfpovqwbuexqdn.jpg,,,<,Face,,,,,1,,,,,,,x
305,40,Presentation,6,00970960627fa_sunbasypfgzjtomktmu.jpg,00108960530fa_sunaajtnvzzpsjdzres.jpg,00970960627fa.jpg,sunbasypfgzjtomktmu.jpg,00108960530fa.jpg,sunaajtnvzzpsjdzres.jpg,,,<,Face,,,,,1,,,,,,,o
306,40,Presentation,6,00949960627fb_sunasnqkkyhilqkxiqm.jpg,00860940307fa_sunaizeyhvjzknwjudw.jpg,00949960627fb.jpg,sunasnqkkyhilqkxiqm.jpg,00860940307fa.jpg,sunaizeyhvjzknwjudw.jpg,,,<,Face,,,,,1,,,,,,,x
307,40,Presentation,6,00564940928fa_sunacmpqqfbsvlzinzl.jpg,00133931230fa_sunaanlwnpqndclffxt.jpg,00564940928fa.jpg,sunacmpqqfbsvlzinzl.jpg,00133931230fa.jpg,sunaanlwnpqndclffxt.jpg,,,<,Face,,,,,1,,,,,,,x
308,40,Presentation,6,00750941201fa_sunaeuzwggvibufclwf.jpg,00753941201fa_sunafcofuuzebuadceo.jpg,00750941201fa.jpg,sunaeuzwggvibufclwf.jpg,00753941201fa.jpg,sunafcofuuzebuadceo.jpg,,,<,Face,,,,,1,,,,,,,x
309,40,Presentation,6,00070940307fa_sunaaeplwsfslcbtojr.jpg,00305940422fa_sunabtrnbvpppgczjim.jpg,00070940307fa.jpg,sunaaeplwsfslcbtojr.jpg,00305940422fa.jpg,sunabtrnbvpppgczjim.jpg,,,<,Face,,,,,1,,,,,,,x
310,40,Memory,6,,,,,,,00968960627fa.jpg,,,,,,,,,,,,,,,
311,40,Memory,6,,,,,,,sunabzuqsrgcsonqlkz.jpg,,,,,,,,,,,,,,,
312,40,Memory,6,,,,,,,00921960627fa.jpg,,,,,,,,,,,,,,,
313,40,Memory,6,,,,,,,sunaeuvjbmdpknaqqaj.jpg,,,,,,,,,,,,,,,
314,40,Memory,6,,,,,,,sunapqwoeotxshkukbh.jpg,,,,,,,,,,,,,,,
315,40,Memory,6,,,,,,,00564940928fa.jpg,,,,,,,,,,,,,,,
316,40,Memory,6,,,,,,,00949960627fb.jpg,,,,,,,,,,,,,,,
317,40,Memory,6,,,,,,,00834940307fa.jpg,,,,,,,,,,,,,,,
318,40,Memory,6,,,,,,,00070940307fa.jpg,,,,,,,,,,,,,,,
319,40,Memory,6,,,,,,,00931960627fa.jpg,,,,,,,,,,,,,,,
320,40,Memory,6,,,,,,,sunaajtnvzzpsjdzres.jpg,,,,,,,,,,,,,,,
321,40,Memory,6,,,,,,,00108960530fa.jpg,,,,,,,,,,,,,,,
322,40,Memory,6,,,,,,,00749941201fa.jpg,,,,,,,,,,,,,,,
323,40,Memory,6,,,,,,,sunalqmfgeadpqsyzpd.jpg,,,,,,,,,,,,,,,
324,40,Memory,6,,,,,,,sunapqwnqzxlsfvgsjm.jpg,,,,,,,,,,,,,,,
325,40,Memory,6,,,,,,,00132931230fb.jpg,,,,,,,,,,,,,,,
326,40,Memory,6,,,,,,,sunasnqkkyhilqkxiqm.jpg,,,,,,,,,,,,,,,
327,40,Memory,6,,,,,,,sunaibnpvhkdpdnzcnz.jpg,,,,,,,,,,,,,,,
328,40,Memory,6,,,,,,,00926960627Fa.jpg,,,,,,,,,,,,,,,
329,40,Memory,6,,,,,,,sunbagfpovqwbuexqdn.jpg,,,,,,,,,,,,,,,
330,40,Memory,6,,,,,,,00133931230fa.jpg,,,,,,,,,,,,,,,
331,40,Memory,6,,,,,,,sunaptrqvaooxfvktvw.jpg,,,,,,,,,,,,,,,
332,40,Memory,6,,,,,,,sunagmwxxwymwojbvgi.jpg,,,,,,,,,,,,,,,
333,40,Memory,6,,,,,,,00753941201fa.jpg,,,,,,,,,,,,,,,
334,40,Memory,6,,,,,,,00894960620fa.jpg,,,,,,,,,,,,,,,
335,40,Memory,6,,,,,,,00505960627fa.jpg,,,,,,,,,,,,,,,
336,40,Memory,6,,,,,,,sunapqkpqdfvxlbqwyo.jpg,,,,,,,,,,,,,,,
337,40,Memory,6,,,,,,,sunbvbrvgbpanfrawft.jpg,,,,,,,,,,,,,,,
338,40,Memory,6,,,,,,,sunaaeplwsfslcbtojr.jpg,,,,,,,,,,,,,,,
339,40,Memory,6,,,,,,,00999960627fa.jpg,,,,,,,,,,,,,,,
340,40,Memory,6,,,,,,,sunaanjcbzdvtvblsdy.jpg,,,,,,,,,,,,,,,
341,40,Memory,6,,,,,,,sunafcofuuzebuadceo.jpg,,,,,,,,,,,,,,,
342,40,Memory,6,,,,,,,00925960627fa.jpg,,,,,,,,,,,,,,,
343,40,Memory,6,,,,,,,sunbmaiocftdtvnzgap.jpg,,,,,,,,,,,,,,,
344,40,Memory,6,,,,,,,00988960627fa.jpg,,,,,,,,,,,,,,,
345,40,Memory,6,,,,,,,sunaanlwnpqndclffxt.jpg,,,,,,,,,,,,,,,
346,40,Memory,6,,,,,,,sunacmpqqfbsvlzinzl.jpg,,,,,,,,,,,,,,,
347,40,Memory,6,,,,,,,00898960530fa.jpg,,,,,,,,,,,,,,,
348,40,Memory,6,,,,,,,sunamkmeblgteyggink.jpg,,,,,,,,,,,,,,,
349,40,Memory,6,,,,,,,00787941205fa.jpg,,,,,,,,,,,,,,,
350,40,Presentation,7,00098931230fa_sunaajpqmulidejvjsr.jpg,00294940422fb_sunabrlndkruqokhury.jpg,00098931230fa.jpg,sunaajpqmulidejvjsr.jpg,00294940422fb.jpg,sunabrlndkruqokhury.jpg,,,>,Place,,,,,0,,,,,,,o
351,40,Presentation,7,00576941031fa_sunacvjlsylseoghjup.jpg,00557940519fa_sunachtuarilwyqnvjx.jpg,00576941031fa.jpg,sunacvjlsylseoghjup.jpg,00557940519fa.jpg,sunachtuarilwyqnvjx.jpg,,,>,Place,,,,,1,,,,,,,x
352,40,Presentation,7,00913960530fa_sunaooffzffbhcpirmm.jpg,00260940128fa_sunabgfhvifeijihhjw.jpg,00913960530fa.jpg,sunaooffzffbhcpirmm.jpg,00260940128fa.jpg,sunabgfhvifeijihhjw.jpg,,,>,Place,,,,,1,,,,,,,x
353,40,Presentation,7,00123931230fb_sunaalcrrdbjgdztbiz.jpg,00889960530fa_sunaletopenvvozhpxc.jpg,00123931230fb.jpg,sunaalcrrdbjgdztbiz.jpg,00889960530fa.jpg,sunaletopenvvozhpxc.jpg,,,>,Place,,,,,1,,,,,,,x
354,40,Presentation,7,00548940519fa_sunacerqowiaeoqkmsq.jpg,00267940128fb_sunablfqiwfqomjarht.jpg,00548940519fa.jpg,sunacerqowiaeoqkmsq.jpg,00267940128fb.jpg,sunablfqiwfqomjarht.jpg,,,>,Place,,,,,1,,,,,,,x
355,40,Presentation,7,00993960627fa_sunbprywzqxjcezkbch.jpg,00910960530fa_sunaofikylqtxphvdem.jpg,00993960627fa.jpg,sunbprywzqxjcezkbch.jpg,00910960530fa.jpg,sunaofikylqtxphvdem.jpg,,,>,Place,,,,,1,,,,,,,x
356,40,Presentation,7,00751960620fa_sunaezuszgtxnmsxdbk.jpg,00648941031fa_sunadfndyrtqqiasoig.jpg,00751960620fa.jpg,sunaezuszgtxnmsxdbk.jpg,00648941031fa.jpg,sunadfndyrtqqiasoig.jpg,,,>,Place,,,,,1,,,,,,,x
357,40,Presentation,7,00929960627fa_sunaprnrbmgkomdbchr.jpg,00835940307fa_sunaijsqpvodplbwxkf.jpg,00929960627fa.jpg,sunaprnrbmgkomdbchr.jpg,00835940307fa.jpg,sunaijsqpvodplbwxkf.jpg,,,>,Place,,,,,1,,,,,,,x
358,40,Presentation,7,00986960627fa_sunbgzjryivyczuvkvm.jpg,00778941205fa_sunagcthdfirrcawoic.jpg,00986960627fa.jpg,sunbgzjryivyczuvkvm.jpg,00778941205fa.jpg,sunagcthdfirrcawoic.jpg,,,>,Place,,,,,1,,,,,,,o
359,40,Presentation,7,00989960627fa_sunbondbduabvijnmch.jpg,00080931230fb_sunaafjszryxyavjzln.jpg,00989960627fa.jpg,sunbondbduabvijnmch.jpg,00080931230fb.jpg,sunaafjszryxyavjzln.jpg,,,>,Place,,,,,1,,,,,,,o
360,40,Memory,7,,,,,,,sunaofikylqtxphvdem.jpg,,,,,,,,,,,,,,,
361,40,Memory,7,,,,,,,00267940128fb.jpg,,,,,,,,,,,,,,,
362,40,Memory,7,,,,,,,sunagdzlvkqtpnfxfcg.jpg,,,,,,,,,,,,,,,
363,40,Memory,7,,,,,,,00889960530fa.jpg,,,,,,,,,,,,,,,
364,40,Memory,7,,,,,,,00993960627fa.jpg,,,,,,,,,,,,,,,
365,40,Memory,7,,,,,,,sunabmbnddafmywtjjj.jpg,,,,,,,,,,,,,,,
366,40,Memory,7,,,,,,,00779941205fa.jpg,,,,,,,,,,,,,,,
367,40,Memory,7,,,,,,,00292940422fb.jpg,,,,,,,,,,,,,,,
368,40,Memory,7,,,,,,,00198940128fb.jpg,,,,,,,,,,,,,,,
369,40,Memory,7,,,,,,,00221940128fa.jpg,,,,,,,,,,,,,,,
370,40,Memory,7,,,,,,,sunaahedjlmtqekgyvj.jpg,,,,,,,,,,,,,,,
371,40,Memory,7,,,,,,,00296940422fa.jpg,,,,,,,,,,,,,,,
372,40,Memory,7,,,,,,,00913960530fa.jpg,,,,,,,,,,,,,,,
373,40,Memory,7,,,,,,,sunaletopenvvozhpxc.jpg,,,,,,,,,,,,,,,
374,40,Memory,7,,,,,,,sunasbbntuiheekqyaq.jpg,,,,,,,,,,,,,,,
375,40,Memory,7,,,,,,,sunaajpqmulidejvjsr.jpg,,,,,,,,,,,,,,,
376,40,Memory,7,,,,,,,00576941031fa.jpg,,,,,,,,,,,,,,,
377,40,Memory,7,,,,,,,sunablfqiwfqomjarht.jpg,,,,,,,,,,,,,,,
378,40,Memory,7,,,,,,,00548940519fa.jpg,,,,,,,,,,,,,,,
379,40,Memory,7,,,,,,,00944960627fa.jpg,,,,,,,,,,,,,,,
380,40,Memory,7,,,,,,,00090931230fa.jpg,,,,,,,,,,,,,,,
381,40,Memory,7,,,,,,,sunaauhozyxzeeqstxi.jpg,,,,,,,,,,,,,,,
382,40,Memory,7,,,,,,,sunabcfpwlpolnutyju.jpg,,,,,,,,,,,,,,,
383,40,Memory,7,,,,,,,00648941031fa.jpg,,,,,,,,,,,,,,,
384,40,Memory,7,,,,,,,sunabrjdpmoedcdjbpo.jpg,,,,,,,,,,,,,,,
385,40,Memory,7,,,,,,,00984960627fa.jpg,,,,,,,,,,,,,,,
386,40,Memory,7,,,,,,,sunabrwnslxalcohfre.jpg,,,,,,,,,,,,,,,
387,40,Memory,7,,,,,,,00271940422fa.jpg,,,,,,,,,,,,,,,
388,40,Memory,7,,,,,,,sunadfndyrtqqiasoig.jpg,,,,,,,,,,,,,,,
389,40,Memory,7,,,,,,,sunbprywzqxjcezkbch.jpg,,,,,,,,,,,,,,,
390,40,Memory,7,,,,,,,sunaooffzffbhcpirmm.jpg,,,,,,,,,,,,,,,
391,40,Memory,7,,,,,,,sunbfzchmomnvzhbxdg.jpg,,,,,,,,,,,,,,,
392,40,Memory,7,,,,,,,sunacvjlsylseoghjup.jpg,,,,,,,,,,,,,,,
393,40,Memory,7,,,,,,,sunacerqowiaeoqkmsq.jpg,,,,,,,,,,,,,,,
394,40,Memory,7,,,,,,,00098931230fa.jpg,,,,,,,,,,,,,,,
395,40,Memory,7,,,,,,,00835940307fa.jpg,,,,,,,,,,,,,,,
396,40,Memory,7,,,,,,,sunaijsqpvodplbwxkf.jpg,,,,,,,,,,,,,,,
397,40,Memory,7,,,,,,,00910960530fa.jpg,,,,,,,,,,,,,,,
398,40,Memory,7,,,,,,,sunaazezcsunmhttzxz.jpg,,,,,,,,,,,,,,,
399,40,Memory,7,,,,,,,00153931230fa.jpg,,,,,,,,,,,,,,,
