,Subject,Trial Type,Run,Cued Composite,Uncued Composite,Cued Face,Cued Place,Uncued Face,Uncued Place,Memory Image,Category,Cued Side,Cued Category,Attention Reaction Time (s),Familiarity Reaction Time (s),Familiarity Rating,Attention Level,Cue Validity,Post Invalid Cue,Pre Invalid Cue,Attention Button,Rating History,Stimulus Onset,Stimulus End,Attention Probe
160,25,Memory,3,,,,,,,sunaeisnjeetzmkbuad.jpg,,,,,1.436,3.0,,,,,,,1539787472.568615,1539787475.086572,
161,25,Memory,3,,,,,,,00146960620fb.jpg,,,,,1.57,2.0,,,,,,,1539787476.487723,1539787478.836585,
162,25,Memory,3,,,,,,,00147931230fb.jpg,,,,,1.204,1.0,,,,,,,1539787480.204137,1539787482.538469,
163,25,Memory,3,,,,,,,sunaddsaeicthrfbkhe.jpg,,,,,1.202,1.0,,,,,,,1539787483.938433,1539787486.271644,
164,25,Memory,3,,,,,,,sunaalcrrdbjgdztbiz.jpg,,,,,1.3,2.0,,,,,,,1539787487.690455,1539787490.006683,
165,25,Memory,3,,,,,,,00742941201fa.jpg,,,,,0.77,1.0,,,,,,,1539787491.392488,1539787493.792588,
166,25,Memory,3,,,,,,,00635941031fa.jpg,,,,,0.933,1.0,,,,,,,1539787495.226549,1539787497.577247,
167,25,Memory,3,,,,,,,sunaakxgygjfqrzpyoz.jpg,,,,,1.101,1.0,,,,,,,1539787498.978022,1539787501.412961,
168,25,Memory,3,,,,,,,00727941205fa.jpg,,,,,1.053,3.0,,,,,,,1539787502.761868,1539787505.01262,
169,25,Memory,3,,,,,,,00097931230fa.jpg,,,,,0.817,1.0,,,,,,,1539787506.430036,1539787508.813837,
170,25,Memory,3,,,,,,,sunaatpkocdkocwxpkb.jpg,,,,,1.171,1.0,,,,,,,1539787510.197455,1539787512.652409,
171,25,Memory,3,,,,,,,sunaatpeezlljqaxlhj.jpg,,,,,1.054,1.0,,,,,,,1539787514.016603,1539787516.533065,
172,25,Memory,3,,,,,,,00102931230fa.jpg,,,,,1.168,1.0,,,,,,,1539787517.933713,1539787520.367471,
173,25,Memory,3,,,,,,,sunaajspcoepticvplv.jpg,,,,,1.136,1.0,,,,,,,1539787521.751202,1539787524.185697,
174,25,Memory,3,,,,,,,sunajrujcsdxmfbssmc.jpg,,,,,1.337,1.0,,,,,,,1539787525.585205,1539787527.870636,
175,25,Memory,3,,,,,,,sunadfndyrtqqiasoig.jpg,,,,,1.52,1.0,,,,,,,1539787529.270053,1539787531.605521,
176,25,Memory,3,,,,,,,00836940307fa.jpg,,,,,1.052,1.0,,,,,,,1539787532.972668,1539787535.389189,
177,25,Memory,3,,,,,,,00816941205fa.jpg,,,,,1.336,3.0,,,,,,,1539787536.856899,1539787539.224006,
178,25,Memory,3,,,,,,,00636941031fa.jpg,,,,,1.154,1.0,,,,,,,1539787540.657492,1539787542.975437,
179,25,Memory,3,,,,,,,sunaddtdkycxbqlpfqa.jpg,,,,,1.568,2.0,,,,,,,1539787544.392384,1539787546.892919,
180,25,Memory,3,,,,,,,00796941205fa.jpg,,,,,0.938,1.0,,,,,,,1539787548.343841,1539787550.877568,
181,25,Memory,3,,,,,,,sunahmhrncocyhsjpxk.jpg,,,,,0.853,1.0,,,,,,,1539787552.245748,1539787554.712075,
182,25,Memory,3,,,,,,,00648941031fa.jpg,,,,,0.888,1.0,,,,,,,1539787556.161256,1539787558.529204,
183,25,Memory,3,,,,,,,sunbagfpovqwbuexqdn.jpg,,,,,1.336,2.0,,,,,,,1539787559.880324,1539787562.281531,
184,25,Memory,3,,,,,,,00905960530fa.jpg,,,,,0.669,1.0,,,,,,,1539787563.635722,1539787566.169188,
185,25,Memory,3,,,,,,,sunabcfpwlpolnutyju.jpg,,,,,1.236,2.0,,,,,,,1539787567.549743,1539787569.883831,
186,25,Memory,3,,,,,,,sunaguchqqnrtodtezq.jpg,,,,,0.836,3.0,,,,,,,1539787571.284075,1539787573.618811,
187,25,Memory,3,,,,,,,sunanmoqeyprjjjfxjt.jpg,,,,,1.003,3.0,,,,,,,1539787574.985817,1539787577.552299,
188,25,Memory,3,,,,,,,00871940307.jpg,,,,,0.667,1.0,,,,,,,1539787578.952561,1539787581.40423,
189,25,Memory,3,,,,,,,sunaenwuebvlpdmntju.jpg,,,,,0.97,1.0,,,,,,,1539787582.904799,1539787585.388908,
190,25,Memory,3,,,,,,,00968960627fa.jpg,,,,,0.754,1.0,,,,,,,1539787586.823529,1539787589.390431,
191,25,Memory,3,,,,,,,sunagsiwrmuixqgdimb.jpg,,,,,0.689,1.0,,,,,,,1539787590.823616,1539787593.37513,
192,25,Memory,3,,,,,,,sunaajayojuslbbnneg.jpg,,,,,1.569,1.0,,,,,,,1539787594.791223,1539787597.276359,
193,25,Memory,3,,,,,,,00993960627fa.jpg,,,,,0.636,1.0,,,,,,,1539787598.692078,1539787600.925492,
194,25,Memory,3,,,,,,,sunbprywzqxjcezkbch.jpg,,,,,0.902,1.0,,,,,,,1539787602.344621,1539787604.811542,
195,25,Memory,3,,,,,,,00120931230fa.jpg,,,,,1.088,1.0,,,,,,,1539787606.228661,1539787608.61271,
196,25,Memory,3,,,,,,,sunainqelldeebvxtcz.jpg,,,,,1.152,4.0,,,,,,,1539787610.013443,1539787612.397818,
197,25,Memory,3,,,,,,,00792941205fa.jpg,,,,,0.703,1.0,,,,,,,1539787613.780059,1539787616.180767,
198,25,Memory,3,,,,,,,00123931230fb.jpg,,,,,1.199,1.0,,,,,,,1539787617.549149,1539787620.033331,
199,25,Memory,3,,,,,,,00221940128fa.jpg,,,,,0.919,1.0,,,,,,,1539787621.451741,1539787623.767687,
