,Subject,Trial Type,Run,Cued Composite,Uncued Composite,Cued Face,Cued Place,Uncued Face,Uncued Place,Memory Image,Category,Cued Side,Cued Category,Attention Reaction Time (s),Familiarity Reaction Time (s),Familiarity Rating,Attention Level,Cue Validity,Post Invalid Cue,Pre Invalid Cue,Attention Button,Rating History,Stimulus Onset,Stimulus End,Attention Probe
60,18,Memory,1,,,,,,,sunacsaovnjezqwbykf.jpg,,,,,1.62,1.0,,,,,,,1539208099.198318,1539208101.249378,
61,18,Memory,1,,,,,,,sunaibnpvhkdpdnzcnz.jpg,,,,,1.122,3.0,,,,,,,1539208102.515493,1539208104.500585,
62,18,Memory,1,,,,,,,sunaalcrrdbjgdztbiz.jpg,,,,,1.303,2.0,,,,,,,1539208105.767544,1539208107.750735,
63,18,Memory,1,,,,,,,sunbasypfgzjtomktmu.jpg,,,,,1.586,3.0,,,,,,,1539208109.002028,1539208110.985902,
64,18,Memory,1,,,,,,,00211940128fa.jpg,,,,,1.437,3.0,,,,,,,1539208112.236805,1539208114.220228,
65,18,Memory,1,,,,,,,00076931230fa.jpg,,,,,0.937,2.0,,,,,,,1539208115.486925,1539208117.470323,
66,18,Memory,1,,,,,,,00970960627fa.jpg,,,,,1.053,2.0,,,,,,,1539208118.73844,1539208120.722335,
67,18,Memory,1,,,,,,,00834940307fa.jpg,,,,,1.021,2.0,,,,,,,1539208121.972363,1539208123.956667,
68,18,Memory,1,,,,,,,00564941031fa.jpg,,,,,1.237,2.0,,,,,,,1539208125.206911,1539208127.190643,
69,18,Memory,1,,,,,,,sunacxtcahkymosigud.jpg,,,,,1.703,3.0,,,,,,,1539208128.442103,1539208130.424945,
70,18,Memory,1,,,,,,,00221940128fa.jpg,,,,,0.953,3.0,,,,,,,1539208131.67621,1539208133.660137,
71,18,Memory,1,,,,,,,sunbvzmgrdvaakxusbu.jpg,,,,,1.119,2.0,,,,,,,1539208134.909997,1539208136.89417,
72,18,Memory,1,,,,,,,00929960627fa.jpg,,,,,0.886,2.0,,,,,,,1539208138.145188,1539208140.129392,
73,18,Memory,1,,,,,,,00809960620fa.jpg,,,,,0.87,3.0,,,,,,,1539208141.37878,1539208143.362776,
74,18,Memory,1,,,,,,,sunagutjvdvnhxejerz.jpg,,,,,1.238,3.0,,,,,,,1539208144.629836,1539208146.613948,
75,18,Memory,1,,,,,,,00276940422fa.jpg,,,,,1.121,2.0,,,,,,,1539208147.865682,1539208149.84905,
76,18,Memory,1,,,,,,,sunahiphsekjihkafsl.jpg,,,,,1.889,3.0,,,,,,,1539208151.099036,1539208153.082479,
77,18,Memory,1,,,,,,,00571940928fa.jpg,,,,,1.687,2.0,,,,,,,1539208154.333313,1539208156.316324,
78,18,Memory,1,,,,,,,sunagetqixeypsysbpn.jpg,,,,,1.103,2.0,,,,,,,1539208157.583286,1539208159.568481,
79,18,Memory,1,,,,,,,00761960627fa.jpg,,,,,0.803,3.0,,,,,,,1539208160.834759,1539208162.818574,
80,18,Memory,1,,,,,,,00947960627fa.jpg,,,,,0.72,2.0,,,,,,,1539208164.069848,1539208166.053931,
81,18,Memory,1,,,,,,,sunacuatpqpqhyjhjqk.jpg,,,,,0.671,2.0,,,,,,,1539208167.303707,1539208169.288836,
82,18,Memory,1,,,,,,,sunbtpilbhhbmhmeuzq.jpg,,,,,1.604,2.0,,,,,,,1539208170.538034,1539208172.521306,
83,18,Memory,1,,,,,,,sunahbvlpavurqoxdeq.jpg,,,,,1.686,4.0,,,,,,,1539208173.773325,1539208175.757298,
84,18,Memory,1,,,,,,,00780960530fa.jpg,,,,,1.186,3.0,,,,,,,1539208177.006548,1539208178.991492,
85,18,Memory,1,,,,,,,sunabcfpwlpolnutyju.jpg,,,,,1.453,1.0,,,,,,,1539208180.257863,1539208182.241912,
86,18,Memory,1,,,,,,,sunaahedjlmtqekgyvj.jpg,,,,,1.319,2.0,,,,,,,1539208183.509003,1539208185.492989,
87,18,Memory,1,,,,,,,00123931230fb.jpg,,,,,1.821,3.0,,,,,,,1539208186.760796,1539208188.744192,
88,18,Memory,1,,,,,,,00090931230fa.jpg,,,,,0.0,,,,,,,,1539208189.994124,1539208191.97839,
89,18,Memory,1,,,,,,,00598941031fa.jpg,,,,,1.035,2.0,,,,,,,1539208193.246115,1539208195.229317,
90,18,Memory,1,,,,,,,01000960627fa.jpg,,,,,0.836,2.0,,,,,,,1539208196.496652,1539208198.481492,
91,18,Memory,1,,,,,,,00997960627fa.jpg,,,,,1.22,2.0,,,,,,,1539208199.731651,1539208201.714982,
92,18,Memory,1,,,,,,,sunafgdqbclkwfocdhg.jpg,,,,,0.92,3.0,,,,,,,1539208202.982892,1539208204.966122,
93,18,Memory,1,,,,,,,sunasmmcxdddtmtazwx.jpg,,,,,1.369,2.0,,,,,,,1539208206.233121,1539208208.217187,
94,18,Memory,1,,,,,,,sunaafewhewbxmjiurz.jpg,,,,,1.92,3.0,,,,,,,1539208209.467338,1539208211.451441,
95,18,Memory,1,,,,,,,00815941205fa.jpg,,,,,0.0,,,,,,,,1539208212.835182,1539208214.818702,
96,18,Memory,1,,,,,,,sunabmytpyhsgigllxu.jpg,,,,,1.437,3.0,,,,,,,1539208216.069663,1539208218.054584,
97,18,Memory,1,,,,,,,sunaprnrbmgkomdbchr.jpg,,,,,1.387,1.0,,,,,,,1539208219.320767,1539208221.304952,
98,18,Memory,1,,,,,,,sunabasphceswhwwqvv.jpg,,,,,0.0,,,,,,,,1539208222.554923,1539208224.538948,
99,18,Memory,1,,,,,,,00799941205fa.jpg,,,,,0.87,2.0,,,,,,,1539208225.789099,1539208227.773075,
