,Subject,Trial Type,Run,Cued Composite,Uncued Composite,Cued Face,Cued Place,Uncued Face,Uncued Place,Memory Image,Category,Cued Side,Cued Category,Attention Reaction Time (s),Familiarity Reaction Time (s),Familiarity Rating,Attention Level,Cue Validity,Post Invalid Cue,Pre Invalid Cue,Attention Button,Rating History,Stimulus Onset,Stimulus End,Attention Probe
0,13,Presentation,0,00944960627fa_sunasbbntuiheekqyaq.jpg,00939960627fa_sunarceibpcyacbmfga.jpg,00944960627fa.jpg,sunasbbntuiheekqyaq.jpg,00939960627fa.jpg,sunarceibpcyacbmfga.jpg,,,>,Face,,,,,1,,,,,,,o
1,13,Presentation,0,00950960627fa_sunasrjlmglmjzbmqxb.jpg,00598940928fa_sunacxeheuiigkcgquf.jpg,00950960627fa.jpg,sunasrjlmglmjzbmqxb.jpg,00598940928fa.jpg,sunacxeheuiigkcgquf.jpg,,,>,Face,,,,,0,,,,,,,o
2,13,Presentation,0,00963960627fa_sunayaepykrqvenaqqy.jpg,00905960530fa_sunanmoqeyprjjjfxjt.jpg,00963960627fa.jpg,sunayaepykrqvenaqqy.jpg,00905960530fa.jpg,sunanmoqeyprjjjfxjt.jpg,,,>,Face,,,,,1,,,,,,,o
3,13,Presentation,0,00730960620fa_sunaekgzpfilgjxpeyq.jpg,00119931230fb_sunaakvmbftkrgqhjun.jpg,00730960620fa.jpg,sunaekgzpfilgjxpeyq.jpg,00119931230fb.jpg,sunaakvmbftkrgqhjun.jpg,,,>,Face,,,,,1,,,,,,,o
4,13,Presentation,0,00779941205fa_sunagdzlvkqtpnfxfcg.jpg,00296940422fa_sunabrwnslxalcohfre.jpg,00779941205fa.jpg,sunagdzlvkqtpnfxfcg.jpg,00296940422fa.jpg,sunabrwnslxalcohfre.jpg,,,>,Face,,,,,1,,,,,,,x
5,13,Presentation,0,00288940422fa_sunabppokiyglaxpcha.jpg,00804960530fa_sunagwswhkvnsmuszlz.jpg,00288940422fa.jpg,sunabppokiyglaxpcha.jpg,00804960530fa.jpg,sunagwswhkvnsmuszlz.jpg,,,>,Face,,,,,0,,,,,,,o
6,13,Presentation,0,00977960627fa_sunbbxkanhzjgbwyxqs.jpg,00997960627fa_sunbtpilbhhbmhmeuzq.jpg,00977960627fa.jpg,sunbbxkanhzjgbwyxqs.jpg,00997960627fa.jpg,sunbtpilbhhbmhmeuzq.jpg,,,>,Face,,,,,1,,,,,,,x
7,13,Presentation,0,00772941201fa_sunafpfpiiujzoesnqg.jpg,00543940519fa_sunacepzfrmtkiqonpy.jpg,00772941201fa.jpg,sunafpfpiiujzoesnqg.jpg,00543940519fa.jpg,sunacepzfrmtkiqonpy.jpg,,,>,Face,,,,,1,,,,,,,x
8,13,Presentation,0,00795941205fa_sunagtumacdlmciqamz.jpg,00816941205fa_sunahmhrncocyhsjpxk.jpg,00795941205fa.jpg,sunagtumacdlmciqamz.jpg,00816941205fa.jpg,sunahmhrncocyhsjpxk.jpg,,,>,Face,,,,,1,,,,,,,x
9,13,Presentation,0,00076931230fa_sunaafewhewbxmjiurz.jpg,00902960530fa_sunanaacmmosxrfwmvl.jpg,00076931230fa.jpg,sunaafewhewbxmjiurz.jpg,00902960530fa.jpg,sunanaacmmosxrfwmvl.jpg,,,>,Face,,,,,1,,,,,,,o
10,13,Memory,0,,,,,,,00869940307fa.jpg,,,,,,,,,,,,,,,
11,13,Memory,0,,,,,,,sundbixjudsgeuuehrn.jpg,,,,,,,,,,,,,,,
12,13,Memory,0,,,,,,,sunahmhrncocyhsjpxk.jpg,,,,,,,,,,,,,,,
13,13,Memory,0,,,,,,,00977960627fa.jpg,,,,,,,,,,,,,,,
14,13,Memory,0,,,,,,,00939960627fa.jpg,,,,,,,,,,,,,,,
15,13,Memory,0,,,,,,,00193940928fa.jpg,,,,,,,,,,,,,,,
16,13,Memory,0,,,,,,,00970960627fa.jpg,,,,,,,,,,,,,,,
17,13,Memory,0,,,,,,,sunarceibpcyacbmfga.jpg,,,,,,,,,,,,,,,
18,13,Memory,0,,,,,,,sunaaxjpzcnxligjtjq.jpg,,,,,,,,,,,,,,,
19,13,Memory,0,,,,,,,00902960530fa.jpg,,,,,,,,,,,,,,,
20,13,Memory,0,,,,,,,00730960620fa.jpg,,,,,,,,,,,,,,,
21,13,Memory,0,,,,,,,sunadochqcucscehsgk.jpg,,,,,,,,,,,,,,,
22,13,Memory,0,,,,,,,00772941201fa.jpg,,,,,,,,,,,,,,,
23,13,Memory,0,,,,,,,sunaakvmbftkrgqhjun.jpg,,,,,,,,,,,,,,,
24,13,Memory,0,,,,,,,00589940928fa.jpg,,,,,,,,,,,,,,,
25,13,Memory,0,,,,,,,sunbbxkanhzjgbwyxqs.jpg,,,,,,,,,,,,,,,
26,13,Memory,0,,,,,,,00184940128fa.jpg,,,,,,,,,,,,,,,
27,13,Memory,0,,,,,,,00898960530fa.jpg,,,,,,,,,,,,,,,
28,13,Memory,0,,,,,,,sunaavtbadenwnzeutj.jpg,,,,,,,,,,,,,,,
29,13,Memory,0,,,,,,,sunanaacmmosxrfwmvl.jpg,,,,,,,,,,,,,,,
30,13,Memory,0,,,,,,,sunajoveqhiprwqgoco.jpg,,,,,,,,,,,,,,,
31,13,Memory,0,,,,,,,sunafpfpiiujzoesnqg.jpg,,,,,,,,,,,,,,,
32,13,Memory,0,,,,,,,sunacwggadqsfpovdjv.jpg,,,,,,,,,,,,,,,
33,13,Memory,0,,,,,,,00719960620fa.jpg,,,,,,,,,,,,,,,
34,13,Memory,0,,,,,,,sunaekgzpfilgjxpeyq.jpg,,,,,,,,,,,,,,,
35,13,Memory,0,,,,,,,00816941205fa.jpg,,,,,,,,,,,,,,,
36,13,Memory,0,,,,,,,sunbtpilbhhbmhmeuzq.jpg,,,,,,,,,,,,,,,
37,13,Memory,0,,,,,,,sunamkmeblgteyggink.jpg,,,,,,,,,,,,,,,
38,13,Memory,0,,,,,,,00997960627fa.jpg,,,,,,,,,,,,,,,
39,13,Memory,0,,,,,,,sunadzuvtmtmgupotmf.jpg,,,,,,,,,,,,,,,
40,13,Memory,0,,,,,,,sunagdzlvkqtpnfxfcg.jpg,,,,,,,,,,,,,,,
41,13,Memory,0,,,,,,,00119931230fb.jpg,,,,,,,,,,,,,,,
42,13,Memory,0,,,,,,,00777941205fa.jpg,,,,,,,,,,,,,,,
43,13,Memory,0,,,,,,,sunaafewhewbxmjiurz.jpg,,,,,,,,,,,,,,,
44,13,Memory,0,,,,,,,sunagcinxkccdtrjmlv.jpg,,,,,,,,,,,,,,,
45,13,Memory,0,,,,,,,00670941121fa.jpg,,,,,,,,,,,,,,,
46,13,Memory,0,,,,,,,01207940128fa.jpg,,,,,,,,,,,,,,,
47,13,Memory,0,,,,,,,00779941205fa.jpg,,,,,,,,,,,,,,,
48,13,Memory,0,,,,,,,sunbasypfgzjtomktmu.jpg,,,,,,,,,,,,,,,
49,13,Memory,0,,,,,,,00076931230fa.jpg,,,,,,,,,,,,,,,
50,13,Presentation,1,00996960627fa_sunbpvgllfdejxcpjqp.jpg,00969960627fa_sunbaoizrfijvhpnnjn.jpg,00996960627fa.jpg,sunbpvgllfdejxcpjqp.jpg,00969960627fa.jpg,sunbaoizrfijvhpnnjn.jpg,,,>,Place,,,,,1,,,,,,,x
51,13,Presentation,1,00554940519fa_sunacfdkbsrughwqwtt.jpg,00792941205fa_sunagsiwrmuixqgdimb.jpg,00554940519fa.jpg,sunacfdkbsrughwqwtt.jpg,00792941205fa.jpg,sunagsiwrmuixqgdimb.jpg,,,>,Place,,,,,0,,,,,,,x
52,13,Presentation,1,00149931230fa_sunaauglwmctnkxyird.jpg,00785941205fa_sunaglqunwuycxydmyu.jpg,00149931230fa.jpg,sunaauglwmctnkxyird.jpg,00785941205fa.jpg,sunaglqunwuycxydmyu.jpg,,,>,Place,,,,,1,,,,,,,o
53,13,Presentation,1,00771941205fa_sunafowswglhxcsufpo.jpg,00235940128fb_sunabclssnoeuigtawp.jpg,00771941205fa.jpg,sunafowswglhxcsufpo.jpg,00235940128fb.jpg,sunabclssnoeuigtawp.jpg,,,>,Place,,,,,1,,,,,,,o
54,13,Presentation,1,00778941205fa_sunagcthdfirrcawoic.jpg,00753941201fa_sunafcofuuzebuadceo.jpg,00778941205fa.jpg,sunagcthdfirrcawoic.jpg,00753941201fa.jpg,sunafcofuuzebuadceo.jpg,,,>,Place,,,,,1,,,,,,,o
55,13,Presentation,1,00768941205fa_sunafkmnlytenlsywia.jpg,00314940422fa_sunabwmcbaxwioksdgw.jpg,00768941205fa.jpg,sunafkmnlytenlsywia.jpg,00314940422fa.jpg,sunabwmcbaxwioksdgw.jpg,,,>,Place,,,,,0,,,,,,,x
56,13,Presentation,1,00210940128fb_sunabanoxjtqxamkucc.jpg,00986960627fa_sunbgzjryivyczuvkvm.jpg,00210940128fb.jpg,sunabanoxjtqxamkucc.jpg,00986960627fa.jpg,sunbgzjryivyczuvkvm.jpg,,,>,Place,,,,,1,,,,,,,x
57,13,Presentation,1,00634940928fa_sunadcphrizvfpljiqt.jpg,00999960627fa_sunbvbrvgbpanfrawft.jpg,00634940928fa.jpg,sunadcphrizvfpljiqt.jpg,00999960627fa.jpg,sunbvbrvgbpanfrawft.jpg,,,>,Place,,,,,1,,,,,,,o
58,13,Presentation,1,00102931230fa_sunaajspcoepticvplv.jpg,00825940307fa_sunahrltmuwbiehihpe.jpg,00102931230fa.jpg,sunaajspcoepticvplv.jpg,00825940307fa.jpg,sunahrltmuwbiehihpe.jpg,,,>,Place,,,,,1,,,,,,,x
59,13,Presentation,1,00123931230fb_sunaalcrrdbjgdztbiz.jpg,00762941201fa_sunafgzgbisbopcyslr.jpg,00123931230fb.jpg,sunaalcrrdbjgdztbiz.jpg,00762941201fa.jpg,sunafgzgbisbopcyslr.jpg,,,>,Place,,,,,1,,,,,,,o
60,13,Memory,1,,,,,,,00662941121fa.jpg,,,,,,,,,,,,,,,
61,13,Memory,1,,,,,,,00889960530fa.jpg,,,,,,,,,,,,,,,
62,13,Memory,1,,,,,,,sunbvbrvgbpanfrawft.jpg,,,,,,,,,,,,,,,
63,13,Memory,1,,,,,,,00768941205fa.jpg,,,,,,,,,,,,,,,
64,13,Memory,1,,,,,,,00922960627fa.jpg,,,,,,,,,,,,,,,
65,13,Memory,1,,,,,,,00753941201fa.jpg,,,,,,,,,,,,,,,
66,13,Memory,1,,,,,,,00634940928fa.jpg,,,,,,,,,,,,,,,
67,13,Memory,1,,,,,,,00727941205fa.jpg,,,,,,,,,,,,,,,
68,13,Memory,1,,,,,,,sunagrmyoovzukhxmlo.jpg,,,,,,,,,,,,,,,
69,13,Memory,1,,,,,,,sunaeisnjeetzmkbuad.jpg,,,,,,,,,,,,,,,
70,13,Memory,1,,,,,,,00554940519fa.jpg,,,,,,,,,,,,,,,
71,13,Memory,1,,,,,,,00210940128fb.jpg,,,,,,,,,,,,,,,
72,13,Memory,1,,,,,,,sunaletopenvvozhpxc.jpg,,,,,,,,,,,,,,,
73,13,Memory,1,,,,,,,sunaglqunwuycxydmyu.jpg,,,,,,,,,,,,,,,
74,13,Memory,1,,,,,,,sunaeuvjbmdpknaqqaj.jpg,,,,,,,,,,,,,,,
75,13,Memory,1,,,,,,,sunagsiwrmuixqgdimb.jpg,,,,,,,,,,,,,,,
76,13,Memory,1,,,,,,,sunaalcrrdbjgdztbiz.jpg,,,,,,,,,,,,,,,
77,13,Memory,1,,,,,,,00792941205fa.jpg,,,,,,,,,,,,,,,
78,13,Memory,1,,,,,,,00482940519fa.jpg,,,,,,,,,,,,,,,
79,13,Memory,1,,,,,,,sunahrltmuwbiehihpe.jpg,,,,,,,,,,,,,,,
80,13,Memory,1,,,,,,,00834940307fa.jpg,,,,,,,,,,,,,,,
81,13,Memory,1,,,,,,,sunafkmnlytenlsywia.jpg,,,,,,,,,,,,,,,
82,13,Memory,1,,,,,,,00123931230fb.jpg,,,,,,,,,,,,,,,
83,13,Memory,1,,,,,,,00749941201fa.jpg,,,,,,,,,,,,,,,
84,13,Memory,1,,,,,,,00785941205fa.jpg,,,,,,,,,,,,,,,
85,13,Memory,1,,,,,,,sunaauhozyxzeeqstxi.jpg,,,,,,,,,,,,,,,
86,13,Memory,1,,,,,,,00153931230fa.jpg,,,,,,,,,,,,,,,
87,13,Memory,1,,,,,,,sunacjnahdmqfnjfwqx.jpg,,,,,,,,,,,,,,,
88,13,Memory,1,,,,,,,sunadkazmlajmohnwfl.jpg,,,,,,,,,,,,,,,
89,13,Memory,1,,,,,,,sunapqkyghktgtosuuk.jpg,,,,,,,,,,,,,,,
90,13,Memory,1,,,,,,,sunadcphrizvfpljiqt.jpg,,,,,,,,,,,,,,,
91,13,Memory,1,,,,,,,00999960627fa.jpg,,,,,,,,,,,,,,,
92,13,Memory,1,,,,,,,sunabanoxjtqxamkucc.jpg,,,,,,,,,,,,,,,
93,13,Memory,1,,,,,,,00562941031fa.jpg,,,,,,,,,,,,,,,
94,13,Memory,1,,,,,,,sunabyfxcxhdebvdyfd.jpg,,,,,,,,,,,,,,,
95,13,Memory,1,,,,,,,00825940307fa.jpg,,,,,,,,,,,,,,,
96,13,Memory,1,,,,,,,sunaibnpvhkdpdnzcnz.jpg,,,,,,,,,,,,,,,
97,13,Memory,1,,,,,,,sunacfdkbsrughwqwtt.jpg,,,,,,,,,,,,,,,
98,13,Memory,1,,,,,,,sunafcofuuzebuadceo.jpg,,,,,,,,,,,,,,,
99,13,Memory,1,,,,,,,00791941205fa.jpg,,,,,,,,,,,,,,,
100,13,Presentation,2,00973960627fa_sunbbgtoeuzierkkajt.jpg,00073931230fa_sunaafbmtoniaasysgu.jpg,00973960627fa.jpg,sunbbgtoeuzierkkajt.jpg,00073931230fa.jpg,sunaafbmtoniaasysgu.jpg,,,<,Face,,,,,1,,,,,,,x
101,13,Presentation,2,00127931230fa_sunaampvucecsfbdafn.jpg,00966960627fa_sunaygrtwrwfezqjizr.jpg,00127931230fa.jpg,sunaampvucecsfbdafn.jpg,00966960627fa.jpg,sunaygrtwrwfezqjizr.jpg,,,<,Face,,,,,1,,,,,,,o
102,13,Presentation,2,00239940128fa_sunabctlikybqabezjv.jpg,00598941031fa_sunacxtcahkymosigud.jpg,00239940128fa.jpg,sunabctlikybqabezjv.jpg,00598941031fa.jpg,sunacxtcahkymosigud.jpg,,,<,Face,,,,,1,,,,,,,o
103,13,Presentation,2,00681941121fa_sunadqmjrhfjyuzyvdd.jpg,00071941031fa_sunaaexqbtdswxrqjvz.jpg,00681941121fa.jpg,sunadqmjrhfjyuzyvdd.jpg,00071941031fa.jpg,sunaaexqbtdswxrqjvz.jpg,,,<,Face,,,,,1,,,,,,,o
104,13,Presentation,2,00208940128fa_sunaazzyhbvqjpmazjq.jpg,00860940307fa_sunaizeyhvjzknwjudw.jpg,00208940128fa.jpg,sunaazzyhbvqjpmazjq.jpg,00860940307fa.jpg,sunaizeyhvjzknwjudw.jpg,,,<,Face,,,,,1,,,,,,,o
105,13,Presentation,2,00877960530fa_sunajxpkuhbizeveguy.jpg,00194940128fb_sunaayehfdqcyxggsej.jpg,00877960530fa.jpg,sunajxpkuhbizeveguy.jpg,00194940128fb.jpg,sunaayehfdqcyxggsej.jpg,,,<,Face,,,,,1,,,,,,,x
106,13,Presentation,2,00483940519fa_sunabyvpwkgsjtijdwj.jpg,00131931230fb_sunaangbuylfvckqqoo.jpg,00483940519fa.jpg,sunabyvpwkgsjtijdwj.jpg,00131931230fb.jpg,sunaangbuylfvckqqoo.jpg,,,<,Face,,,,,1,,,,,,,x
107,13,Presentation,2,00776941205fa_sunafxokyavhgptyfye.jpg,00741941201fa_sunaemcowdozyphwknd.jpg,00776941205fa.jpg,sunafxokyavhgptyfye.jpg,00741941201fa.jpg,sunaemcowdozyphwknd.jpg,,,<,Face,,,,,1,,,,,,,x
108,13,Presentation,2,00829940307fa_sunahwgbqkqcrwprgvh.jpg,00866940307fa_sunajbwkywmsqkldfml.jpg,00829940307fa.jpg,sunahwgbqkqcrwprgvh.jpg,00866940307fa.jpg,sunajbwkywmsqkldfml.jpg,,,<,Face,,,,,1,,,,,,,x
109,13,Presentation,2,00505960627fa_sunabzuqsrgcsonqlkz.jpg,00935960627fa_sunaqbmgkgqucajzrkp.jpg,00505960627fa.jpg,sunabzuqsrgcsonqlkz.jpg,00935960627fa.jpg,sunaqbmgkgqucajzrkp.jpg,,,<,Face,,,,,1,,,,,,,o
110,13,Memory,2,,,,,,,00866940307fa.jpg,,,,,,,,,,,,,,,
111,13,Memory,2,,,,,,,00305940422fa.jpg,,,,,,,,,,,,,,,
112,13,Memory,2,,,,,,,00131931230fb.jpg,,,,,,,,,,,,,,,
113,13,Memory,2,,,,,,,sunantryfbloeaomfta.jpg,,,,,,,,,,,,,,,
114,13,Memory,2,,,,,,,00239940128fa.jpg,,,,,,,,,,,,,,,
115,13,Memory,2,,,,,,,sunajtrfunvzdfticna.jpg,,,,,,,,,,,,,,,
116,13,Memory,2,,,,,,,sunabctlikybqabezjv.jpg,,,,,,,,,,,,,,,
117,13,Memory,2,,,,,,,sunabrjdpmoedcdjbpo.jpg,,,,,,,,,,,,,,,
118,13,Memory,2,,,,,,,00782941205fa.jpg,,,,,,,,,,,,,,,
119,13,Memory,2,,,,,,,sunabzuqsrgcsonqlkz.jpg,,,,,,,,,,,,,,,
120,13,Memory,2,,,,,,,00208940128fa.jpg,,,,,,,,,,,,,,,
121,13,Memory,2,,,,,,,sunabckqabszusgcykj.jpg,,,,,,,,,,,,,,,
122,13,Memory,2,,,,,,,sunajbwkywmsqkldfml.jpg,,,,,,,,,,,,,,,
123,13,Memory,2,,,,,,,sunaemcowdozyphwknd.jpg,,,,,,,,,,,,,,,
124,13,Memory,2,,,,,,,00741941201fa.jpg,,,,,,,,,,,,,,,
125,13,Memory,2,,,,,,,sunaizeyhvjzknwjudw.jpg,,,,,,,,,,,,,,,
126,13,Memory,2,,,,,,,00829940307fa.jpg,,,,,,,,,,,,,,,
127,13,Memory,2,,,,,,,00906960530fa.jpg,,,,,,,,,,,,,,,
128,13,Memory,2,,,,,,,00227940128fa.jpg,,,,,,,,,,,,,,,
129,13,Memory,2,,,,,,,00966960627fa.jpg,,,,,,,,,,,,,,,
130,13,Memory,2,,,,,,,sunaaeplwsfslcbtojr.jpg,,,,,,,,,,,,,,,
131,13,Memory,2,,,,,,,sunaygrtwrwfezqjizr.jpg,,,,,,,,,,,,,,,
132,13,Memory,2,,,,,,,00483940519fa.jpg,,,,,,,,,,,,,,,
133,13,Memory,2,,,,,,,00292940422fb.jpg,,,,,,,,,,,,,,,
134,13,Memory,2,,,,,,,00120931230fa.jpg,,,,,,,,,,,,,,,
135,13,Memory,2,,,,,,,sunabyvpwkgsjtijdwj.jpg,,,,,,,,,,,,,,,
136,13,Memory,2,,,,,,,00874940307fa.jpg,,,,,,,,,,,,,,,
137,13,Memory,2,,,,,,,sunaijsqpvodplbwxkf.jpg,,,,,,,,,,,,,,,
138,13,Memory,2,,,,,,,sunaatpeezlljqaxlhj.jpg,,,,,,,,,,,,,,,
139,13,Memory,2,,,,,,,sunagfvluwixdsozaql.jpg,,,,,,,,,,,,,,,
140,13,Memory,2,,,,,,,sunaangbuylfvckqqoo.jpg,,,,,,,,,,,,,,,
141,13,Memory,2,,,,,,,00146960620fb.jpg,,,,,,,,,,,,,,,
142,13,Memory,2,,,,,,,00860940307fa.jpg,,,,,,,,,,,,,,,
143,13,Memory,2,,,,,,,sunabtrnbvpppgczjim.jpg,,,,,,,,,,,,,,,
144,13,Memory,2,,,,,,,sunaakxgygjfqrzpyoz.jpg,,,,,,,,,,,,,,,
145,13,Memory,2,,,,,,,sunaazzyhbvqjpmazjq.jpg,,,,,,,,,,,,,,,
146,13,Memory,2,,,,,,,00835940307fa.jpg,,,,,,,,,,,,,,,
147,13,Memory,2,,,,,,,00505960627fa.jpg,,,,,,,,,,,,,,,
148,13,Memory,2,,,,,,,sunahwgbqkqcrwprgvh.jpg,,,,,,,,,,,,,,,
149,13,Memory,2,,,,,,,00070940307fa.jpg,,,,,,,,,,,,,,,
150,13,Presentation,3,00276940422fa_sunabmytpyhsgigllxu.jpg,00763941205fa_sunafhmnhsdurlvddpw.jpg,00276940422fa.jpg,sunabmytpyhsgigllxu.jpg,00763941205fa.jpg,sunafhmnhsdurlvddpw.jpg,,,>,Place,,,,,0,,,,,,,x
151,13,Presentation,3,00796941205fa_sunaguchqqnrtodtezq.jpg,00891960530fa_sunalkiibhqpxfamlll.jpg,00796941205fa.jpg,sunaguchqqnrtodtezq.jpg,00891960530fa.jpg,sunalkiibhqpxfamlll.jpg,,,>,Place,,,,,1,,,,,,,x
152,13,Presentation,3,00862940307fa_sunaizgnnplsvajzhkc.jpg,00876960620fa_sunajwqkfsykceonyig.jpg,00862940307fa.jpg,sunaizgnnplsvajzhkc.jpg,00876960620fa.jpg,sunajwqkfsykceonyig.jpg,,,>,Place,,,,,1,,,,,,,o
153,13,Presentation,3,01002960627fb_sunbwaafjdebjzttuvq.jpg,00910960530fa_sunaofikylqtxphvdem.jpg,01002960627fb.jpg,sunbwaafjdebjzttuvq.jpg,00910960530fa.jpg,sunaofikylqtxphvdem.jpg,,,>,Place,,,,,1,,,,,,,x
154,13,Presentation,3,00894960620fa_sunalqmfgeadpqsyzpd.jpg,00752960620fa_sunafbwnojpqeyzssoe.jpg,00894960620fa.jpg,sunalqmfgeadpqsyzpd.jpg,00752960620fa.jpg,sunafbwnojpqeyzssoe.jpg,,,>,Place,,,,,1,,,,,,,x
155,13,Presentation,3,00809960620fa_sunahbvlpavurqoxdeq.jpg,00719941201fa_sunadvithllcgmfxsrn.jpg,00809960620fa.jpg,sunahbvlpavurqoxdeq.jpg,00719941201fa.jpg,sunadvithllcgmfxsrn.jpg,,,>,Place,,,,,1,,,,,,,x
156,13,Presentation,3,00794960620fa_sunagtqhhwxjeuxdebe.jpg,00116931230fa_sunaakqepfoeqomfgxf.jpg,00794960620fa.jpg,sunagtqhhwxjeuxdebe.jpg,00116931230fa.jpg,sunaakqepfoeqomfgxf.jpg,,,>,Place,,,,,1,,,,,,,o
157,13,Presentation,3,00859940307fa_sunaiycurtqsfkvcaso.jpg,00854940307fa_sunaiwduelojtwaqeyh.jpg,00859940307fa.jpg,sunaiycurtqsfkvcaso.jpg,00854940307fa.jpg,sunaiwduelojtwaqeyh.jpg,,,>,Place,,,,,1,,,,,,,o
158,13,Presentation,3,00864940307fa_sunajawzbrlrwafowen.jpg,00773941201fa_sunafvcflzhlqloapyo.jpg,00864940307fa.jpg,sunajawzbrlrwafowen.jpg,00773941201fa.jpg,sunafvcflzhlqloapyo.jpg,,,>,Place,,,,,1,,,,,,,x
159,13,Presentation,3,01007960627fa_sunbxarcshsnqsefemx.jpg,00985960627fa_sunbgklxeqjhdbyfhhy.jpg,01007960627fa.jpg,sunbxarcshsnqsefemx.jpg,00985960627fa.jpg,sunbgklxeqjhdbyfhhy.jpg,,,>,Place,,,,,1,,,,,,,o
160,13,Memory,3,,,,,,,sunbxarcshsnqsefemx.jpg,,,,,,,,,,,,,,,
161,13,Memory,3,,,,,,,00882960530fa.jpg,,,,,,,,,,,,,,,
162,13,Memory,3,,,,,,,01011960627fa.jpg,,,,,,,,,,,,,,,
163,13,Memory,3,,,,,,,sunagtqhhwxjeuxdebe.jpg,,,,,,,,,,,,,,,
164,13,Memory,3,,,,,,,sunadakkdovnuzlycvp.jpg,,,,,,,,,,,,,,,
165,13,Memory,3,,,,,,,00571940928fa.jpg,,,,,,,,,,,,,,,
166,13,Memory,3,,,,,,,00809960620fa.jpg,,,,,,,,,,,,,,,
167,13,Memory,3,,,,,,,00854940307fa.jpg,,,,,,,,,,,,,,,
168,13,Memory,3,,,,,,,sunafhmnhsdurlvddpw.jpg,,,,,,,,,,,,,,,
169,13,Memory,3,,,,,,,01007960627fa.jpg,,,,,,,,,,,,,,,
170,13,Memory,3,,,,,,,sundahdxwmcdluscvot.jpg,,,,,,,,,,,,,,,
171,13,Memory,3,,,,,,,00794960620fa.jpg,,,,,,,,,,,,,,,
172,13,Memory,3,,,,,,,sunajrujcsdxmfbssmc.jpg,,,,,,,,,,,,,,,
173,13,Memory,3,,,,,,,00763941205fa.jpg,,,,,,,,,,,,,,,
174,13,Memory,3,,,,,,,sunahbvlpavurqoxdeq.jpg,,,,,,,,,,,,,,,
175,13,Memory,3,,,,,,,00876960620fa.jpg,,,,,,,,,,,,,,,
176,13,Memory,3,,,,,,,00742941201fa.jpg,,,,,,,,,,,,,,,
177,13,Memory,3,,,,,,,00116931230fa.jpg,,,,,,,,,,,,,,,
178,13,Memory,3,,,,,,,sunaczwgyukesaajxnx.jpg,,,,,,,,,,,,,,,
179,13,Memory,3,,,,,,,00630941031fa.jpg,,,,,,,,,,,,,,,
180,13,Memory,3,,,,,,,sunaofikylqtxphvdem.jpg,,,,,,,,,,,,,,,
181,13,Memory,3,,,,,,,sunaenwuebvlpdmntju.jpg,,,,,,,,,,,,,,,
182,13,Memory,3,,,,,,,sunaivflshbyfrfzhqb.jpg,,,,,,,,,,,,,,,
183,13,Memory,3,,,,,,,00910960530fa.jpg,,,,,,,,,,,,,,,
184,13,Memory,3,,,,,,,sunabmytpyhsgigllxu.jpg,,,,,,,,,,,,,,,
185,13,Memory,3,,,,,,,00080931230fb.jpg,,,,,,,,,,,,,,,
186,13,Memory,3,,,,,,,00851940307fa.jpg,,,,,,,,,,,,,,,
187,13,Memory,3,,,,,,,sunaakqepfoeqomfgxf.jpg,,,,,,,,,,,,,,,
188,13,Memory,3,,,,,,,sunaknlirqjqiwbbeeg.jpg,,,,,,,,,,,,,,,
189,13,Memory,3,,,,,,,sunaiwduelojtwaqeyh.jpg,,,,,,,,,,,,,,,
190,13,Memory,3,,,,,,,sunaafjszryxyavjzln.jpg,,,,,,,,,,,,,,,
191,13,Memory,3,,,,,,,sunajwqkfsykceonyig.jpg,,,,,,,,,,,,,,,
192,13,Memory,3,,,,,,,00630940928fa.jpg,,,,,,,,,,,,,,,
193,13,Memory,3,,,,,,,00864940307fa.jpg,,,,,,,,,,,,,,,
194,13,Memory,3,,,,,,,sunajawzbrlrwafowen.jpg,,,,,,,,,,,,,,,
195,13,Memory,3,,,,,,,00276940422fa.jpg,,,,,,,,,,,,,,,
196,13,Memory,3,,,,,,,sunacuatpqpqhyjhjqk.jpg,,,,,,,,,,,,,,,
197,13,Memory,3,,,,,,,00967960627fa.jpg,,,,,,,,,,,,,,,
198,13,Memory,3,,,,,,,sunbaejotfklekvpxcz.jpg,,,,,,,,,,,,,,,
199,13,Memory,3,,,,,,,00871940307.jpg,,,,,,,,,,,,,,,
200,13,Presentation,4,00242940128fa_sunabcuurugvxwparpk.jpg,00214940128fa_sunabbafjowbzcvbucc.jpg,00242940128fa.jpg,sunabcuurugvxwparpk.jpg,00214940128fa.jpg,sunabbafjowbzcvbucc.jpg,,,<,Face,,,,,1,,,,,,,o
201,13,Presentation,4,00931960627fa_sunaptrqvaooxfvktvw.jpg,00787960620fa_sunagoufulkpsxrmklt.jpg,00931960627fa.jpg,sunaptrqvaooxfvktvw.jpg,00787960620fa.jpg,sunagoufulkpsxrmklt.jpg,,,<,Face,,,,,1,,,,,,,o
202,13,Presentation,4,00095931230fa_sunaahzooisqkwlxwoz.jpg,00878960530fa_sunakgbnzxmfohgehnu.jpg,00095931230fa.jpg,sunaahzooisqkwlxwoz.jpg,00878960530fa.jpg,sunakgbnzxmfohgehnu.jpg,,,<,Face,,,,,1,,,,,,,x
203,13,Presentation,4,00887960530_sunalcrtwiycqobgelp.jpg,00787941205fa_sunagmwxxwymwojbvgi.jpg,00887960530.jpg,sunalcrtwiycqobgelp.jpg,00787941205fa.jpg,sunagmwxxwymwojbvgi.jpg,,,<,Face,,,,,1,,,,,,,x
204,13,Presentation,4,00921960627fa_sunapqkpqdfvxlbqwyo.jpg,00481940519fa_sunabxsuqbleluwczoy.jpg,00921960627fa.jpg,sunapqkpqdfvxlbqwyo.jpg,00481940519fa.jpg,sunabxsuqbleluwczoy.jpg,,,<,Face,,,,,1,,,,,,,o
205,13,Presentation,4,00280940422fb_sunabohxbskznglnrhv.jpg,00065931230fb_sunaaemixhfquhnxxlm.jpg,00280940422fb.jpg,sunabohxbskznglnrhv.jpg,00065931230fb.jpg,sunaaemixhfquhnxxlm.jpg,,,<,Face,,,,,1,,,,,,,x
206,13,Presentation,4,00507940519fa_sunacacflqoyxhsqzhe.jpg,00828940307fa_sunahuynahneraqftyz.jpg,00507940519fa.jpg,sunacacflqoyxhsqzhe.jpg,00828940307fa.jpg,sunahuynahneraqftyz.jpg,,,<,Face,,,,,1,,,,,,,x
207,13,Presentation,4,00559940519fa_sunacjkmnpawfzbyvae.jpg,00124931230fa_sunaalhlvzmjmitybdn.jpg,00559940519fa.jpg,sunacjkmnpawfzbyvae.jpg,00124931230fa.jpg,sunaalhlvzmjmitybdn.jpg,,,<,Face,,,,,1,,,,,,,x
208,13,Presentation,4,00743941201fa_sunaeoghzrjarigmwua.jpg,00983960627fa_sunbfyvfqiimvdaxlqn.jpg,00743941201fa.jpg,sunaeoghzrjarigmwua.jpg,00983960627fa.jpg,sunbfyvfqiimvdaxlqn.jpg,,,<,Face,,,,,1,,,,,,,x
209,13,Presentation,4,00908960530fa_sunanwjjyqqwzqrqagd.jpg,00789960620fa_sunagpancjmxqfazssf.jpg,00908960530fa.jpg,sunanwjjyqqwzqrqagd.jpg,00789960620fa.jpg,sunagpancjmxqfazssf.jpg,,,<,Face,,,,,1,,,,,,,o
210,13,Memory,4,,,,,,,sunbwyuesflwdpqtgoy.jpg,,,,,,,,,,,,,,,
211,13,Memory,4,,,,,,,00743941201fa.jpg,,,,,,,,,,,,,,,
212,13,Memory,4,,,,,,,00095931230fa.jpg,,,,,,,,,,,,,,,
213,13,Memory,4,,,,,,,sunagmwxxwymwojbvgi.jpg,,,,,,,,,,,,,,,
214,13,Memory,4,,,,,,,sunbfyvfqiimvdaxlqn.jpg,,,,,,,,,,,,,,,
215,13,Memory,4,,,,,,,sunaeoghzrjarigmwua.jpg,,,,,,,,,,,,,,,
216,13,Memory,4,,,,,,,sunabohxbskznglnrhv.jpg,,,,,,,,,,,,,,,
217,13,Memory,4,,,,,,,sunabaergayifsgacxt.jpg,,,,,,,,,,,,,,,
218,13,Memory,4,,,,,,,00124931230fa.jpg,,,,,,,,,,,,,,,
219,13,Memory,4,,,,,,,00787960620fa.jpg,,,,,,,,,,,,,,,
220,13,Memory,4,,,,,,,sunagoufulkpsxrmklt.jpg,,,,,,,,,,,,,,,
221,13,Memory,4,,,,,,,00242940128fa.jpg,,,,,,,,,,,,,,,
222,13,Memory,4,,,,,,,00636941031fa.jpg,,,,,,,,,,,,,,,
223,13,Memory,4,,,,,,,sunaydywdmvlfddbxbk.jpg,,,,,,,,,,,,,,,
224,13,Memory,4,,,,,,,sunacacflqoyxhsqzhe.jpg,,,,,,,,,,,,,,,
225,13,Memory,4,,,,,,,00958960627fa.jpg,,,,,,,,,,,,,,,
226,13,Memory,4,,,,,,,sunaaemixhfquhnxxlm.jpg,,,,,,,,,,,,,,,
227,13,Memory,4,,,,,,,00507940519fa.jpg,,,,,,,,,,,,,,,
228,13,Memory,4,,,,,,,sunaddtdkycxbqlpfqa.jpg,,,,,,,,,,,,,,,
229,13,Memory,4,,,,,,,00280940422fb.jpg,,,,,,,,,,,,,,,
230,13,Memory,4,,,,,,,00909960530.jpg,,,,,,,,,,,,,,,
231,13,Memory,4,,,,,,,sunaahzooisqkwlxwoz.jpg,,,,,,,,,,,,,,,
232,13,Memory,4,,,,,,,sunabtlfmiwtljmoues.jpg,,,,,,,,,,,,,,,
233,13,Memory,4,,,,,,,sunabcuurugvxwparpk.jpg,,,,,,,,,,,,,,,
234,13,Memory,4,,,,,,,00302940422fa.jpg,,,,,,,,,,,,,,,
235,13,Memory,4,,,,,,,01005960627fa.jpg,,,,,,,,,,,,,,,
236,13,Memory,4,,,,,,,00965960627fa.jpg,,,,,,,,,,,,,,,
237,13,Memory,4,,,,,,,sunagjzcrjvmxzqzljx.jpg,,,,,,,,,,,,,,,
238,13,Memory,4,,,,,,,sunaobtizabegtwfwul.jpg,,,,,,,,,,,,,,,
239,13,Memory,4,,,,,,,sunaalhlvzmjmitybdn.jpg,,,,,,,,,,,,,,,
240,13,Memory,4,,,,,,,00077931230fb.jpg,,,,,,,,,,,,,,,
241,13,Memory,4,,,,,,,00761960627fa.jpg,,,,,,,,,,,,,,,
242,13,Memory,4,,,,,,,00065931230fb.jpg,,,,,,,,,,,,,,,
243,13,Memory,4,,,,,,,00787941205fa.jpg,,,,,,,,,,,,,,,
244,13,Memory,4,,,,,,,00983960627fa.jpg,,,,,,,,,,,,,,,
245,13,Memory,4,,,,,,,sunavspxmxubqaeidjt.jpg,,,,,,,,,,,,,,,
246,13,Memory,4,,,,,,,sunafgdqbclkwfocdhg.jpg,,,,,,,,,,,,,,,
247,13,Memory,4,,,,,,,sunaafgqutfaishsxyu.jpg,,,,,,,,,,,,,,,
248,13,Memory,4,,,,,,,00209940128fb.jpg,,,,,,,,,,,,,,,
249,13,Memory,4,,,,,,,00784941205fb.jpg,,,,,,,,,,,,,,,
250,13,Presentation,5,00805941205fa_sunagwzdbtlixdhgolm.jpg,00807941205fa_sunahawfngukizslzsd.jpg,00805941205fa.jpg,sunagwzdbtlixdhgolm.jpg,00807941205fa.jpg,sunahawfngukizslzsd.jpg,,,<,Place,,,,,1,,,,,,,o
251,13,Presentation,5,00265940128fb_sunabkmdplkdbvxriff.jpg,00647941031fa_sunadflbrkckmepztql.jpg,00265940128fb.jpg,sunabkmdplkdbvxriff.jpg,00647941031fa.jpg,sunadflbrkckmepztql.jpg,,,<,Place,,,,,1,,,,,,,o
252,13,Presentation,5,00847940307fa_sunaivdjruhkrfywfed.jpg,00747941201fa_sunaeutbrtswvsozxyk.jpg,00847940307fa.jpg,sunaivdjruhkrfywfed.jpg,00747941201fa.jpg,sunaeutbrtswvsozxyk.jpg,,,<,Place,,,,,1,,,,,,,x
253,13,Presentation,5,00532960627fa_sunaccdtpgenvcbcbcf.jpg,00061931230fb_sunaaekxzjzrfgtkwjf.jpg,00532960627fa.jpg,sunaccdtpgenvcbcbcf.jpg,00061931230fb.jpg,sunaaekxzjzrfgtkwjf.jpg,,,<,Place,,,,,0,,,,,,,o
254,13,Presentation,5,00097931230fa_sunaajayojuslbbnneg.jpg,00479940519fa_sunabxsbfwjccqxxzxq.jpg,00097931230fa.jpg,sunaajayojuslbbnneg.jpg,00479940519fa.jpg,sunabxsbfwjccqxxzxq.jpg,,,<,Place,,,,,1,,,,,,,o
255,13,Presentation,5,00728941205fa_sunaejnvnpltdmhbcsi.jpg,00901960530fa_sunammbnoambmhdxdwd.jpg,00728941205fa.jpg,sunaejnvnpltdmhbcsi.jpg,00901960530fa.jpg,sunammbnoambmhdxdwd.jpg,,,<,Place,,,,,1,,,,,,,x
256,13,Presentation,5,00976960627fa_sunbbhqyyzmsxhsbjmp.jpg,00775941205fa_sunafvwfsmqkjrutjta.jpg,00976960627fa.jpg,sunbbhqyyzmsxhsbjmp.jpg,00775941205fa.jpg,sunafvwfsmqkjrutjta.jpg,,,<,Place,,,,,1,,,,,,,o
257,13,Presentation,5,00098931230fa_sunaajpqmulidejvjsr.jpg,00262940128fa_sunabizydfotqddlnjp.jpg,00098931230fa.jpg,sunaajpqmulidejvjsr.jpg,00262940128fa.jpg,sunabizydfotqddlnjp.jpg,,,<,Place,,,,,1,,,,,,,x
258,13,Presentation,5,00801941205fa_sunagvprlbprarvgdvj.jpg,00811960530fa_sunahedfrhtcwpneund.jpg,00801941205fa.jpg,sunagvprlbprarvgdvj.jpg,00811960530fa.jpg,sunahedfrhtcwpneund.jpg,,,<,Place,,,,,1,,,,,,,o
259,13,Presentation,5,00700941121fa_sunadsgmtznewzyasnk.jpg,00096931230fa_sunaaiqiqcggrskoqgy.jpg,00700941121fa.jpg,sunadsgmtznewzyasnk.jpg,00096931230fa.jpg,sunaaiqiqcggrskoqgy.jpg,,,<,Place,,,,,1,,,,,,,o
260,13,Memory,5,,,,,,,00532960627fa.jpg,,,,,,,,,,,,,,,
261,13,Memory,5,,,,,,,00880960530fa.jpg,,,,,,,,,,,,,,,
262,13,Memory,5,,,,,,,sunaqsolmfydodnakub.jpg,,,,,,,,,,,,,,,
263,13,Memory,5,,,,,,,sunaaiqiqcggrskoqgy.jpg,,,,,,,,,,,,,,,
264,13,Memory,5,,,,,,,00937960627fa.jpg,,,,,,,,,,,,,,,
265,13,Memory,5,,,,,,,sunaawsdjisukbbginm.jpg,,,,,,,,,,,,,,,
266,13,Memory,5,,,,,,,00265940128fb.jpg,,,,,,,,,,,,,,,
267,13,Memory,5,,,,,,,00191940128fb.jpg,,,,,,,,,,,,,,,
268,13,Memory,5,,,,,,,sunabkmdplkdbvxriff.jpg,,,,,,,,,,,,,,,
269,13,Memory,5,,,,,,,sunaccdtpgenvcbcbcf.jpg,,,,,,,,,,,,,,,
270,13,Memory,5,,,,,,,00576941031fa.jpg,,,,,,,,,,,,,,,
271,13,Memory,5,,,,,,,sunagvprlbprarvgdvj.jpg,,,,,,,,,,,,,,,
272,13,Memory,5,,,,,,,00900960530fa.jpg,,,,,,,,,,,,,,,
273,13,Memory,5,,,,,,,00811960530fa.jpg,,,,,,,,,,,,,,,
274,13,Memory,5,,,,,,,sunamlotskmmsjeogby.jpg,,,,,,,,,,,,,,,
275,13,Memory,5,,,,,,,00647941031fa.jpg,,,,,,,,,,,,,,,
276,13,Memory,5,,,,,,,00700941121fa.jpg,,,,,,,,,,,,,,,
277,13,Memory,5,,,,,,,00479940519fa.jpg,,,,,,,,,,,,,,,
278,13,Memory,5,,,,,,,sunadflbrkckmepztql.jpg,,,,,,,,,,,,,,,
279,13,Memory,5,,,,,,,sunaapllqyqlykszopd.jpg,,,,,,,,,,,,,,,
280,13,Memory,5,,,,,,,sunahedfrhtcwpneund.jpg,,,,,,,,,,,,,,,
281,13,Memory,5,,,,,,,sunacvjlsylseoghjup.jpg,,,,,,,,,,,,,,,
282,13,Memory,5,,,,,,,sunaeomlfaabhpswasy.jpg,,,,,,,,,,,,,,,
283,13,Memory,5,,,,,,,00805941205fa.jpg,,,,,,,,,,,,,,,
284,13,Memory,5,,,,,,,sunagwzdbtlixdhgolm.jpg,,,,,,,,,,,,,,,
285,13,Memory,5,,,,,,,00140931230fb.jpg,,,,,,,,,,,,,,,
286,13,Memory,5,,,,,,,00061931230fb.jpg,,,,,,,,,,,,,,,
287,13,Memory,5,,,,,,,00744941201fa.jpg,,,,,,,,,,,,,,,
288,13,Memory,5,,,,,,,00801941205fa.jpg,,,,,,,,,,,,,,,
289,13,Memory,5,,,,,,,sunabueyoajufbkraki.jpg,,,,,,,,,,,,,,,
290,13,Memory,5,,,,,,,sunakmnfgklupjijsgf.jpg,,,,,,,,,,,,,,,
291,13,Memory,5,,,,,,,00096931230fa.jpg,,,,,,,,,,,,,,,
292,13,Memory,5,,,,,,,sunadsgmtznewzyasnk.jpg,,,,,,,,,,,,,,,
293,13,Memory,5,,,,,,,sunabxsbfwjccqxxzxq.jpg,,,,,,,,,,,,,,,
294,13,Memory,5,,,,,,,sunaaekxzjzrfgtkwjf.jpg,,,,,,,,,,,,,,,
295,13,Memory,5,,,,,,,sunabjzyxcjnmztdonj.jpg,,,,,,,,,,,,,,,
296,13,Memory,5,,,,,,,sunadikxpvqeabxrvvc.jpg,,,,,,,,,,,,,,,
297,13,Memory,5,,,,,,,00650941031fa.jpg,,,,,,,,,,,,,,,
298,13,Memory,5,,,,,,,00264940128fb.jpg,,,,,,,,,,,,,,,
299,13,Memory,5,,,,,,,00306940422fa.jpg,,,,,,,,,,,,,,,
300,13,Presentation,6,00154931230fa_sunaauueuhhvklldjik.jpg,00723941201fa_sunaedtgwjvvziytspa.jpg,00154931230fa.jpg,sunaauueuhhvklldjik.jpg,00723941201fa.jpg,sunaedtgwjvvziytspa.jpg,,,>,Face,,,,,1,,,,,,,o
301,13,Presentation,6,00086931230fa_sunaafynehyrzpsoaml.jpg,00620940928fa_sunacypmnujalygkunp.jpg,00086931230fa.jpg,sunaafynehyrzpsoaml.jpg,00620940928fa.jpg,sunacypmnujalygkunp.jpg,,,>,Face,,,,,1,,,,,,,x
302,13,Presentation,6,00750941201fa_sunaeuzwggvibufclwf.jpg,00884960530fa_sunakodkcslgqhqlgwl.jpg,00750941201fa.jpg,sunaeuzwggvibufclwf.jpg,00884960530fa.jpg,sunakodkcslgqhqlgwl.jpg,,,>,Face,,,,,0,,,,,,,x
303,13,Presentation,6,00185940422fb_sunaawqdbpihmlbwyyn.jpg,00638941031fa_sunadfktsqjthoglcsm.jpg,00185940422fb.jpg,sunaawqdbpihmlbwyyn.jpg,00638941031fa.jpg,sunadfktsqjthoglcsm.jpg,,,>,Face,,,,,1,,,,,,,o
304,13,Presentation,6,00270940422fb_sunabllobxadqcyttej.jpg,00919960620fa_sunapmfmzadmosuogaz.jpg,00270940422fb.jpg,sunabllobxadqcyttej.jpg,00919960620fa.jpg,sunapmfmzadmosuogaz.jpg,,,>,Face,,,,,1,,,,,,,x
305,13,Presentation,6,00968960627fa_sunbagfpovqwbuexqdn.jpg,00838940307fa_sunaiozxhxgtfrmoagh.jpg,00968960627fa.jpg,sunbagfpovqwbuexqdn.jpg,00838940307fa.jpg,sunaiozxhxgtfrmoagh.jpg,,,>,Face,,,,,1,,,,,,,o
306,13,Presentation,6,00633940928fa_sunadbhmrgrrpyzglxs.jpg,00136931230fb_sunaanptmsknhirrzed.jpg,00633940928fa.jpg,sunadbhmrgrrpyzglxs.jpg,00136931230fb.jpg,sunaanptmsknhirrzed.jpg,,,>,Face,,,,,1,,,,,,,o
307,13,Presentation,6,00947960627fa_sunasmmcxdddtmtazwx.jpg,00162931230fb_sunaavjinpnkappuonm.jpg,00947960627fa.jpg,sunasmmcxdddtmtazwx.jpg,00162931230fb.jpg,sunaavjinpnkappuonm.jpg,,,>,Face,,,,,1,,,,,,,o
308,13,Presentation,6,00982960627fa_sunbesrwkdsffeogeqq.jpg,00870940307fa_sunajrgtewnualfcerj.jpg,00982960627fa.jpg,sunbesrwkdsffeogeqq.jpg,00870940307fa.jpg,sunajrgtewnualfcerj.jpg,,,>,Face,,,,,0,,,,,,,x
309,13,Presentation,6,00111931230fb_sunaakgekhjklxmvulj.jpg,00868960307fa_sunajjxttslobudoqbv.jpg,00111931230fb.jpg,sunaakgekhjklxmvulj.jpg,00868960307fa.jpg,sunajjxttslobudoqbv.jpg,,,>,Face,,,,,1,,,,,,,x
310,13,Memory,6,,,,,,,sunakodkcslgqhqlgwl.jpg,,,,,,,,,,,,,,,
311,13,Memory,6,,,,,,,sunaahedjlmtqekgyvj.jpg,,,,,,,,,,,,,,,
312,13,Memory,6,,,,,,,00884960530fa.jpg,,,,,,,,,,,,,,,
313,13,Memory,6,,,,,,,sunbagfpovqwbuexqdn.jpg,,,,,,,,,,,,,,,
314,13,Memory,6,,,,,,,00957960627fa.jpg,,,,,,,,,,,,,,,
315,13,Memory,6,,,,,,,00933960627fa.jpg,,,,,,,,,,,,,,,
316,13,Memory,6,,,,,,,00968960627fa.jpg,,,,,,,,,,,,,,,
317,13,Memory,6,,,,,,,00136931230fb.jpg,,,,,,,,,,,,,,,
318,13,Memory,6,,,,,,,00270940422fb.jpg,,,,,,,,,,,,,,,
319,13,Memory,6,,,,,,,00648941031fa.jpg,,,,,,,,,,,,,,,
320,13,Memory,6,,,,,,,sunabllobxadqcyttej.jpg,,,,,,,,,,,,,,,
321,13,Memory,6,,,,,,,sunapwjkcxdaeqehfql.jpg,,,,,,,,,,,,,,,
322,13,Memory,6,,,,,,,00638941031fa.jpg,,,,,,,,,,,,,,,
323,13,Memory,6,,,,,,,00111931230fb.jpg,,,,,,,,,,,,,,,
324,13,Memory,6,,,,,,,sunajrgtewnualfcerj.jpg,,,,,,,,,,,,,,,
325,13,Memory,6,,,,,,,00774941201fa.jpg,,,,,,,,,,,,,,,
326,13,Memory,6,,,,,,,00870940307fa.jpg,,,,,,,,,,,,,,,
327,13,Memory,6,,,,,,,sunaakgekhjklxmvulj.jpg,,,,,,,,,,,,,,,
328,13,Memory,6,,,,,,,sunadfktsqjthoglcsm.jpg,,,,,,,,,,,,,,,
329,13,Memory,6,,,,,,,00115931230fa.jpg,,,,,,,,,,,,,,,
330,13,Memory,6,,,,,,,00942960627fa.jpg,,,,,,,,,,,,,,,
331,13,Memory,6,,,,,,,sunavhxgmgrqsaptynb.jpg,,,,,,,,,,,,,,,
332,13,Memory,6,,,,,,,sunaawqdbpihmlbwyyn.jpg,,,,,,,,,,,,,,,
333,13,Memory,6,,,,,,,sunarfdklgdnjgeqfjg.jpg,,,,,,,,,,,,,,,
334,13,Memory,6,,,,,,,00185940422fb.jpg,,,,,,,,,,,,,,,
335,13,Memory,6,,,,,,,00090931230fa.jpg,,,,,,,,,,,,,,,
336,13,Memory,6,,,,,,,sunaavjinpnkappuonm.jpg,,,,,,,,,,,,,,,
337,13,Memory,6,,,,,,,00895960530fa.jpg,,,,,,,,,,,,,,,
338,13,Memory,6,,,,,,,00063931230fa.jpg,,,,,,,,,,,,,,,
339,13,Memory,6,,,,,,,00982960627fa.jpg,,,,,,,,,,,,,,,
340,13,Memory,6,,,,,,,sunafvtpfczkzopbgue.jpg,,,,,,,,,,,,,,,
341,13,Memory,6,,,,,,,sunamczizlzavhzhpay.jpg,,,,,,,,,,,,,,,
342,13,Memory,6,,,,,,,00162931230fb.jpg,,,,,,,,,,,,,,,
343,13,Memory,6,,,,,,,sunaaelyvurpntclgau.jpg,,,,,,,,,,,,,,,
344,13,Memory,6,,,,,,,sunawotxrevnqvamsfp.jpg,,,,,,,,,,,,,,,
345,13,Memory,6,,,,,,,sunadfndyrtqqiasoig.jpg,,,,,,,,,,,,,,,
346,13,Memory,6,,,,,,,00961960627fa.jpg,,,,,,,,,,,,,,,
347,13,Memory,6,,,,,,,sunbesrwkdsffeogeqq.jpg,,,,,,,,,,,,,,,
348,13,Memory,6,,,,,,,sunaakmxzhuceuiryah.jpg,,,,,,,,,,,,,,,
349,13,Memory,6,,,,,,,sunaanptmsknhirrzed.jpg,,,,,,,,,,,,,,,
350,13,Presentation,7,00810941205fa_sunahctntqrunhdxhtb.jpg,00060931230fa_sunaaehaikpckyjsety.jpg,00810941205fa.jpg,sunahctntqrunhdxhtb.jpg,00060931230fa.jpg,sunaaehaikpckyjsety.jpg,,,<,Place,,,,,1,,,,,,,x
351,13,Presentation,7,00266940128fb_sunabkngeblodihjvbk.jpg,00158931230fb_sunaavchcbptaerhcfy.jpg,00266940128fb.jpg,sunabkngeblodihjvbk.jpg,00158931230fb.jpg,sunaavchcbptaerhcfy.jpg,,,<,Place,,,,,1,,,,,,,o
352,13,Presentation,7,00675941121fa_sunadoxcchtmsxewsau.jpg,00990960627fa_sunbpflsdaxnddnwcqi.jpg,00675941121fa.jpg,sunadoxcchtmsxewsau.jpg,00990960627fa.jpg,sunbpflsdaxnddnwcqi.jpg,,,<,Place,,,,,1,,,,,,,x
353,13,Presentation,7,01004960627fa_sunbwtlihsuptkrckid.jpg,00676941121fa_sunadpnqovzckyikrjo.jpg,01004960627fa.jpg,sunbwtlihsuptkrckid.jpg,00676941121fa.jpg,sunadpnqovzckyikrjo.jpg,,,<,Place,,,,,1,,,,,,,o
354,13,Presentation,7,00822940307fa_sunahqrxievfeusiqlt.jpg,00609940928fa_sunacycdoztxoluxjyk.jpg,00822940307fa.jpg,sunahqrxievfeusiqlt.jpg,00609940928fa.jpg,sunacycdoztxoluxjyk.jpg,,,<,Place,,,,,1,,,,,,,x
355,13,Presentation,7,00163931230fb_sunaavodbcpygkggnfp.jpg,00109931230fa_sunaajuzribjrizdshh.jpg,00163931230fb.jpg,sunaavodbcpygkggnfp.jpg,00109931230fa.jpg,sunaajuzribjrizdshh.jpg,,,<,Place,,,,,1,,,,,,,x
356,13,Presentation,7,00751960620fa_sunaezuszgtxnmsxdbk.jpg,00147931230fb_sunaatpkocdkocwxpkb.jpg,00751960620fa.jpg,sunaezuszgtxnmsxdbk.jpg,00147931230fb.jpg,sunaatpkocdkocwxpkb.jpg,,,<,Place,,,,,1,,,,,,,o
357,13,Presentation,7,00082931230fa_sunaafvitpexrpvumsa.jpg,00971960627fa_sunbbegcweqnetpdlrh.jpg,00082931230fa.jpg,sunaafvitpexrpvumsa.jpg,00971960627fa.jpg,sunbbegcweqnetpdlrh.jpg,,,<,Place,,,,,1,,,,,,,o
358,13,Presentation,7,00557940519fa_sunachtuarilwyqnvjx.jpg,00766960620fa_sunafijbgncijwykrnl.jpg,00557940519fa.jpg,sunachtuarilwyqnvjx.jpg,00766960620fa.jpg,sunafijbgncijwykrnl.jpg,,,<,Place,,,,,1,,,,,,,x
359,13,Presentation,7,00081941031fa_sunaaftlyfudyzuhqzf.jpg,00133931230fa_sunaanlwnpqndclffxt.jpg,00081941031fa.jpg,sunaaftlyfudyzuhqzf.jpg,00133931230fa.jpg,sunaanlwnpqndclffxt.jpg,,,<,Place,,,,,1,,,,,,,x
360,13,Memory,7,,,,,,,00557940519fa.jpg,,,,,,,,,,,,,,,
361,13,Memory,7,,,,,,,00260940128fa.jpg,,,,,,,,,,,,,,,
362,13,Memory,7,,,,,,,sunaanlwnpqndclffxt.jpg,,,,,,,,,,,,,,,
363,13,Memory,7,,,,,,,sunahctntqrunhdxhtb.jpg,,,,,,,,,,,,,,,
364,13,Memory,7,,,,,,,sunaafvitpexrpvumsa.jpg,,,,,,,,,,,,,,,
365,13,Memory,7,,,,,,,00109931230fa.jpg,,,,,,,,,,,,,,,
366,13,Memory,7,,,,,,,sunahgtbwgsmtqeodwh.jpg,,,,,,,,,,,,,,,
367,13,Memory,7,,,,,,,00082931230fa.jpg,,,,,,,,,,,,,,,
368,13,Memory,7,,,,,,,00960960627fa.jpg,,,,,,,,,,,,,,,
369,13,Memory,7,,,,,,,sunaajuzribjrizdshh.jpg,,,,,,,,,,,,,,,
370,13,Memory,7,,,,,,,00145931230fb.jpg,,,,,,,,,,,,,,,
371,13,Memory,7,,,,,,,00568940928fa.jpg,,,,,,,,,,,,,,,
372,13,Memory,7,,,,,,,00133931230fa.jpg,,,,,,,,,,,,,,,
373,13,Memory,7,,,,,,,00972960627fa.jpg,,,,,,,,,,,,,,,
374,13,Memory,7,,,,,,,01004960627fa.jpg,,,,,,,,,,,,,,,
375,13,Memory,7,,,,,,,00926960627Fa.jpg,,,,,,,,,,,,,,,
376,13,Memory,7,,,,,,,sunbpflsdaxnddnwcqi.jpg,,,,,,,,,,,,,,,
377,13,Memory,7,,,,,,,00818940307fa.jpg,,,,,,,,,,,,,,,
378,13,Memory,7,,,,,,,sunabwjvmoaddlyxfjr.jpg,,,,,,,,,,,,,,,
379,13,Memory,7,,,,,,,sunadpnqovzckyikrjo.jpg,,,,,,,,,,,,,,,
380,13,Memory,7,,,,,,,sunaetydippjxikifsb.jpg,,,,,,,,,,,,,,,
381,13,Memory,7,,,,,,,00609940928fa.jpg,,,,,,,,,,,,,,,
382,13,Memory,7,,,,,,,00812941205fa.jpg,,,,,,,,,,,,,,,
383,13,Memory,7,,,,,,,sunaavodbcpygkggnfp.jpg,,,,,,,,,,,,,,,
384,13,Memory,7,,,,,,,sunacsdhbbsybcyxnel.jpg,,,,,,,,,,,,,,,
385,13,Memory,7,,,,,,,00163931230fb.jpg,,,,,,,,,,,,,,,
386,13,Memory,7,,,,,,,00990960627fa.jpg,,,,,,,,,,,,,,,
387,13,Memory,7,,,,,,,sunabgfhvifeijihhjw.jpg,,,,,,,,,,,,,,,
388,13,Memory,7,,,,,,,00746941201fa.jpg,,,,,,,,,,,,,,,
389,13,Memory,7,,,,,,,sunahpblecxtmuzkmxb.jpg,,,,,,,,,,,,,,,
390,13,Memory,7,,,,,,,sunacycdoztxoluxjyk.jpg,,,,,,,,,,,,,,,
391,13,Memory,7,,,,,,,sunbwtlihsuptkrckid.jpg,,,,,,,,,,,,,,,
392,13,Memory,7,,,,,,,sunachtuarilwyqnvjx.jpg,,,,,,,,,,,,,,,
393,13,Memory,7,,,,,,,00313940422fa.jpg,,,,,,,,,,,,,,,
394,13,Memory,7,,,,,,,sunawksfbacycuhbrsc.jpg,,,,,,,,,,,,,,,
395,13,Memory,7,,,,,,,sunbbfqwjpdxniyhies.jpg,,,,,,,,,,,,,,,
396,13,Memory,7,,,,,,,00810941205fa.jpg,,,,,,,,,,,,,,,
397,13,Memory,7,,,,,,,sunaatjesvdupctftmn.jpg,,,,,,,,,,,,,,,
398,13,Memory,7,,,,,,,00676941121fa.jpg,,,,,,,,,,,,,,,
399,13,Memory,7,,,,,,,sunapqwoeotxshkukbh.jpg,,,,,,,,,,,,,,,
