,Subject,Trial Type,Run,Cued Composite,Uncued Composite,Cued Face,Cued Place,Uncued Face,Uncued Place,Memory Image,Category,Cued Side,Cued Category,Attention Reaction Time (s),Familiarity Reaction Time (s),Familiarity Rating,Attention Level,Cue Validity,Post Invalid Cue,Pre Invalid Cue,Attention Button,Rating History,Stimulus Onset,Stimulus End,Attention Probe
160,11,Memory,3,,,,,,,sunbwyuesflwdpqtgoy.jpg,,,,,0.869,1.0,,,,,,,1538596401.50237,1538596403.552508,
161,11,Memory,3,,,,,,,sunaedtgwjvvziytspa.jpg,,,,,1.787,1.0,,,,,,,1538596404.835718,1538596406.820804,
162,11,Memory,3,,,,,,,00316940422fa.jpg,,,,,1.003,1.0,,,,,,,1538596408.070762,1538596410.05383,
163,11,Memory,3,,,,,,,00799941205fa.jpg,,,,,1.054,1.0,,,,,,,1538596411.305164,1538596413.288755,
164,11,Memory,3,,,,,,,sunacypmnujalygkunp.jpg,,,,,0.787,1.0,,,,,,,1538596414.572052,1538596416.557147,
165,11,Memory,3,,,,,,,00559940519fa.jpg,,,,,1.053,2.0,,,,,,,1538596417.923381,1538596419.907394,
166,11,Memory,3,,,,,,,00260940128fa.jpg,,,,,0.752,1.0,,,,,,,1538596421.192236,1538596423.174605,
167,11,Memory,3,,,,,,,sunaaehaikpckyjsety.jpg,,,,,1.22,1.0,,,,,,,1538596424.424924,1538596426.409718,
168,11,Memory,3,,,,,,,00803941205fa.jpg,,,,,0.62,1.0,,,,,,,1538596427.659971,1538596429.643938,
169,11,Memory,3,,,,,,,00949960627fb.jpg,,,,,0.803,1.0,,,,,,,1538596430.894995,1538596432.878357,
170,11,Memory,3,,,,,,,sunabjuovqvyfuzvqwt.jpg,,,,,0.553,1.0,,,,,,,1538596434.128143,1538596436.11315,
171,11,Memory,3,,,,,,,00723941201fa.jpg,,,,,0.587,1.0,,,,,,,1538596437.380287,1538596439.364129,
172,11,Memory,3,,,,,,,sunagsiwrmuixqgdimb.jpg,,,,,0.536,1.0,,,,,,,1538596440.73223,1538596442.714572,
173,11,Memory,3,,,,,,,01005960627fa.jpg,,,,,0.487,1.0,,,,,,,1538596443.982527,1538596445.965823,
174,11,Memory,3,,,,,,,00792941205fa.jpg,,,,,0.771,1.0,,,,,,,1538596447.216673,1538596449.199809,
175,11,Memory,3,,,,,,,sunaajayojuslbbnneg.jpg,,,,,0.604,1.0,,,,,,,1538596450.451152,1538596452.434289,
176,11,Memory,3,,,,,,,00864940307fa.jpg,,,,,1.169,1.0,,,,,,,1538596453.702136,1538596455.686204,
177,11,Memory,3,,,,,,,00288940422fa.jpg,,,,,0.454,1.0,,,,,,,1538596456.936331,1538596458.920312,
178,11,Memory,3,,,,,,,00807941205fa.jpg,,,,,0.504,1.0,,,,,,,1538596460.170166,1538596462.154765,
179,11,Memory,3,,,,,,,00097931230fa.jpg,,,,,0.653,1.0,,,,,,,1538596463.42188,1538596465.406528,
180,11,Memory,3,,,,,,,00060931230fa.jpg,,,,,0.437,1.0,,,,,,,1538596466.78898,1538596468.773267,
181,11,Memory,3,,,,,,,sunacjkmnpawfzbyvae.jpg,,,,,0.604,1.0,,,,,,,1538596470.023913,1538596472.007385,
182,11,Memory,3,,,,,,,sunauburywlkjszngcq.jpg,,,,,1.052,1.0,,,,,,,1538596473.39134,1538596475.374377,
183,11,Memory,3,,,,,,,00620940928fa.jpg,,,,,0.503,1.0,,,,,,,1538596476.642614,1538596478.626678,
184,11,Memory,3,,,,,,,sunajawzbrlrwafowen.jpg,,,,,1.237,1.0,,,,,,,1538596479.893279,1538596481.877653,
185,11,Memory,3,,,,,,,sunadoxcchtmsxewsau.jpg,,,,,1.67,1.0,,,,,,,1538596483.127698,1538596485.110919,
186,11,Memory,3,,,,,,,sunahtfxgsrmkiulnwk.jpg,,,,,0.753,1.0,,,,,,,1538596486.363626,1538596488.345943,
187,11,Memory,3,,,,,,,sunagutjvdvnhxejerz.jpg,,,,,0.603,1.0,,,,,,,1538596489.596182,1538596491.580299,
188,11,Memory,3,,,,,,,sunabxmguapjekttvwm.jpg,,,,,0.736,2.0,,,,,,,1538596492.947213,1538596494.931549,
189,11,Memory,3,,,,,,,00955960627fb.jpg,,,,,1.135,2.0,,,,,,,1538596496.182403,1538596498.165517,
190,11,Memory,3,,,,,,,sunasnqkkyhilqkxiqm.jpg,,,,,1.337,2.0,,,,,,,1538596499.433341,1538596501.416723,
191,11,Memory,3,,,,,,,sunagvxkjokqimstxpe.jpg,,,,,0.636,1.0,,,,,,,1538596502.683842,1538596504.667762,
192,11,Memory,3,,,,,,,sunadcphrizvfpljiqt.jpg,,,,,0.687,1.0,,,,,,,1538596505.919825,1538596507.903091,
193,11,Memory,3,,,,,,,00634940928fa.jpg,,,,,1.037,1.0,,,,,,,1538596509.152847,1538596511.137177,
194,11,Memory,3,,,,,,,sunabgfhvifeijihhjw.jpg,,,,,0.702,1.0,,,,,,,1538596512.404014,1538596514.3874,
195,11,Memory,3,,,,,,,00827940307fa.jpg,,,,,0.787,1.0,,,,,,,1538596515.755507,1538596517.73955,
196,11,Memory,3,,,,,,,00675941121fa.jpg,,,,,0.619,1.0,,,,,,,1538596518.989605,1538596520.973688,
197,11,Memory,3,,,,,,,sunabppokiyglaxpcha.jpg,,,,,0.603,1.0,,,,,,,1538596522.224616,1538596524.207654,
198,11,Memory,3,,,,,,,00263940128fb.jpg,,,,,0.536,1.0,,,,,,,1538596525.541948,1538596527.526032,
199,11,Memory,3,,,,,,,sunahawfngukizslzsd.jpg,,,,,0.553,1.0,,,,,,,1538596528.776024,1538596530.760282,
