,Subject,Trial Type,Run,Cued Composite,Uncued Composite,Cued Face,Cued Place,Uncued Face,Uncued Place,Memory Image,Category,Cued Side,Cued Category,Attention Reaction Time (s),Familiarity Reaction Time (s),Familiarity Rating,Attention Level,Cue Validity,Post Invalid Cue,Pre Invalid Cue,Attention Button,Rating History,Stimulus Onset,Stimulus End,Attention Probe
0,32,Presentation,0,00194940128fb_sunaayehfdqcyxggsej.jpg,00540940519fa_sunacdnquypmsshhsbk.jpg,00194940128fb.jpg,sunaayehfdqcyxggsej.jpg,00540940519fa.jpg,sunacdnquypmsshhsbk.jpg,,,>,Face,,,,,1,,,,,,,x
1,32,Presentation,0,00971960627fa_sunbbegcweqnetpdlrh.jpg,00880960530fa_sunakmnfgklupjijsgf.jpg,00971960627fa.jpg,sunbbegcweqnetpdlrh.jpg,00880960530fa.jpg,sunakmnfgklupjijsgf.jpg,,,>,Face,,,,,0,,,,,,,x
2,32,Presentation,0,00760960620fa_sunaffstbkappprzxnv.jpg,00796941205fa_sunaguchqqnrtodtezq.jpg,00760960620fa.jpg,sunaffstbkappprzxnv.jpg,00796941205fa.jpg,sunaguchqqnrtodtezq.jpg,,,>,Face,,,,,0,,,,,,,x
3,32,Presentation,0,00185940422fb_sunaawqdbpihmlbwyyn.jpg,00926960627Fa_sunapqwoeotxshkukbh.jpg,00185940422fb.jpg,sunaawqdbpihmlbwyyn.jpg,00926960627Fa.jpg,sunapqwoeotxshkukbh.jpg,,,>,Face,,,,,1,,,,,,,x
4,32,Presentation,0,00816941205fa_sunahmhrncocyhsjpxk.jpg,01003960627fb_sunbwdrdvsweerwsdrj.jpg,00816941205fa.jpg,sunahmhrncocyhsjpxk.jpg,01003960627fb.jpg,sunbwdrdvsweerwsdrj.jpg,,,>,Face,,,,,1,,,,,,,x
5,32,Presentation,0,00554940519fa_sunacfdkbsrughwqwtt.jpg,01004960627fa_sunbwtlihsuptkrckid.jpg,00554940519fa.jpg,sunacfdkbsrughwqwtt.jpg,01004960627fa.jpg,sunbwtlihsuptkrckid.jpg,,,>,Face,,,,,1,,,,,,,o
6,32,Presentation,0,00288940422fa_sunabppokiyglaxpcha.jpg,00900960530fa_sunamlotskmmsjeogby.jpg,00288940422fa.jpg,sunabppokiyglaxpcha.jpg,00900960530fa.jpg,sunamlotskmmsjeogby.jpg,,,>,Face,,,,,1,,,,,,,x
7,32,Presentation,0,00130931230fa_sunaamvxnvouicstkjb.jpg,00730960620fa_sunaekgzpfilgjxpeyq.jpg,00130931230fa.jpg,sunaamvxnvouicstkjb.jpg,00730960620fa.jpg,sunaekgzpfilgjxpeyq.jpg,,,>,Face,,,,,1,,,,,,,o
8,32,Presentation,0,00906960530fa_sunantryfbloeaomfta.jpg,00913960530fa_sunaooffzffbhcpirmm.jpg,00906960530fa.jpg,sunantryfbloeaomfta.jpg,00913960530fa.jpg,sunaooffzffbhcpirmm.jpg,,,>,Face,,,,,1,,,,,,,x
9,32,Presentation,0,00841940307fa_sunaisiwfgppimtnmxl.jpg,00153931230fa_sunaauhozyxzeeqstxi.jpg,00841940307fa.jpg,sunaisiwfgppimtnmxl.jpg,00153931230fa.jpg,sunaauhozyxzeeqstxi.jpg,,,>,Face,,,,,1,,,,,,,o
10,32,Memory,0,,,,,,,00481940519fa.jpg,,,,,,,,,,,,,,,
11,32,Memory,0,,,,,,,sunavhxgmgrqsaptynb.jpg,,,,,,,,,,,,,,,
12,32,Memory,0,,,,,,,sunabppokiyglaxpcha.jpg,,,,,,,,,,,,,,,
13,32,Memory,0,,,,,,,00766960620fa.jpg,,,,,,,,,,,,,,,
14,32,Memory,0,,,,,,,sunabxsuqbleluwczoy.jpg,,,,,,,,,,,,,,,
15,32,Memory,0,,,,,,,00900960530fa.jpg,,,,,,,,,,,,,,,
16,32,Memory,0,,,,,,,00971960627fa.jpg,,,,,,,,,,,,,,,
17,32,Memory,0,,,,,,,00760960620fa.jpg,,,,,,,,,,,,,,,
18,32,Memory,0,,,,,,,00796941205fa.jpg,,,,,,,,,,,,,,,
19,32,Memory,0,,,,,,,sunbbegcweqnetpdlrh.jpg,,,,,,,,,,,,,,,
20,32,Memory,0,,,,,,,00801941205fa.jpg,,,,,,,,,,,,,,,
21,32,Memory,0,,,,,,,sunamlotskmmsjeogby.jpg,,,,,,,,,,,,,,,
22,32,Memory,0,,,,,,,00957960627fa.jpg,,,,,,,,,,,,,,,
23,32,Memory,0,,,,,,,00288940422fa.jpg,,,,,,,,,,,,,,,
24,32,Memory,0,,,,,,,00977960627fa.jpg,,,,,,,,,,,,,,,
25,32,Memory,0,,,,,,,sunbfzchmomnvzhbxdg.jpg,,,,,,,,,,,,,,,
26,32,Memory,0,,,,,,,sunadakkdovnuzlycvp.jpg,,,,,,,,,,,,,,,
27,32,Memory,0,,,,,,,sunafijbgncijwykrnl.jpg,,,,,,,,,,,,,,,
28,32,Memory,0,,,,,,,sunabzjxlmkwnwzimua.jpg,,,,,,,,,,,,,,,
29,32,Memory,0,,,,,,,sunaffstbkappprzxnv.jpg,,,,,,,,,,,,,,,
30,32,Memory,0,,,,,,,sunacmpqqfbsvlzinzl.jpg,,,,,,,,,,,,,,,
31,32,Memory,0,,,,,,,sunaamvxnvouicstkjb.jpg,,,,,,,,,,,,,,,
32,32,Memory,0,,,,,,,00630941031fa.jpg,,,,,,,,,,,,,,,
33,32,Memory,0,,,,,,,sunagpancjmxqfazssf.jpg,,,,,,,,,,,,,,,
34,32,Memory,0,,,,,,,00841940307fa.jpg,,,,,,,,,,,,,,,
35,32,Memory,0,,,,,,,00984960627fa.jpg,,,,,,,,,,,,,,,
36,32,Memory,0,,,,,,,00564940928fa.jpg,,,,,,,,,,,,,,,
37,32,Memory,0,,,,,,,sunaisiwfgppimtnmxl.jpg,,,,,,,,,,,,,,,
38,32,Memory,0,,,,,,,00130931230fa.jpg,,,,,,,,,,,,,,,
39,32,Memory,0,,,,,,,00498960627fa.jpg,,,,,,,,,,,,,,,
40,32,Memory,0,,,,,,,sunbbxkanhzjgbwyxqs.jpg,,,,,,,,,,,,,,,
41,32,Memory,0,,,,,,,01003960627fb.jpg,,,,,,,,,,,,,,,
42,32,Memory,0,,,,,,,sunbwdrdvsweerwsdrj.jpg,,,,,,,,,,,,,,,
43,32,Memory,0,,,,,,,00730960620fa.jpg,,,,,,,,,,,,,,,
44,32,Memory,0,,,,,,,00789960620fa.jpg,,,,,,,,,,,,,,,
45,32,Memory,0,,,,,,,sunakmnfgklupjijsgf.jpg,,,,,,,,,,,,,,,
46,32,Memory,0,,,,,,,sunagvprlbprarvgdvj.jpg,,,,,,,,,,,,,,,
47,32,Memory,0,,,,,,,sunaguchqqnrtodtezq.jpg,,,,,,,,,,,,,,,
48,32,Memory,0,,,,,,,sunaekgzpfilgjxpeyq.jpg,,,,,,,,,,,,,,,
49,32,Memory,0,,,,,,,00880960530fa.jpg,,,,,,,,,,,,,,,
50,32,Presentation,1,00775941205fa_sunafvwfsmqkjrutjta.jpg,01010960627fa_suncnkvbhypnivcohyx.jpg,00775941205fa.jpg,sunafvwfsmqkjrutjta.jpg,01010960627fa.jpg,suncnkvbhypnivcohyx.jpg,,,>,Place,,,,,1,,,,,,,o
51,32,Presentation,1,00070940307fa_sunaaeplwsfslcbtojr.jpg,00136931230fb_sunaanptmsknhirrzed.jpg,00070940307fa.jpg,sunaaeplwsfslcbtojr.jpg,00136931230fb.jpg,sunaanptmsknhirrzed.jpg,,,>,Place,,,,,1,,,,,,,o
52,32,Presentation,1,00978960627fa_sunbddbivbptlrlauhy.jpg,00952960627fa_sunathzzbcwjykldrem.jpg,00978960627fa.jpg,sunbddbivbptlrlauhy.jpg,00952960627fa.jpg,sunathzzbcwjykldrem.jpg,,,>,Place,,,,,0,,,,,,,x
53,32,Presentation,1,00598940928fa_sunacxeheuiigkcgquf.jpg,00854940307fa_sunaiwduelojtwaqeyh.jpg,00598940928fa.jpg,sunacxeheuiigkcgquf.jpg,00854940307fa.jpg,sunaiwduelojtwaqeyh.jpg,,,>,Place,,,,,1,,,,,,,o
54,32,Presentation,1,00061931230fb_sunaaekxzjzrfgtkwjf.jpg,00262940128fa_sunabizydfotqddlnjp.jpg,00061931230fb.jpg,sunaaekxzjzrfgtkwjf.jpg,00262940128fa.jpg,sunabizydfotqddlnjp.jpg,,,>,Place,,,,,1,,,,,,,o
55,32,Presentation,1,00763941205fa_sunafhmnhsdurlvddpw.jpg,00086931230fa_sunaafynehyrzpsoaml.jpg,00763941205fa.jpg,sunafhmnhsdurlvddpw.jpg,00086931230fa.jpg,sunaafynehyrzpsoaml.jpg,,,>,Place,,,,,1,,,,,,,x
56,32,Presentation,1,00532960627fa_sunaccdtpgenvcbcbcf.jpg,00302940422fa_sunabtlfmiwtljmoues.jpg,00532960627fa.jpg,sunaccdtpgenvcbcbcf.jpg,00302940422fa.jpg,sunabtlfmiwtljmoues.jpg,,,>,Place,,,,,1,,,,,,,x
57,32,Presentation,1,00878960530fa_sunakgbnzxmfohgehnu.jpg,00743941201fa_sunaeoghzrjarigmwua.jpg,00878960530fa.jpg,sunakgbnzxmfohgehnu.jpg,00743941201fa.jpg,sunaeoghzrjarigmwua.jpg,,,>,Place,,,,,1,,,,,,,x
58,32,Presentation,1,00942960627fa_sunarfdklgdnjgeqfjg.jpg,00719960620fa_sunadzuvtmtmgupotmf.jpg,00942960627fa.jpg,sunarfdklgdnjgeqfjg.jpg,00719960620fa.jpg,sunadzuvtmtmgupotmf.jpg,,,>,Place,,,,,1,,,,,,,o
59,32,Presentation,1,00960960627fa_sunawksfbacycuhbrsc.jpg,00131931230fb_sunaangbuylfvckqqoo.jpg,00960960627fa.jpg,sunawksfbacycuhbrsc.jpg,00131931230fb.jpg,sunaangbuylfvckqqoo.jpg,,,>,Place,,,,,1,,,,,,,o
60,32,Memory,1,,,,,,,sunarfdklgdnjgeqfjg.jpg,,,,,,,,,,,,,,,
61,32,Memory,1,,,,,,,00743941201fa.jpg,,,,,,,,,,,,,,,
62,32,Memory,1,,,,,,,00939960627fa.jpg,,,,,,,,,,,,,,,
63,32,Memory,1,,,,,,,sunabwfvcqqidycwypa.jpg,,,,,,,,,,,,,,,
64,32,Memory,1,,,,,,,sunaeoghzrjarigmwua.jpg,,,,,,,,,,,,,,,
65,32,Memory,1,,,,,,,sunabizydfotqddlnjp.jpg,,,,,,,,,,,,,,,
66,32,Memory,1,,,,,,,00952960627fa.jpg,,,,,,,,,,,,,,,
67,32,Memory,1,,,,,,,00670941121fa.jpg,,,,,,,,,,,,,,,
68,32,Memory,1,,,,,,,00675941121fa.jpg,,,,,,,,,,,,,,,
69,32,Memory,1,,,,,,,sunahqldjibofgsfdgb.jpg,,,,,,,,,,,,,,,
70,32,Memory,1,,,,,,,00960960627fa.jpg,,,,,,,,,,,,,,,
71,32,Memory,1,,,,,,,00942960627fa.jpg,,,,,,,,,,,,,,,
72,32,Memory,1,,,,,,,sunadzuvtmtmgupotmf.jpg,,,,,,,,,,,,,,,
73,32,Memory,1,,,,,,,00910960530fa.jpg,,,,,,,,,,,,,,,
74,32,Memory,1,,,,,,,00308940422fb.jpg,,,,,,,,,,,,,,,
75,32,Memory,1,,,,,,,sunaafvitpexrpvumsa.jpg,,,,,,,,,,,,,,,
76,32,Memory,1,,,,,,,00763941205fa.jpg,,,,,,,,,,,,,,,
77,32,Memory,1,,,,,,,00819940307fa.jpg,,,,,,,,,,,,,,,
78,32,Memory,1,,,,,,,sunbddbivbptlrlauhy.jpg,,,,,,,,,,,,,,,
79,32,Memory,1,,,,,,,sunadochqcucscehsgk.jpg,,,,,,,,,,,,,,,
80,32,Memory,1,,,,,,,sunadoxcchtmsxewsau.jpg,,,,,,,,,,,,,,,
81,32,Memory,1,,,,,,,sunafvwfsmqkjrutjta.jpg,,,,,,,,,,,,,,,
82,32,Memory,1,,,,,,,sunaafbmtoniaasysgu.jpg,,,,,,,,,,,,,,,
83,32,Memory,1,,,,,,,00719960620fa.jpg,,,,,,,,,,,,,,,
84,32,Memory,1,,,,,,,sunaanptmsknhirrzed.jpg,,,,,,,,,,,,,,,
85,32,Memory,1,,,,,,,sunathzzbcwjykldrem.jpg,,,,,,,,,,,,,,,
86,32,Memory,1,,,,,,,00073931230fa.jpg,,,,,,,,,,,,,,,
87,32,Memory,1,,,,,,,00775941205fa.jpg,,,,,,,,,,,,,,,
88,32,Memory,1,,,,,,,sunaletopenvvozhpxc.jpg,,,,,,,,,,,,,,,
89,32,Memory,1,,,,,,,00097931230fa.jpg,,,,,,,,,,,,,,,
90,32,Memory,1,,,,,,,00082931230fa.jpg,,,,,,,,,,,,,,,
91,32,Memory,1,,,,,,,00978960627fa.jpg,,,,,,,,,,,,,,,
92,32,Memory,1,,,,,,,sunawksfbacycuhbrsc.jpg,,,,,,,,,,,,,,,
93,32,Memory,1,,,,,,,sunaofikylqtxphvdem.jpg,,,,,,,,,,,,,,,
94,32,Memory,1,,,,,,,00889960530fa.jpg,,,,,,,,,,,,,,,
95,32,Memory,1,,,,,,,sunafhmnhsdurlvddpw.jpg,,,,,,,,,,,,,,,
96,32,Memory,1,,,,,,,sunarceibpcyacbmfga.jpg,,,,,,,,,,,,,,,
97,32,Memory,1,,,,,,,00136931230fb.jpg,,,,,,,,,,,,,,,
98,32,Memory,1,,,,,,,sunaajayojuslbbnneg.jpg,,,,,,,,,,,,,,,
99,32,Memory,1,,,,,,,00262940128fa.jpg,,,,,,,,,,,,,,,
100,32,Presentation,2,00914960620fa_sunaozisvwfbmlkfhzv.jpg,00790941205fa_sunagpjzsbltchlwvou.jpg,00914960620fa.jpg,sunaozisvwfbmlkfhzv.jpg,00790941205fa.jpg,sunagpjzsbltchlwvou.jpg,,,<,Place,,,,,1,,,,,,,x
101,32,Presentation,2,00815941205fa_sunahiphsekjihkafsl.jpg,00125931230fa_sunaalltyvjhbzhkmvg.jpg,00815941205fa.jpg,sunahiphsekjihkafsl.jpg,00125931230fa.jpg,sunaalltyvjhbzhkmvg.jpg,,,<,Place,,,,,1,,,,,,,x
102,32,Presentation,2,00786941205fa_sunagmhildamktmqjss.jpg,00728941205fa_sunaejnvnpltdmhbcsi.jpg,00786941205fa.jpg,sunagmhildamktmqjss.jpg,00728941205fa.jpg,sunaejnvnpltdmhbcsi.jpg,,,<,Place,,,,,1,,,,,,,o
103,32,Presentation,2,00989960627fa_sunbondbduabvijnmch.jpg,00782941205fa_sunagfvluwixdsozaql.jpg,00989960627fa.jpg,sunbondbduabvijnmch.jpg,00782941205fa.jpg,sunagfvluwixdsozaql.jpg,,,<,Place,,,,,1,,,,,,,x
104,32,Presentation,2,00145931230fb_sunaatjesvdupctftmn.jpg,00979960627fa_sunbdycacjfaujxitbw.jpg,00145931230fb.jpg,sunaatjesvdupctftmn.jpg,00979960627fa.jpg,sunbdycacjfaujxitbw.jpg,,,<,Place,,,,,1,,,,,,,o
105,32,Presentation,2,00235940128fb_sunabclssnoeuigtawp.jpg,00770941201fa_sunaflojskatpeqyzqp.jpg,00235940128fb.jpg,sunabclssnoeuigtawp.jpg,00770941201fa.jpg,sunaflojskatpeqyzqp.jpg,,,<,Place,,,,,1,,,,,,,o
106,32,Presentation,2,00822940307fa_sunahqrxievfeusiqlt.jpg,00071940128fa_sunaaexpnawiehinlpy.jpg,00822940307fa.jpg,sunahqrxievfeusiqlt.jpg,00071940128fa.jpg,sunaaexpnawiehinlpy.jpg,,,<,Place,,,,,1,,,,,,,o
107,32,Presentation,2,01005960627fa_sunbwyuesflwdpqtgoy.jpg,00929960627fa_sunaprnrbmgkomdbchr.jpg,01005960627fa.jpg,sunbwyuesflwdpqtgoy.jpg,00929960627fa.jpg,sunaprnrbmgkomdbchr.jpg,,,<,Place,,,,,1,,,,,,,x
108,32,Presentation,2,00681941121fa_sunadqmjrhfjyuzyvdd.jpg,00210940128fb_sunabanoxjtqxamkucc.jpg,00681941121fa.jpg,sunadqmjrhfjyuzyvdd.jpg,00210940128fb.jpg,sunabanoxjtqxamkucc.jpg,,,<,Place,,,,,1,,,,,,,o
109,32,Presentation,2,00938960627fa_sunaqyylsngywqzwfmx.jpg,00963960627fa_sunayaepykrqvenaqqy.jpg,00938960627fa.jpg,sunaqyylsngywqzwfmx.jpg,00963960627fa.jpg,sunayaepykrqvenaqqy.jpg,,,<,Place,,,,,1,,,,,,,o
110,32,Memory,2,,,,,,,00792941205fa.jpg,,,,,,,,,,,,,,,
111,32,Memory,2,,,,,,,sunabllobxadqcyttej.jpg,,,,,,,,,,,,,,,
112,32,Memory,2,,,,,,,sunagfvluwixdsozaql.jpg,,,,,,,,,,,,,,,
113,32,Memory,2,,,,,,,sunajtrfunvzdfticna.jpg,,,,,,,,,,,,,,,
114,32,Memory,2,,,,,,,sunaaexpnawiehinlpy.jpg,,,,,,,,,,,,,,,
115,32,Memory,2,,,,,,,00313940422fa.jpg,,,,,,,,,,,,,,,
116,32,Memory,2,,,,,,,sunapmfmzadmosuogaz.jpg,,,,,,,,,,,,,,,
117,32,Memory,2,,,,,,,sunahawfngukizslzsd.jpg,,,,,,,,,,,,,,,
118,32,Memory,2,,,,,,,sunafkmnlytenlsywia.jpg,,,,,,,,,,,,,,,
119,32,Memory,2,,,,,,,sunabclssnoeuigtawp.jpg,,,,,,,,,,,,,,,
120,32,Memory,2,,,,,,,sunagsiwrmuixqgdimb.jpg,,,,,,,,,,,,,,,
121,32,Memory,2,,,,,,,sunahqrxievfeusiqlt.jpg,,,,,,,,,,,,,,,
122,32,Memory,2,,,,,,,sunaooaqzputrowwbsw.jpg,,,,,,,,,,,,,,,
123,32,Memory,2,,,,,,,00874940307fa.jpg,,,,,,,,,,,,,,,
124,32,Memory,2,,,,,,,00919960620fa.jpg,,,,,,,,,,,,,,,
125,32,Memory,2,,,,,,,00786941205fa.jpg,,,,,,,,,,,,,,,
126,32,Memory,2,,,,,,,sunaatjesvdupctftmn.jpg,,,,,,,,,,,,,,,
127,32,Memory,2,,,,,,,00885960530fa.jpg,,,,,,,,,,,,,,,
128,32,Memory,2,,,,,,,00145931230fb.jpg,,,,,,,,,,,,,,,
129,32,Memory,2,,,,,,,00807941205fa.jpg,,,,,,,,,,,,,,,
130,32,Memory,2,,,,,,,sunaejnvnpltdmhbcsi.jpg,,,,,,,,,,,,,,,
131,32,Memory,2,,,,,,,00815941205fa.jpg,,,,,,,,,,,,,,,
132,32,Memory,2,,,,,,,sunabrwnslxalcohfre.jpg,,,,,,,,,,,,,,,
133,32,Memory,2,,,,,,,00071940128fa.jpg,,,,,,,,,,,,,,,
134,32,Memory,2,,,,,,,00822940307fa.jpg,,,,,,,,,,,,,,,
135,32,Memory,2,,,,,,,sunagpjzsbltchlwvou.jpg,,,,,,,,,,,,,,,
136,32,Memory,2,,,,,,,00296940422fa.jpg,,,,,,,,,,,,,,,
137,32,Memory,2,,,,,,,00782941205fa.jpg,,,,,,,,,,,,,,,
138,32,Memory,2,,,,,,,sunayaepykrqvenaqqy.jpg,,,,,,,,,,,,,,,
139,32,Memory,2,,,,,,,sunahiphsekjihkafsl.jpg,,,,,,,,,,,,,,,
140,32,Memory,2,,,,,,,00270940422fb.jpg,,,,,,,,,,,,,,,
141,32,Memory,2,,,,,,,sunabwjvmoaddlyxfjr.jpg,,,,,,,,,,,,,,,
142,32,Memory,2,,,,,,,00728941205fa.jpg,,,,,,,,,,,,,,,
143,32,Memory,2,,,,,,,sunakwlvxjpddialozd.jpg,,,,,,,,,,,,,,,
144,32,Memory,2,,,,,,,00768941205fa.jpg,,,,,,,,,,,,,,,
145,32,Memory,2,,,,,,,00235940128fb.jpg,,,,,,,,,,,,,,,
146,32,Memory,2,,,,,,,sunagmhildamktmqjss.jpg,,,,,,,,,,,,,,,
147,32,Memory,2,,,,,,,00911960530fa.jpg,,,,,,,,,,,,,,,
148,32,Memory,2,,,,,,,00790941205fa.jpg,,,,,,,,,,,,,,,
149,32,Memory,2,,,,,,,00963960627fa.jpg,,,,,,,,,,,,,,,
150,32,Presentation,3,00265940128fb_sunabkmdplkdbvxriff.jpg,00479940519fa_sunabxsbfwjccqxxzxq.jpg,00265940128fb.jpg,sunabkmdplkdbvxriff.jpg,00479940519fa.jpg,sunabxsbfwjccqxxzxq.jpg,,,>,Place,,,,,1,,,,,,,o
151,32,Presentation,3,00799941205fa_sunagutjvdvnhxejerz.jpg,00800941205fb_sunagvjurcwdbixvnyi.jpg,00799941205fa.jpg,sunagutjvdvnhxejerz.jpg,00800941205fb.jpg,sunagvjurcwdbixvnyi.jpg,,,>,Place,,,,,1,,,,,,,x
152,32,Presentation,3,00864940307fa_sunajawzbrlrwafowen.jpg,00290940422fa_sunabqowuarvqqcnipn.jpg,00864940307fa.jpg,sunajawzbrlrwafowen.jpg,00290940422fa.jpg,sunabqowuarvqqcnipn.jpg,,,>,Place,,,,,1,,,,,,,o
153,32,Presentation,3,00787960620fa_sunagoufulkpsxrmklt.jpg,00576941031fa_sunacvjlsylseoghjup.jpg,00787960620fa.jpg,sunagoufulkpsxrmklt.jpg,00576941031fa.jpg,sunacvjlsylseoghjup.jpg,,,>,Place,,,,,1,,,,,,,x
154,32,Presentation,3,00857940307fa_sunaiwfobocrruqznsv.jpg,00142931230fb_sunaapxkpvrhpjplsok.jpg,00857940307fa.jpg,sunaiwfobocrruqznsv.jpg,00142931230fb.jpg,sunaapxkpvrhpjplsok.jpg,,,>,Place,,,,,1,,,,,,,o
155,32,Presentation,3,00803941205fa_sunagvxkjokqimstxpe.jpg,00787941205fa_sunagmwxxwymwojbvgi.jpg,00803941205fa.jpg,sunagvxkjokqimstxpe.jpg,00787941205fa.jpg,sunagmwxxwymwojbvgi.jpg,,,>,Place,,,,,1,,,,,,,x
156,32,Presentation,3,00882960530fa_sunaknlirqjqiwbbeeg.jpg,00163931230fb_sunaavodbcpygkggnfp.jpg,00882960530fa.jpg,sunaknlirqjqiwbbeeg.jpg,00163931230fb.jpg,sunaavodbcpygkggnfp.jpg,,,>,Place,,,,,1,,,,,,,x
157,32,Presentation,3,00700941121fa_sunadsgmtznewzyasnk.jpg,00965960627fa_sunaydywdmvlfddbxbk.jpg,00700941121fa.jpg,sunadsgmtznewzyasnk.jpg,00965960627fa.jpg,sunaydywdmvlfddbxbk.jpg,,,>,Place,,,,,1,,,,,,,x
158,32,Presentation,3,00976960627fa_sunbbhqyyzmsxhsbjmp.jpg,00564941031fa_sunacsaovnjezqwbykf.jpg,00976960627fa.jpg,sunbbhqyyzmsxhsbjmp.jpg,00564941031fa.jpg,sunacsaovnjezqwbykf.jpg,,,>,Place,,,,,1,,,,,,,x
159,32,Presentation,3,00071941031fa_sunaaexqbtdswxrqjvz.jpg,00529940519fa_sunacbeefkxpymwevpk.jpg,00071941031fa.jpg,sunaaexqbtdswxrqjvz.jpg,00529940519fa.jpg,sunacbeefkxpymwevpk.jpg,,,>,Place,,,,,1,,,,,,,x
160,32,Memory,3,,,,,,,sunbwaafjdebjzttuvq.jpg,,,,,,,,,,,,,,,
161,32,Memory,3,,,,,,,00564941031fa.jpg,,,,,,,,,,,,,,,
162,32,Memory,3,,,,,,,00803941205fa.jpg,,,,,,,,,,,,,,,
163,32,Memory,3,,,,,,,sunajawzbrlrwafowen.jpg,,,,,,,,,,,,,,,
164,32,Memory,3,,,,,,,00965960627fa.jpg,,,,,,,,,,,,,,,
165,32,Memory,3,,,,,,,sunaduslxfzlbxlllnz.jpg,,,,,,,,,,,,,,,
166,32,Memory,3,,,,,,,00265940128fb.jpg,,,,,,,,,,,,,,,
167,32,Memory,3,,,,,,,00705960530fa.jpg,,,,,,,,,,,,,,,
168,32,Memory,3,,,,,,,sunacuatpqpqhyjhjqk.jpg,,,,,,,,,,,,,,,
169,32,Memory,3,,,,,,,01207940128fa.jpg,,,,,,,,,,,,,,,
170,32,Memory,3,,,,,,,00163931230fb.jpg,,,,,,,,,,,,,,,
171,32,Memory,3,,,,,,,00983960627fa.jpg,,,,,,,,,,,,,,,
172,32,Memory,3,,,,,,,sunagetqixeypsysbpn.jpg,,,,,,,,,,,,,,,
173,32,Memory,3,,,,,,,00479940519fa.jpg,,,,,,,,,,,,,,,
174,32,Memory,3,,,,,,,sunacsaovnjezqwbykf.jpg,,,,,,,,,,,,,,,
175,32,Memory,3,,,,,,,00069931230fb.jpg,,,,,,,,,,,,,,,
176,32,Memory,3,,,,,,,sunaaeowapdkwzqpgqr.jpg,,,,,,,,,,,,,,,
177,32,Memory,3,,,,,,,sunadsgmtznewzyasnk.jpg,,,,,,,,,,,,,,,
178,32,Memory,3,,,,,,,sunaapxkpvrhpjplsok.jpg,,,,,,,,,,,,,,,
179,32,Memory,3,,,,,,,sundbixjudsgeuuehrn.jpg,,,,,,,,,,,,,,,
180,32,Memory,3,,,,,,,00950960627fa.jpg,,,,,,,,,,,,,,,
181,32,Memory,3,,,,,,,sunasrjlmglmjzbmqxb.jpg,,,,,,,,,,,,,,,
182,32,Memory,3,,,,,,,00700941121fa.jpg,,,,,,,,,,,,,,,
183,32,Memory,3,,,,,,,sunabcuurugvxwparpk.jpg,,,,,,,,,,,,,,,
184,32,Memory,3,,,,,,,sunaydywdmvlfddbxbk.jpg,,,,,,,,,,,,,,,
185,32,Memory,3,,,,,,,00242940128fa.jpg,,,,,,,,,,,,,,,
186,32,Memory,3,,,,,,,00096931230fa.jpg,,,,,,,,,,,,,,,
187,32,Memory,3,,,,,,,00787960620fa.jpg,,,,,,,,,,,,,,,
188,32,Memory,3,,,,,,,01002960627fb.jpg,,,,,,,,,,,,,,,
189,32,Memory,3,,,,,,,sunaavodbcpygkggnfp.jpg,,,,,,,,,,,,,,,
190,32,Memory,3,,,,,,,sunbfyvfqiimvdaxlqn.jpg,,,,,,,,,,,,,,,
191,32,Memory,3,,,,,,,sunaaiqiqcggrskoqgy.jpg,,,,,,,,,,,,,,,
192,32,Memory,3,,,,,,,sunagoufulkpsxrmklt.jpg,,,,,,,,,,,,,,,
193,32,Memory,3,,,,,,,sunabxsbfwjccqxxzxq.jpg,,,,,,,,,,,,,,,
194,32,Memory,3,,,,,,,sunabkmdplkdbvxriff.jpg,,,,,,,,,,,,,,,
195,32,Memory,3,,,,,,,sunagvxkjokqimstxpe.jpg,,,,,,,,,,,,,,,
196,32,Memory,3,,,,,,,00571940928fa.jpg,,,,,,,,,,,,,,,
197,32,Memory,3,,,,,,,00864940307fa.jpg,,,,,,,,,,,,,,,
198,32,Memory,3,,,,,,,00780960530fa.jpg,,,,,,,,,,,,,,,
199,32,Memory,3,,,,,,,00142931230fb.jpg,,,,,,,,,,,,,,,
200,32,Presentation,4,00772941201fa_sunafpfpiiujzoesnqg.jpg,01009960627fa_sunbxzweleltykebgan.jpg,00772941201fa.jpg,sunafpfpiiujzoesnqg.jpg,01009960627fa.jpg,sunbxzweleltykebgan.jpg,,,<,Face,,,,,1,,,,,,,x
201,32,Presentation,4,00245940128fa_sunabeyhmxodahoieyk.jpg,00779941205fa_sunagdzlvkqtpnfxfcg.jpg,00245940128fa.jpg,sunabeyhmxodahoieyk.jpg,00779941205fa.jpg,sunagdzlvkqtpnfxfcg.jpg,,,<,Face,,,,,1,,,,,,,o
202,32,Presentation,4,00093931230fa_sunaahwnmtqsrhocysw.jpg,00836940307fa_sunainqelldeebvxtcz.jpg,00093931230fa.jpg,sunaahwnmtqsrhocysw.jpg,00836940307fa.jpg,sunainqelldeebvxtcz.jpg,,,<,Face,,,,,1,,,,,,,o
203,32,Presentation,4,00725941201fa_sunaefgzwiramypjvtd.jpg,00705941205fa_sunadtlxenqqxsyjvix.jpg,00725941201fa.jpg,sunaefgzwiramypjvtd.jpg,00705941205fa.jpg,sunadtlxenqqxsyjvix.jpg,,,<,Face,,,,,1,,,,,,,o
204,32,Presentation,4,00829940307fa_sunahwgbqkqcrwprgvh.jpg,00197940128fa_sunaaylzyqlqrsmfwif.jpg,00829940307fa.jpg,sunahwgbqkqcrwprgvh.jpg,00197940128fa.jpg,sunaaylzyqlqrsmfwif.jpg,,,<,Face,,,,,0,,,,,,,x
205,32,Presentation,4,00908960530fa_sunanwjjyqqwzqrqagd.jpg,00741941201fa_sunaemcowdozyphwknd.jpg,00908960530fa.jpg,sunanwjjyqqwzqrqagd.jpg,00741941201fa.jpg,sunaemcowdozyphwknd.jpg,,,<,Face,,,,,1,,,,,,,o
206,32,Presentation,4,00973960627fa_sunbbgtoeuzierkkajt.jpg,00305940422fa_sunabtrnbvpppgczjim.jpg,00973960627fa.jpg,sunbbgtoeuzierkkajt.jpg,00305940422fa.jpg,sunabtrnbvpppgczjim.jpg,,,<,Face,,,,,1,,,,,,,o
207,32,Presentation,4,00638941031fa_sunadfktsqjthoglcsm.jpg,00752960620fa_sunafbwnojpqeyzssoe.jpg,00638941031fa.jpg,sunadfktsqjthoglcsm.jpg,00752960620fa.jpg,sunafbwnojpqeyzssoe.jpg,,,<,Face,,,,,1,,,,,,,o
208,32,Presentation,4,00825940307fa_sunahrltmuwbiehihpe.jpg,00263940128fb_sunabjuovqvyfuzvqwt.jpg,00825940307fa.jpg,sunahrltmuwbiehihpe.jpg,00263940128fb.jpg,sunabjuovqvyfuzvqwt.jpg,,,<,Face,,,,,1,,,,,,,o
209,32,Presentation,4,00133931230fa_sunaanlwnpqndclffxt.jpg,00306940422fa_sunabueyoajufbkraki.jpg,00133931230fa.jpg,sunaanlwnpqndclffxt.jpg,00306940422fa.jpg,sunabueyoajufbkraki.jpg,,,<,Face,,,,,1,,,,,,,x
210,32,Memory,4,,,,,,,sunafpfpiiujzoesnqg.jpg,,,,,,,,,,,,,,,
211,32,Memory,4,,,,,,,sunafbwnojpqeyzssoe.jpg,,,,,,,,,,,,,,,
212,32,Memory,4,,,,,,,sunafgdqbclkwfocdhg.jpg,,,,,,,,,,,,,,,
213,32,Memory,4,,,,,,,00804960530fa.jpg,,,,,,,,,,,,,,,
214,32,Memory,4,,,,,,,01009960627fa.jpg,,,,,,,,,,,,,,,
215,32,Memory,4,,,,,,,00115931230fa.jpg,,,,,,,,,,,,,,,
216,32,Memory,4,,,,,,,00111931230fb.jpg,,,,,,,,,,,,,,,
217,32,Memory,4,,,,,,,00741941201fa.jpg,,,,,,,,,,,,,,,
218,32,Memory,4,,,,,,,sunaemcowdozyphwknd.jpg,,,,,,,,,,,,,,,
219,32,Memory,4,,,,,,,00838940307fa.jpg,,,,,,,,,,,,,,,
220,32,Memory,4,,,,,,,sunagwswhkvnsmuszlz.jpg,,,,,,,,,,,,,,,
221,32,Memory,4,,,,,,,sunahrltmuwbiehihpe.jpg,,,,,,,,,,,,,,,
222,32,Memory,4,,,,,,,00245940128fa.jpg,,,,,,,,,,,,,,,
223,32,Memory,4,,,,,,,sunaiozxhxgtfrmoagh.jpg,,,,,,,,,,,,,,,
224,32,Memory,4,,,,,,,00752960620fa.jpg,,,,,,,,,,,,,,,
225,32,Memory,4,,,,,,,00825940307fa.jpg,,,,,,,,,,,,,,,
226,32,Memory,4,,,,,,,00638941031fa.jpg,,,,,,,,,,,,,,,
227,32,Memory,4,,,,,,,sunaathajvxrgptwhoj.jpg,,,,,,,,,,,,,,,
228,32,Memory,4,,,,,,,00859940307fa.jpg,,,,,,,,,,,,,,,
229,32,Memory,4,,,,,,,00761960627fa.jpg,,,,,,,,,,,,,,,
230,32,Memory,4,,,,,,,sunaiycurtqsfkvcaso.jpg,,,,,,,,,,,,,,,
231,32,Memory,4,,,,,,,00818940307fa.jpg,,,,,,,,,,,,,,,
232,32,Memory,4,,,,,,,00108960530fa.jpg,,,,,,,,,,,,,,,
233,32,Memory,4,,,,,,,sunbxzweleltykebgan.jpg,,,,,,,,,,,,,,,
234,32,Memory,4,,,,,,,00753941201fa.jpg,,,,,,,,,,,,,,,
235,32,Memory,4,,,,,,,sunaakmxzhuceuiryah.jpg,,,,,,,,,,,,,,,
236,32,Memory,4,,,,,,,00772941201fa.jpg,,,,,,,,,,,,,,,
237,32,Memory,4,,,,,,,00779941205fa.jpg,,,,,,,,,,,,,,,
238,32,Memory,4,,,,,,,sunabeyhmxodahoieyk.jpg,,,,,,,,,,,,,,,
239,32,Memory,4,,,,,,,00973960627fa.jpg,,,,,,,,,,,,,,,
240,32,Memory,4,,,,,,,00705941205fa.jpg,,,,,,,,,,,,,,,
241,32,Memory,4,,,,,,,00144931230fb.jpg,,,,,,,,,,,,,,,
242,32,Memory,4,,,,,,,sunagdzlvkqtpnfxfcg.jpg,,,,,,,,,,,,,,,
243,32,Memory,4,,,,,,,sunahpblecxtmuzkmxb.jpg,,,,,,,,,,,,,,,
244,32,Memory,4,,,,,,,sunadtlxenqqxsyjvix.jpg,,,,,,,,,,,,,,,
245,32,Memory,4,,,,,,,sunaakgekhjklxmvulj.jpg,,,,,,,,,,,,,,,
246,32,Memory,4,,,,,,,sunafcofuuzebuadceo.jpg,,,,,,,,,,,,,,,
247,32,Memory,4,,,,,,,sunadfktsqjthoglcsm.jpg,,,,,,,,,,,,,,,
248,32,Memory,4,,,,,,,sunaajtnvzzpsjdzres.jpg,,,,,,,,,,,,,,,
249,32,Memory,4,,,,,,,sunbbgtoeuzierkkajt.jpg,,,,,,,,,,,,,,,
250,32,Presentation,5,00124931230fa_sunaalhlvzmjmitybdn.jpg,00076931230fa_sunaafewhewbxmjiurz.jpg,00124931230fa.jpg,sunaalhlvzmjmitybdn.jpg,00076931230fa.jpg,sunaafewhewbxmjiurz.jpg,,,<,Place,,,,,1,,,,,,,o
251,32,Presentation,5,00636941031fa_sunaddtdkycxbqlpfqa.jpg,00949960627fb_sunasnqkkyhilqkxiqm.jpg,00636941031fa.jpg,sunaddtdkycxbqlpfqa.jpg,00949960627fb.jpg,sunasnqkkyhilqkxiqm.jpg,,,<,Place,,,,,1,,,,,,,o
252,32,Presentation,5,00630940928fa_sunaczwgyukesaajxnx.jpg,00720960620fa_sunaecpkgfewqqreqwe.jpg,00630940928fa.jpg,sunaczwgyukesaajxnx.jpg,00720960620fa.jpg,sunaecpkgfewqqreqwe.jpg,,,<,Place,,,,,1,,,,,,,x
253,32,Presentation,5,00138931230fa_sunaapfaivxqoynnwwp.jpg,00876960620fa_sunajwqkfsykceonyig.jpg,00138931230fa.jpg,sunaapfaivxqoynnwwp.jpg,00876960620fa.jpg,sunajwqkfsykceonyig.jpg,,,<,Place,,,,,1,,,,,,,o
254,32,Presentation,5,00961960627fa_sunawotxrevnqvamsfp.jpg,00947960627fa_sunasmmcxdddtmtazwx.jpg,00961960627fa.jpg,sunawotxrevnqvamsfp.jpg,00947960627fa.jpg,sunasmmcxdddtmtazwx.jpg,,,<,Place,,,,,1,,,,,,,x
255,32,Presentation,5,00132931230fb_sunaanjcbzdvtvblsdy.jpg,00809960620fa_sunahbvlpavurqoxdeq.jpg,00132931230fb.jpg,sunaanjcbzdvtvblsdy.jpg,00809960620fa.jpg,sunahbvlpavurqoxdeq.jpg,,,<,Place,,,,,1,,,,,,,o
256,32,Presentation,5,00774941201fa_sunafvtpfczkzopbgue.jpg,00894960620fa_sunalqmfgeadpqsyzpd.jpg,00774941201fa.jpg,sunafvtpfczkzopbgue.jpg,00894960620fa.jpg,sunalqmfgeadpqsyzpd.jpg,,,<,Place,,,,,1,,,,,,,x
257,32,Presentation,5,00294940422fb_sunabrlndkruqokhury.jpg,00871940307_sunajrujcsdxmfbssmc.jpg,00294940422fb.jpg,sunabrlndkruqokhury.jpg,00871940307.jpg,sunajrujcsdxmfbssmc.jpg,,,<,Place,,,,,1,,,,,,,o
258,32,Presentation,5,00218940128fa_sunabbwggenhfbftyvi.jpg,00970960627fa_sunbasypfgzjtomktmu.jpg,00218940128fa.jpg,sunabbwggenhfbftyvi.jpg,00970960627fa.jpg,sunbasypfgzjtomktmu.jpg,,,<,Place,,,,,0,,,,,,,o
259,32,Presentation,5,00745941205fa_sunaeouogqolxvggaoq.jpg,00892960530fa_sunalntxqqadigcletd.jpg,00745941205fa.jpg,sunaeouogqolxvggaoq.jpg,00892960530fa.jpg,sunalntxqqadigcletd.jpg,,,<,Place,,,,,1,,,,,,,o
260,32,Memory,5,,,,,,,sunaczwgyukesaajxnx.jpg,,,,,,,,,,,,,,,
261,32,Memory,5,,,,,,,sunaalhlvzmjmitybdn.jpg,,,,,,,,,,,,,,,
262,32,Memory,5,,,,,,,00119931230fb.jpg,,,,,,,,,,,,,,,
263,32,Memory,5,,,,,,,sunaauglwmctnkxyird.jpg,,,,,,,,,,,,,,,
264,32,Memory,5,,,,,,,00276940422fa.jpg,,,,,,,,,,,,,,,
265,32,Memory,5,,,,,,,sunahbvlpavurqoxdeq.jpg,,,,,,,,,,,,,,,
266,32,Memory,5,,,,,,,00985960627fa.jpg,,,,,,,,,,,,,,,
267,32,Memory,5,,,,,,,00149931230fa.jpg,,,,,,,,,,,,,,,
268,32,Memory,5,,,,,,,sunabmytpyhsgigllxu.jpg,,,,,,,,,,,,,,,
269,32,Memory,5,,,,,,,00147931230fb.jpg,,,,,,,,,,,,,,,
270,32,Memory,5,,,,,,,00092931230fa.jpg,,,,,,,,,,,,,,,
271,32,Memory,5,,,,,,,00630940928fa.jpg,,,,,,,,,,,,,,,
272,32,Memory,5,,,,,,,sunaaheqzstzxuadglu.jpg,,,,,,,,,,,,,,,
273,32,Memory,5,,,,,,,00949960627fb.jpg,,,,,,,,,,,,,,,
274,32,Memory,5,,,,,,,sunbgklxeqjhdbyfhhy.jpg,,,,,,,,,,,,,,,
275,32,Memory,5,,,,,,,sunaatpkocdkocwxpkb.jpg,,,,,,,,,,,,,,,
276,32,Memory,5,,,,,,,00809960620fa.jpg,,,,,,,,,,,,,,,
277,32,Memory,5,,,,,,,sunabmbnddafmywtjjj.jpg,,,,,,,,,,,,,,,
278,32,Memory,5,,,,,,,00720960620fa.jpg,,,,,,,,,,,,,,,
279,32,Memory,5,,,,,,,00933960627fa.jpg,,,,,,,,,,,,,,,
280,32,Memory,5,,,,,,,sunawotxrevnqvamsfp.jpg,,,,,,,,,,,,,,,
281,32,Memory,5,,,,,,,sunasnqkkyhilqkxiqm.jpg,,,,,,,,,,,,,,,
282,32,Memory,5,,,,,,,00124931230fa.jpg,,,,,,,,,,,,,,,
283,32,Memory,5,,,,,,,sunaakvmbftkrgqhjun.jpg,,,,,,,,,,,,,,,
284,32,Memory,5,,,,,,,sunaecpkgfewqqreqwe.jpg,,,,,,,,,,,,,,,
285,32,Memory,5,,,,,,,sunafvtpfczkzopbgue.jpg,,,,,,,,,,,,,,,
286,32,Memory,5,,,,,,,sunapwjkcxdaeqehfql.jpg,,,,,,,,,,,,,,,
287,32,Memory,5,,,,,,,00947960627fa.jpg,,,,,,,,,,,,,,,
288,32,Memory,5,,,,,,,00077931230fb.jpg,,,,,,,,,,,,,,,
289,32,Memory,5,,,,,,,00961960627fa.jpg,,,,,,,,,,,,,,,
290,32,Memory,5,,,,,,,00935960627fa.jpg,,,,,,,,,,,,,,,
291,32,Memory,5,,,,,,,sunaafgqutfaishsxyu.jpg,,,,,,,,,,,,,,,
292,32,Memory,5,,,,,,,00745941205fa.jpg,,,,,,,,,,,,,,,
293,32,Memory,5,,,,,,,sunaeouogqolxvggaoq.jpg,,,,,,,,,,,,,,,
294,32,Memory,5,,,,,,,sunasmmcxdddtmtazwx.jpg,,,,,,,,,,,,,,,
295,32,Memory,5,,,,,,,00271940422fa.jpg,,,,,,,,,,,,,,,
296,32,Memory,5,,,,,,,00871940307.jpg,,,,,,,,,,,,,,,
297,32,Memory,5,,,,,,,00774941201fa.jpg,,,,,,,,,,,,,,,
298,32,Memory,5,,,,,,,sunaqbmgkgqucajzrkp.jpg,,,,,,,,,,,,,,,
299,32,Memory,5,,,,,,,sunajrujcsdxmfbssmc.jpg,,,,,,,,,,,,,,,
300,32,Presentation,6,00650941031fa_sunadikxpvqeabxrvvc.jpg,00898960530fa_sunamkmeblgteyggink.jpg,00650941031fa.jpg,sunadikxpvqeabxrvvc.jpg,00898960530fa.jpg,sunamkmeblgteyggink.jpg,,,>,Face,,,,,1,,,,,,,x
301,32,Presentation,6,00959960627fa_sunavxokzybtomhbmvm.jpg,00747941201fa_sunaeutbrtswvsozxyk.jpg,00959960627fa.jpg,sunavxokzybtomhbmvm.jpg,00747941201fa.jpg,sunaeutbrtswvsozxyk.jpg,,,>,Face,,,,,1,,,,,,,x
302,32,Presentation,6,00887960530_sunalcrtwiycqobgelp.jpg,00746941201fa_sunaetydippjxikifsb.jpg,00887960530.jpg,sunalcrtwiycqobgelp.jpg,00746941201fa.jpg,sunaetydippjxikifsb.jpg,,,>,Face,,,,,1,,,,,,,o
303,32,Presentation,6,00260940128fa_sunabgfhvifeijihhjw.jpg,00931960627fa_sunaptrqvaooxfvktvw.jpg,00260940128fa.jpg,sunabgfhvifeijihhjw.jpg,00931960627fa.jpg,sunaptrqvaooxfvktvw.jpg,,,>,Face,,,,,1,,,,,,,x
304,32,Presentation,6,00742941201fa_sunaenwuebvlpdmntju.jpg,00793941205fa_sunagtjwilqjvxohypn.jpg,00742941201fa.jpg,sunaenwuebvlpdmntju.jpg,00793941205fa.jpg,sunagtjwilqjvxohypn.jpg,,,>,Face,,,,,1,,,,,,,x
305,32,Presentation,6,00221940128fa_sunabcfpwlpolnutyju.jpg,00791941205fa_sunagrmyoovzukhxmlo.jpg,00221940128fa.jpg,sunabcfpwlpolnutyju.jpg,00791941205fa.jpg,sunagrmyoovzukhxmlo.jpg,,,>,Face,,,,,1,,,,,,,o
306,32,Presentation,6,00227940128fa_sunabckqabszusgcykj.jpg,00848940307fa_sunaivdylrawbmhryfp.jpg,00227940128fa.jpg,sunabckqabszusgcykj.jpg,00848940307fa.jpg,sunaivdylrawbmhryfp.jpg,,,>,Face,,,,,1,,,,,,,o
307,32,Presentation,6,00193940928fa_sunaaxjpzcnxligjtjq.jpg,00719941201fa_sunadvithllcgmfxsrn.jpg,00193940928fa.jpg,sunaaxjpzcnxligjtjq.jpg,00719941201fa.jpg,sunadvithllcgmfxsrn.jpg,,,>,Face,,,,,1,,,,,,,o
308,32,Presentation,6,00925960627fa_sunapqwnqzxlsfvgsjm.jpg,01007960627fa_sunbxarcshsnqsefemx.jpg,00925960627fa.jpg,sunapqwnqzxlsfvgsjm.jpg,01007960627fa.jpg,sunbxarcshsnqsefemx.jpg,,,>,Face,,,,,1,,,,,,,o
309,32,Presentation,6,00208940128fa_sunaazzyhbvqjpmazjq.jpg,00543940519fa_sunacepzfrmtkiqonpy.jpg,00208940128fa.jpg,sunaazzyhbvqjpmazjq.jpg,00543940519fa.jpg,sunacepzfrmtkiqonpy.jpg,,,>,Face,,,,,1,,,,,,,o
310,32,Memory,6,,,,,,,sunagtjwilqjvxohypn.jpg,,,,,,,,,,,,,,,
311,32,Memory,6,,,,,,,00746941201fa.jpg,,,,,,,,,,,,,,,
312,32,Memory,6,,,,,,,00747941201fa.jpg,,,,,,,,,,,,,,,
313,32,Memory,6,,,,,,,00211940128fa.jpg,,,,,,,,,,,,,,,
314,32,Memory,6,,,,,,,sunaedtgwjvvziytspa.jpg,,,,,,,,,,,,,,,
315,32,Memory,6,,,,,,,00925960627fa.jpg,,,,,,,,,,,,,,,
316,32,Memory,6,,,,,,,00260940128fa.jpg,,,,,,,,,,,,,,,
317,32,Memory,6,,,,,,,00898960530fa.jpg,,,,,,,,,,,,,,,
318,32,Memory,6,,,,,,,00793941205fa.jpg,,,,,,,,,,,,,,,
319,32,Memory,6,,,,,,,sunacvzhvcksnwqcqbw.jpg,,,,,,,,,,,,,,,
320,32,Memory,6,,,,,,,sunacsdhbbsybcyxnel.jpg,,,,,,,,,,,,,,,
321,32,Memory,6,,,,,,,00568940928fa.jpg,,,,,,,,,,,,,,,
322,32,Memory,6,,,,,,,00902960530fa.jpg,,,,,,,,,,,,,,,
323,32,Memory,6,,,,,,,sunbtpilbhhbmhmeuzq.jpg,,,,,,,,,,,,,,,
324,32,Memory,6,,,,,,,sunalcrtwiycqobgelp.jpg,,,,,,,,,,,,,,,
325,32,Memory,6,,,,,,,00723941201fa.jpg,,,,,,,,,,,,,,,
326,32,Memory,6,,,,,,,sunapqwnqzxlsfvgsjm.jpg,,,,,,,,,,,,,,,
327,32,Memory,6,,,,,,,00887960530.jpg,,,,,,,,,,,,,,,
328,32,Memory,6,,,,,,,sunabgfhvifeijihhjw.jpg,,,,,,,,,,,,,,,
329,32,Memory,6,,,,,,,sunaddsaeicthrfbkhe.jpg,,,,,,,,,,,,,,,
330,32,Memory,6,,,,,,,00635941031fa.jpg,,,,,,,,,,,,,,,
331,32,Memory,6,,,,,,,sunabcfpwlpolnutyju.jpg,,,,,,,,,,,,,,,
332,32,Memory,6,,,,,,,sunabasphceswhwwqvv.jpg,,,,,,,,,,,,,,,
333,32,Memory,6,,,,,,,sunagtqhhwxjeuxdebe.jpg,,,,,,,,,,,,,,,
334,32,Memory,6,,,,,,,00931960627fa.jpg,,,,,,,,,,,,,,,
335,32,Memory,6,,,,,,,00794960620fa.jpg,,,,,,,,,,,,,,,
336,32,Memory,6,,,,,,,00208940128fa.jpg,,,,,,,,,,,,,,,
337,32,Memory,6,,,,,,,00221940128fa.jpg,,,,,,,,,,,,,,,
338,32,Memory,6,,,,,,,sunaazzyhbvqjpmazjq.jpg,,,,,,,,,,,,,,,
339,32,Memory,6,,,,,,,00581940928fa.jpg,,,,,,,,,,,,,,,
340,32,Memory,6,,,,,,,sunaptrqvaooxfvktvw.jpg,,,,,,,,,,,,,,,
341,32,Memory,6,,,,,,,sunamkmeblgteyggink.jpg,,,,,,,,,,,,,,,
342,32,Memory,6,,,,,,,sunaeutbrtswvsozxyk.jpg,,,,,,,,,,,,,,,
343,32,Memory,6,,,,,,,sunaetydippjxikifsb.jpg,,,,,,,,,,,,,,,
344,32,Memory,6,,,,,,,00662941121fa.jpg,,,,,,,,,,,,,,,
345,32,Memory,6,,,,,,,sunanaacmmosxrfwmvl.jpg,,,,,,,,,,,,,,,
346,32,Memory,6,,,,,,,00944960627fa.jpg,,,,,,,,,,,,,,,
347,32,Memory,6,,,,,,,00997960627fa.jpg,,,,,,,,,,,,,,,
348,32,Memory,6,,,,,,,sunasbbntuiheekqyaq.jpg,,,,,,,,,,,,,,,
349,32,Memory,6,,,,,,,sunadkazmlajmohnwfl.jpg,,,,,,,,,,,,,,,
350,32,Presentation,7,00839940307fa_sunaipyohrqlwngaqif.jpg,00953960627fa_sunatstrpjxhvtbaczf.jpg,00839940307fa.jpg,sunaipyohrqlwngaqif.jpg,00953960627fa.jpg,sunatstrpjxhvtbaczf.jpg,,,<,Face,,,,,1,,,,,,,o
351,32,Presentation,7,00993960627fa_sunbprywzqxjcezkbch.jpg,00795941205fa_sunagtumacdlmciqamz.jpg,00993960627fa.jpg,sunbprywzqxjcezkbch.jpg,00795941205fa.jpg,sunagtumacdlmciqamz.jpg,,,<,Face,,,,,1,,,,,,,x
352,32,Presentation,7,00901960530fa_sunammbnoambmhdxdwd.jpg,00982960627fa_sunbesrwkdsffeogeqq.jpg,00901960530fa.jpg,sunammbnoambmhdxdwd.jpg,00982960627fa.jpg,sunbesrwkdsffeogeqq.jpg,,,<,Face,,,,,1,,,,,,,x
353,32,Presentation,7,00631940928fa_sunadbdqzigzwipuipr.jpg,00870940307fa_sunajrgtewnualfcerj.jpg,00631940928fa.jpg,sunadbdqzigzwipuipr.jpg,00870940307fa.jpg,sunajrgtewnualfcerj.jpg,,,<,Face,,,,,0,,,,,,,x
354,32,Presentation,7,00129931230fb_sunaamsdyakblkfoydx.jpg,00778941205fa_sunagcthdfirrcawoic.jpg,00129931230fb.jpg,sunaamsdyakblkfoydx.jpg,00778941205fa.jpg,sunagcthdfirrcawoic.jpg,,,<,Face,,,,,1,,,,,,,x
355,32,Presentation,7,00893960530Fa_sunaloffvbvysigxent.jpg,00996960627fa_sunbpvgllfdejxcpjqp.jpg,00893960530Fa.jpg,sunaloffvbvysigxent.jpg,00996960627fa.jpg,sunbpvgllfdejxcpjqp.jpg,,,<,Face,,,,,0,,,,,,,x
356,32,Presentation,7,00866940307fa_sunajbwkywmsqkldfml.jpg,00507940519fa_sunacacflqoyxhsqzhe.jpg,00866940307fa.jpg,sunajbwkywmsqkldfml.jpg,00507940519fa.jpg,sunacacflqoyxhsqzhe.jpg,,,<,Face,,,,,1,,,,,,,x
357,32,Presentation,7,00154931230fa_sunaauueuhhvklldjik.jpg,00828940307fa_sunahuynahneraqftyz.jpg,00154931230fa.jpg,sunaauueuhhvklldjik.jpg,00828940307fa.jpg,sunahuynahneraqftyz.jpg,,,<,Face,,,,,1,,,,,,,o
358,32,Presentation,7,00727941205fa_sunaeisnjeetzmkbuad.jpg,00127931230fa_sunaampvucecsfbdafn.jpg,00727941205fa.jpg,sunaeisnjeetzmkbuad.jpg,00127931230fa.jpg,sunaampvucecsfbdafn.jpg,,,<,Face,,,,,1,,,,,,,x
359,32,Presentation,7,00184940128fa_sunaavtbadenwnzeutj.jpg,00783941205fa_sunagjeesomrwjsfqie.jpg,00184940128fa.jpg,sunaavtbadenwnzeutj.jpg,00783941205fa.jpg,sunagjeesomrwjsfqie.jpg,,,<,Face,,,,,0,,,,,,,x
360,32,Memory,7,,,,,,,00507940519fa.jpg,,,,,,,,,,,,,,,
361,32,Memory,7,,,,,,,sunaampvucecsfbdafn.jpg,,,,,,,,,,,,,,,
362,32,Memory,7,,,,,,,sunajbwkywmsqkldfml.jpg,,,,,,,,,,,,,,,
363,32,Memory,7,,,,,,,00727941205fa.jpg,,,,,,,,,,,,,,,
364,32,Memory,7,,,,,,,sunagcinxkccdtrjmlv.jpg,,,,,,,,,,,,,,,
365,32,Memory,7,,,,,,,sunaibnpvhkdpdnzcnz.jpg,,,,,,,,,,,,,,,
366,32,Memory,7,,,,,,,00663941121fa.jpg,,,,,,,,,,,,,,,
367,32,Memory,7,,,,,,,sunanainkqdvktzoxyl.jpg,,,,,,,,,,,,,,,
368,32,Memory,7,,,,,,,sunapqkpqdfvxlbqwyo.jpg,,,,,,,,,,,,,,,
369,32,Memory,7,,,,,,,sunabxmguapjekttvwm.jpg,,,,,,,,,,,,,,,
370,32,Memory,7,,,,,,,sunadnjjzohjhbohlwq.jpg,,,,,,,,,,,,,,,
371,32,Memory,7,,,,,,,sunbprywzqxjcezkbch.jpg,,,,,,,,,,,,,,,
372,32,Memory,7,,,,,,,00559940519fa.jpg,,,,,,,,,,,,,,,
373,32,Memory,7,,,,,,,00937960627fa.jpg,,,,,,,,,,,,,,,
374,32,Memory,7,,,,,,,00996960627fa.jpg,,,,,,,,,,,,,,,
375,32,Memory,7,,,,,,,sunbpvgllfdejxcpjqp.jpg,,,,,,,,,,,,,,,
376,32,Memory,7,,,,,,,sunacjkmnpawfzbyvae.jpg,,,,,,,,,,,,,,,
377,32,Memory,7,,,,,,,00982960627fa.jpg,,,,,,,,,,,,,,,
378,32,Memory,7,,,,,,,00993960627fa.jpg,,,,,,,,,,,,,,,
379,32,Memory,7,,,,,,,sunbesrwkdsffeogeqq.jpg,,,,,,,,,,,,,,,
380,32,Memory,7,,,,,,,sunacacflqoyxhsqzhe.jpg,,,,,,,,,,,,,,,
381,32,Memory,7,,,,,,,sunagtumacdlmciqamz.jpg,,,,,,,,,,,,,,,
382,32,Memory,7,,,,,,,sunaijsqpvodplbwxkf.jpg,,,,,,,,,,,,,,,
383,32,Memory,7,,,,,,,sunaeisnjeetzmkbuad.jpg,,,,,,,,,,,,,,,
384,32,Memory,7,,,,,,,sunaipyohrqlwngaqif.jpg,,,,,,,,,,,,,,,
385,32,Memory,7,,,,,,,00795941205fa.jpg,,,,,,,,,,,,,,,
386,32,Memory,7,,,,,,,00903960620fa.jpg,,,,,,,,,,,,,,,
387,32,Memory,7,,,,,,,sunaamsdyakblkfoydx.jpg,,,,,,,,,,,,,,,
388,32,Memory,7,,,,,,,00835940307fa.jpg,,,,,,,,,,,,,,,
389,32,Memory,7,,,,,,,00839940307fa.jpg,,,,,,,,,,,,,,,
390,32,Memory,7,,,,,,,00921960627fa.jpg,,,,,,,,,,,,,,,
391,32,Memory,7,,,,,,,00127931230fa.jpg,,,,,,,,,,,,,,,
392,32,Memory,7,,,,,,,00777941205fa.jpg,,,,,,,,,,,,,,,
393,32,Memory,7,,,,,,,00866940307fa.jpg,,,,,,,,,,,,,,,
394,32,Memory,7,,,,,,,sunaqsolmfydodnakub.jpg,,,,,,,,,,,,,,,
395,32,Memory,7,,,,,,,sunaavjinpnkappuonm.jpg,,,,,,,,,,,,,,,
396,32,Memory,7,,,,,,,00129931230fb.jpg,,,,,,,,,,,,,,,
397,32,Memory,7,,,,,,,00834940307fa.jpg,,,,,,,,,,,,,,,
398,32,Memory,7,,,,,,,00316940422fa.jpg,,,,,,,,,,,,,,,
399,32,Memory,7,,,,,,,00162931230fb.jpg,,,,,,,,,,,,,,,
