,Subject,Trial Type,Run,Cued Composite,Uncued Composite,Cued Face,Cued Place,Uncued Face,Uncued Place,Memory Image,Category,Cued Side,Cued Category,Attention Response Time (s),Familiarity Reaction Time (s),Familiarity Rating,Attention Level,Cue Validity,Post Invalid Cue,Pre Invalid Cue,Attention Button,Rating History,Stimulus Onset,Stimulus End,Attention Probe
0,21,Presentation,0,00794960620fa_sunagtqhhwxjeuxdebe.jpg,00977960627fa_sunbbxkanhzjgbwyxqs.jpg,,,,,,,<,Face,,,,,1,,,,,,,x
1,21,Presentation,0,00925960627fa_sunapqwnqzxlsfvgsjm.jpg,00070940307fa_sunaaeplwsfslcbtojr.jpg,,,,,,,>,Face,,,,,1,,,,,,,x
2,21,Presentation,0,00807941205fa_sunahawfngukizslzsd.jpg,00130931230fa_sunaamvxnvouicstkjb.jpg,,,,,,,<,Place,,,,,1,,,,,,,x
3,21,Presentation,0,00775941205fa_sunafvwfsmqkjrutjta.jpg,00812941205fa_sunahgtbwgsmtqeodwh.jpg,,,,,,,<,Face,,,,,1,,,,,,,o
4,21,Presentation,0,00997960627fa_sunbtpilbhhbmhmeuzq.jpg,00743941201fa_sunaeoghzrjarigmwua.jpg,,,,,,,<,Place,,,,,1,,,,,,,x
5,21,Presentation,0,00218940128fa_sunabbwggenhfbftyvi.jpg,00096931230fa_sunaaiqiqcggrskoqgy.jpg,,,,,,,>,Face,,,,,1,,,,,,,o
6,21,Presentation,0,00280940422fb_sunabohxbskznglnrhv.jpg,00804960530fa_sunagwswhkvnsmuszlz.jpg,,,,,,,>,Place,,,,,1,,,,,,,o
7,21,Presentation,0,00728941205fa_sunaejnvnpltdmhbcsi.jpg,00193940928fa_sunaaxjpzcnxligjtjq.jpg,,,,,,,<,Place,,,,,1,,,,,,,x
8,21,Presentation,0,00554940519fa_sunacfdkbsrughwqwtt.jpg,00847940307fa_sunaivdjruhkrfywfed.jpg,,,,,,,>,Face,,,,,1,,,,,,,x
9,21,Presentation,0,00102931230fa_sunaajspcoepticvplv.jpg,01002960627fb_sunbwaafjdebjzttuvq.jpg,,,,,,,>,Place,,,,,1,,,,,,,o
10,21,Memory,0,,,,,,,sunaafewhewbxmjiurz.jpg,,,,,,,,,,,,,,,
11,21,Memory,0,,,,,,,00060931230fa.jpg,,,,,,,,,,,,,,,
12,21,Memory,0,,,,,,,sunahgtbwgsmtqeodwh.jpg,,,,,,,,,,,,,,,
13,21,Memory,0,,,,,,,sunaaehaikpckyjsety.jpg,,,,,,,,,,,,,,,
14,21,Memory,0,,,,,,,sunaauhozyxzeeqstxi.jpg,,,,,,,,,,,,,,,
15,21,Memory,0,,,,,,,sunbbxkanhzjgbwyxqs.jpg,,,,,,,,,,,,,,,
16,21,Memory,0,,,,,,,00864940307fa.jpg,,,,,,,,,,,,,,,
17,21,Memory,0,,,,,,,00773941201fa.jpg,,,,,,,,,,,,,,,
18,21,Memory,0,,,,,,,sunabmytpyhsgigllxu.jpg,,,,,,,,,,,,,,,
19,21,Memory,0,,,,,,,00847940307fa.jpg,,,,,,,,,,,,,,,
20,21,Memory,0,,,,,,,00775941205fa.jpg,,,,,,,,,,,,,,,
21,21,Memory,0,,,,,,,sunafvwfsmqkjrutjta.jpg,,,,,,,,,,,,,,,
22,21,Memory,0,,,,,,,sunaivdjruhkrfywfed.jpg,,,,,,,,,,,,,,,
23,21,Memory,0,,,,,,,00728941205fa.jpg,,,,,,,,,,,,,,,
24,21,Memory,0,,,,,,,00719960620fa.jpg,,,,,,,,,,,,,,,
25,21,Memory,0,,,,,,,sunagtqhhwxjeuxdebe.jpg,,,,,,,,,,,,,,,
26,21,Memory,0,,,,,,,00977960627fa.jpg,,,,,,,,,,,,,,,
27,21,Memory,0,,,,,,,00554940519fa.jpg,,,,,,,,,,,,,,,
28,21,Memory,0,,,,,,,00804960530fa.jpg,,,,,,,,,,,,,,,
29,21,Memory,0,,,,,,,sunafvcflzhlqloapyo.jpg,,,,,,,,,,,,,,,
30,21,Memory,0,,,,,,,sunaeoghzrjarigmwua.jpg,,,,,,,,,,,,,,,
31,21,Memory,0,,,,,,,sunaejnvnpltdmhbcsi.jpg,,,,,,,,,,,,,,,
32,21,Memory,0,,,,,,,sunajawzbrlrwafowen.jpg,,,,,,,,,,,,,,,
33,21,Memory,0,,,,,,,sunagvprlbprarvgdvj.jpg,,,,,,,,,,,,,,,
34,21,Memory,0,,,,,,,00109931230fa.jpg,,,,,,,,,,,,,,,
35,21,Memory,0,,,,,,,sunapqwoeotxshkukbh.jpg,,,,,,,,,,,,,,,
36,21,Memory,0,,,,,,,sunaajuzribjrizdshh.jpg,,,,,,,,,,,,,,,
37,21,Memory,0,,,,,,,00743941201fa.jpg,,,,,,,,,,,,,,,
38,21,Memory,0,,,,,,,00926960627Fa.jpg,,,,,,,,,,,,,,,
39,21,Memory,0,,,,,,,00153931230fa.jpg,,,,,,,,,,,,,,,
40,21,Memory,0,,,,,,,00076931230fa.jpg,,,,,,,,,,,,,,,
41,21,Memory,0,,,,,,,sunacfdkbsrughwqwtt.jpg,,,,,,,,,,,,,,,
42,21,Memory,0,,,,,,,00801941205fa.jpg,,,,,,,,,,,,,,,
43,21,Memory,0,,,,,,,00276940422fa.jpg,,,,,,,,,,,,,,,
44,21,Memory,0,,,,,,,sunagwswhkvnsmuszlz.jpg,,,,,,,,,,,,,,,
45,21,Memory,0,,,,,,,00807941205fa.jpg,,,,,,,,,,,,,,,
46,21,Memory,0,,,,,,,00812941205fa.jpg,,,,,,,,,,,,,,,
47,21,Memory,0,,,,,,,sunadzuvtmtmgupotmf.jpg,,,,,,,,,,,,,,,
48,21,Memory,0,,,,,,,00794960620fa.jpg,,,,,,,,,,,,,,,
49,21,Memory,0,,,,,,,sunahawfngukizslzsd.jpg,,,,,,,,,,,,,,,
50,21,Presentation,1,00744941201fa_sunaeomlfaabhpswasy.jpg,00819940307fa_sunahqldjibofgsfdgb.jpg,,,,,,,>,Face,,,,,1,,,,,,,o
51,21,Presentation,1,00790941205fa_sunagpjzsbltchlwvou.jpg,00124931230fa_sunaalhlvzmjmitybdn.jpg,,,,,,,<,Place,,,,,1,,,,,,,o
52,21,Presentation,1,00529940519fa_sunacbeefkxpymwevpk.jpg,00976960627fa_sunbbhqyyzmsxhsbjmp.jpg,,,,,,,<,Face,,,,,1,,,,,,,x
53,21,Presentation,1,00112931230fa_sunaakjaacuzulqckgl.jpg,00081941031fa_sunaaftlyfudyzuhqzf.jpg,,,,,,,>,Place,,,,,1,,,,,,,x
54,21,Presentation,1,00262940128fa_sunabizydfotqddlnjp.jpg,00796941205fa_sunaguchqqnrtodtezq.jpg,,,,,,,>,Face,,,,,1,,,,,,,x
55,21,Presentation,1,00296940422fa_sunabrwnslxalcohfre.jpg,00239940128fa_sunabctlikybqabezjv.jpg,,,,,,,<,Place,,,,,1,,,,,,,x
56,21,Presentation,1,00891960530fa_sunalkiibhqpxfamlll.jpg,00650941031fa_sunadikxpvqeabxrvvc.jpg,,,,,,,>,Face,,,,,1,,,,,,,x
57,21,Presentation,1,00818940307fa_sunahpblecxtmuzkmxb.jpg,00264940128fb_sunabjzyxcjnmztdonj.jpg,,,,,,,<,Place,,,,,0,,,,,,,x
58,21,Presentation,1,00071941031fa_sunaaexqbtdswxrqjvz.jpg,00786941205fa_sunagmhildamktmqjss.jpg,,,,,,,<,Face,,,,,1,,,,,,,x
59,21,Presentation,1,00162931230fb_sunaavjinpnkappuonm.jpg,00635941031fa_sunaddsaeicthrfbkhe.jpg,,,,,,,>,Place,,,,,1,,,,,,,o
60,21,Memory,1,,,,,,,00308940422fb.jpg,,,,,,,,,,,,,,,
61,21,Memory,1,,,,,,,sunabctlikybqabezjv.jpg,,,,,,,,,,,,,,,
62,21,Memory,1,,,,,,,sunahuynahneraqftyz.jpg,,,,,,,,,,,,,,,
63,21,Memory,1,,,,,,,sunacxeheuiigkcgquf.jpg,,,,,,,,,,,,,,,
64,21,Memory,1,,,,,,,00529940519fa.jpg,,,,,,,,,,,,,,,
65,21,Memory,1,,,,,,,00884960530fa.jpg,,,,,,,,,,,,,,,
66,21,Memory,1,,,,,,,sunabizydfotqddlnjp.jpg,,,,,,,,,,,,,,,
67,21,Memory,1,,,,,,,sunahedfrhtcwpneund.jpg,,,,,,,,,,,,,,,
68,21,Memory,1,,,,,,,sunbagfpovqwbuexqdn.jpg,,,,,,,,,,,,,,,
69,21,Memory,1,,,,,,,sunaaexqbtdswxrqjvz.jpg,,,,,,,,,,,,,,,
70,21,Memory,1,,,,,,,00811960530fa.jpg,,,,,,,,,,,,,,,
71,21,Memory,1,,,,,,,00744941201fa.jpg,,,,,,,,,,,,,,,
72,21,Memory,1,,,,,,,00976960627fa.jpg,,,,,,,,,,,,,,,
73,21,Memory,1,,,,,,,00136931230fb.jpg,,,,,,,,,,,,,,,
74,21,Memory,1,,,,,,,00071941031fa.jpg,,,,,,,,,,,,,,,
75,21,Memory,1,,,,,,,00635941031fa.jpg,,,,,,,,,,,,,,,
76,21,Memory,1,,,,,,,00239940128fa.jpg,,,,,,,,,,,,,,,
77,21,Memory,1,,,,,,,sundbixjudsgeuuehrn.jpg,,,,,,,,,,,,,,,
78,21,Memory,1,,,,,,,sunammbnoambmhdxdwd.jpg,,,,,,,,,,,,,,,
79,21,Memory,1,,,,,,,sunaddsaeicthrfbkhe.jpg,,,,,,,,,,,,,,,
80,21,Memory,1,,,,,,,sunabjzyxcjnmztdonj.jpg,,,,,,,,,,,,,,,
81,21,Memory,1,,,,,,,00968960627fa.jpg,,,,,,,,,,,,,,,
82,21,Memory,1,,,,,,,sunaeomlfaabhpswasy.jpg,,,,,,,,,,,,,,,
83,21,Memory,1,,,,,,,sunaanptmsknhirrzed.jpg,,,,,,,,,,,,,,,
84,21,Memory,1,,,,,,,00262940128fa.jpg,,,,,,,,,,,,,,,
85,21,Memory,1,,,,,,,00901960530fa.jpg,,,,,,,,,,,,,,,
86,21,Memory,1,,,,,,,00790941205fa.jpg,,,,,,,,,,,,,,,
87,21,Memory,1,,,,,,,sunbpvgllfdejxcpjqp.jpg,,,,,,,,,,,,,,,
88,21,Memory,1,,,,,,,sunaguchqqnrtodtezq.jpg,,,,,,,,,,,,,,,
89,21,Memory,1,,,,,,,sunabwfvcqqidycwypa.jpg,,,,,,,,,,,,,,,
90,21,Memory,1,,,,,,,sunbbhqyyzmsxhsbjmp.jpg,,,,,,,,,,,,,,,
91,21,Memory,1,,,,,,,00796941205fa.jpg,,,,,,,,,,,,,,,
92,21,Memory,1,,,,,,,00828940307fa.jpg,,,,,,,,,,,,,,,
93,21,Memory,1,,,,,,,sunacbeefkxpymwevpk.jpg,,,,,,,,,,,,,,,
94,21,Memory,1,,,,,,,01207940128fa.jpg,,,,,,,,,,,,,,,
95,21,Memory,1,,,,,,,sunakodkcslgqhqlgwl.jpg,,,,,,,,,,,,,,,
96,21,Memory,1,,,,,,,00264940128fb.jpg,,,,,,,,,,,,,,,
97,21,Memory,1,,,,,,,00996960627fa.jpg,,,,,,,,,,,,,,,
98,21,Memory,1,,,,,,,00598940928fa.jpg,,,,,,,,,,,,,,,
99,21,Memory,1,,,,,,,sunagpjzsbltchlwvou.jpg,,,,,,,,,,,,,,,
100,21,Presentation,2,00754941201fa_sunaffgsyyvoqdlkmnk.jpg,00922960627fa_sunapqkyghktgtosuuk.jpg,,,,,,,<,Face,,,,,1,,,,,,,o
101,21,Presentation,2,00266940128fb_sunabkngeblodihjvbk.jpg,00581940928fa_sunacvzhvcksnwqcqbw.jpg,,,,,,,>,Face,,,,,0,,,,,,,x
102,21,Presentation,2,00963960627fa_sunayaepykrqvenaqqy.jpg,00101931230fb_sunaajqmsaavkmgbsth.jpg,,,,,,,>,Place,,,,,1,,,,,,,x
103,21,Presentation,2,00720960620fa_sunaecpkgfewqqreqwe.jpg,00908960530fa_sunanwjjyqqwzqrqagd.jpg,,,,,,,<,Place,,,,,1,,,,,,,x
104,21,Presentation,2,00235940128fb_sunabclssnoeuigtawp.jpg,00505960627fa_sunabzuqsrgcsonqlkz.jpg,,,,,,,<,Face,,,,,1,,,,,,,x
105,21,Presentation,2,00788941205fa_sunagountlxpzkytsmp.jpg,00065931230fb_sunaaemixhfquhnxxlm.jpg,,,,,,,<,Place,,,,,1,,,,,,,o
106,21,Presentation,2,00634940928fa_sunadcphrizvfpljiqt.jpg,01000960627fa_sunbvzmgrdvaakxusbu.jpg,,,,,,,>,Place,,,,,0,,,,,,,x
107,21,Presentation,2,01003960627fb_sunbwdrdvsweerwsdrj.jpg,00063931230fa_sunaaelyvurpntclgau.jpg,,,,,,,>,Face,,,,,1,,,,,,,x
108,21,Presentation,2,00792941205fa_sunagsiwrmuixqgdimb.jpg,00676941121fa_sunadpnqovzckyikrjo.jpg,,,,,,,>,Place,,,,,1,,,,,,,x
109,21,Presentation,2,00878960530fa_sunakgbnzxmfohgehnu.jpg,00903960620fa_sunanainkqdvktzoxyl.jpg,,,,,,,<,Face,,,,,1,,,,,,,o
110,21,Memory,2,,,,,,,01003960627fb.jpg,,,,,,,,,,,,,,,
111,21,Memory,2,,,,,,,sunafcofuuzebuadceo.jpg,,,,,,,,,,,,,,,
112,21,Memory,2,,,,,,,00065931230fb.jpg,,,,,,,,,,,,,,,
113,21,Memory,2,,,,,,,sunaaelyvurpntclgau.jpg,,,,,,,,,,,,,,,
114,21,Memory,2,,,,,,,00101931230fb.jpg,,,,,,,,,,,,,,,
115,21,Memory,2,,,,,,,00132931230fb.jpg,,,,,,,,,,,,,,,
116,21,Memory,2,,,,,,,00266940128fb.jpg,,,,,,,,,,,,,,,
117,21,Memory,2,,,,,,,00752960620fa.jpg,,,,,,,,,,,,,,,
118,21,Memory,2,,,,,,,00931960627fa.jpg,,,,,,,,,,,,,,,
119,21,Memory,2,,,,,,,sunaqyylsngywqzwfmx.jpg,,,,,,,,,,,,,,,
120,21,Memory,2,,,,,,,sunafbwnojpqeyzssoe.jpg,,,,,,,,,,,,,,,
121,21,Memory,2,,,,,,,00903960620fa.jpg,,,,,,,,,,,,,,,
122,21,Memory,2,,,,,,,sunamkmeblgteyggink.jpg,,,,,,,,,,,,,,,
123,21,Memory,2,,,,,,,00898960530fa.jpg,,,,,,,,,,,,,,,
124,21,Memory,2,,,,,,,00989960627fa.jpg,,,,,,,,,,,,,,,
125,21,Memory,2,,,,,,,sunaptrqvaooxfvktvw.jpg,,,,,,,,,,,,,,,
126,21,Memory,2,,,,,,,sunadcphrizvfpljiqt.jpg,,,,,,,,,,,,,,,
127,21,Memory,2,,,,,,,00634940928fa.jpg,,,,,,,,,,,,,,,
128,21,Memory,2,,,,,,,00063931230fa.jpg,,,,,,,,,,,,,,,
129,21,Memory,2,,,,,,,sunaajqmsaavkmgbsth.jpg,,,,,,,,,,,,,,,
130,21,Memory,2,,,,,,,sunacvzhvcksnwqcqbw.jpg,,,,,,,,,,,,,,,
131,21,Memory,2,,,,,,,00963960627fa.jpg,,,,,,,,,,,,,,,
132,21,Memory,2,,,,,,,sunaaemixhfquhnxxlm.jpg,,,,,,,,,,,,,,,
133,21,Memory,2,,,,,,,sunbwyuesflwdpqtgoy.jpg,,,,,,,,,,,,,,,
134,21,Memory,2,,,,,,,00921960627fa.jpg,,,,,,,,,,,,,,,
135,21,Memory,2,,,,,,,00753941201fa.jpg,,,,,,,,,,,,,,,
136,21,Memory,2,,,,,,,sunaffgsyyvoqdlkmnk.jpg,,,,,,,,,,,,,,,
137,21,Memory,2,,,,,,,00498960627fa.jpg,,,,,,,,,,,,,,,
138,21,Memory,2,,,,,,,sunbondbduabvijnmch.jpg,,,,,,,,,,,,,,,
139,21,Memory,2,,,,,,,01005960627fa.jpg,,,,,,,,,,,,,,,
140,21,Memory,2,,,,,,,00938960627fa.jpg,,,,,,,,,,,,,,,
141,21,Memory,2,,,,,,,sunapqkpqdfvxlbqwyo.jpg,,,,,,,,,,,,,,,
142,21,Memory,2,,,,,,,00754941201fa.jpg,,,,,,,,,,,,,,,
143,21,Memory,2,,,,,,,sunbwdrdvsweerwsdrj.jpg,,,,,,,,,,,,,,,
144,21,Memory,2,,,,,,,sunabkngeblodihjvbk.jpg,,,,,,,,,,,,,,,
145,21,Memory,2,,,,,,,sunabzjxlmkwnwzimua.jpg,,,,,,,,,,,,,,,
146,21,Memory,2,,,,,,,00581940928fa.jpg,,,,,,,,,,,,,,,
147,21,Memory,2,,,,,,,sunaanjcbzdvtvblsdy.jpg,,,,,,,,,,,,,,,
148,21,Memory,2,,,,,,,sunayaepykrqvenaqqy.jpg,,,,,,,,,,,,,,,
149,21,Memory,2,,,,,,,sunanainkqdvktzoxyl.jpg,,,,,,,,,,,,,,,
150,21,Presentation,3,00911960530fa_sunaooaqzputrowwbsw.jpg,00791941205fa_sunagrmyoovzukhxmlo.jpg,,,,,,,<,Face,,,,,1,,,,,,,o
151,21,Presentation,3,00146960620fb_sunaatpeezlljqaxlhj.jpg,00860940307fa_sunaizeyhvjzknwjudw.jpg,,,,,,,>,Face,,,,,1,,,,,,,o
152,21,Presentation,3,00730960620fa_sunaekgzpfilgjxpeyq.jpg,00955960627fb_sunauburywlkjszngcq.jpg,,,,,,,>,Place,,,,,1,,,,,,,o
153,21,Presentation,3,00953960627fa_sunatstrpjxhvtbaczf.jpg,00089931230fa_sunaagcpoejbuzyvddd.jpg,,,,,,,<,Place,,,,,0,,,,,,,o
154,21,Presentation,3,00723941201fa_sunaedtgwjvvziytspa.jpg,00267940128fb_sunablfqiwfqomjarht.jpg,,,,,,,<,Face,,,,,1,,,,,,,o
155,21,Presentation,3,00929960627fa_sunaprnrbmgkomdbchr.jpg,00648941031fa_sunadfndyrtqqiasoig.jpg,,,,,,,>,Place,,,,,1,,,,,,,o
156,21,Presentation,3,00638941031fa_sunadfktsqjthoglcsm.jpg,00797960620fa_sunagufzbeteqdjxais.jpg,,,,,,,<,Place,,,,,1,,,,,,,o
157,21,Presentation,3,00874940307fa_sunajtrfunvzdfticna.jpg,00208940128fa_sunaazzyhbvqjpmazjq.jpg,,,,,,,>,Place,,,,,1,,,,,,,o
158,21,Presentation,3,00313940422fa_sunabwjvmoaddlyxfjr.jpg,00958960627fa_sunavspxmxubqaeidjt.jpg,,,,,,,<,Face,,,,,1,,,,,,,o
159,21,Presentation,3,00919960620fa_sunapmfmzadmosuogaz.jpg,00131931230fb_sunaangbuylfvckqqoo.jpg,,,,,,,>,Face,,,,,1,,,,,,,x
160,21,Memory,3,,,,,,,00892960530fa.jpg,,,,,,,,,,,,,,,
161,21,Memory,3,,,,,,,sunacjkmnpawfzbyvae.jpg,,,,,,,,,,,,,,,
162,21,Memory,3,,,,,,,00089931230fa.jpg,,,,,,,,,,,,,,,
163,21,Memory,3,,,,,,,sunacvbrcejzwmcgnoq.jpg,,,,,,,,,,,,,,,
164,21,Memory,3,,,,,,,00800941205fb.jpg,,,,,,,,,,,,,,,
165,21,Memory,3,,,,,,,00773960620fa.jpg,,,,,,,,,,,,,,,
166,21,Memory,3,,,,,,,sunaooaqzputrowwbsw.jpg,,,,,,,,,,,,,,,
167,21,Memory,3,,,,,,,00860940307fa.jpg,,,,,,,,,,,,,,,
168,21,Memory,3,,,,,,,00961960627fa.jpg,,,,,,,,,,,,,,,
169,21,Memory,3,,,,,,,00911960530fa.jpg,,,,,,,,,,,,,,,
170,21,Memory,3,,,,,,,sunafvsxtzaizojicxx.jpg,,,,,,,,,,,,,,,
171,21,Memory,3,,,,,,,sunapmfmzadmosuogaz.jpg,,,,,,,,,,,,,,,
172,21,Memory,3,,,,,,,sunajtrfunvzdfticna.jpg,,,,,,,,,,,,,,,
173,21,Memory,3,,,,,,,sunaivdylrawbmhryfp.jpg,,,,,,,,,,,,,,,
174,21,Memory,3,,,,,,,00208940128fa.jpg,,,,,,,,,,,,,,,
175,21,Memory,3,,,,,,,sunaagcpoejbuzyvddd.jpg,,,,,,,,,,,,,,,
176,21,Memory,3,,,,,,,00905960530fa.jpg,,,,,,,,,,,,,,,
177,21,Memory,3,,,,,,,sunagrmyoovzukhxmlo.jpg,,,,,,,,,,,,,,,
178,21,Memory,3,,,,,,,00825940307fa.jpg,,,,,,,,,,,,,,,
179,21,Memory,3,,,,,,,sunahbvlpavurqoxdeq.jpg,,,,,,,,,,,,,,,
180,21,Memory,3,,,,,,,sunawotxrevnqvamsfp.jpg,,,,,,,,,,,,,,,
181,21,Memory,3,,,,,,,00791941205fa.jpg,,,,,,,,,,,,,,,
182,21,Memory,3,,,,,,,00574940928fa.jpg,,,,,,,,,,,,,,,
183,21,Memory,3,,,,,,,sunanmoqeyprjjjfxjt.jpg,,,,,,,,,,,,,,,
184,21,Memory,3,,,,,,,sunagvjurcwdbixvnyi.jpg,,,,,,,,,,,,,,,
185,21,Memory,3,,,,,,,sunaizeyhvjzknwjudw.jpg,,,,,,,,,,,,,,,
186,21,Memory,3,,,,,,,sunalntxqqadigcletd.jpg,,,,,,,,,,,,,,,
187,21,Memory,3,,,,,,,sunaangbuylfvckqqoo.jpg,,,,,,,,,,,,,,,
188,21,Memory,3,,,,,,,00131931230fb.jpg,,,,,,,,,,,,,,,
189,21,Memory,3,,,,,,,00809960620fa.jpg,,,,,,,,,,,,,,,
190,21,Memory,3,,,,,,,sunaazzyhbvqjpmazjq.jpg,,,,,,,,,,,,,,,
191,21,Memory,3,,,,,,,00313940422fa.jpg,,,,,,,,,,,,,,,
192,21,Memory,3,,,,,,,00919960620fa.jpg,,,,,,,,,,,,,,,
193,21,Memory,3,,,,,,,sunabwjvmoaddlyxfjr.jpg,,,,,,,,,,,,,,,
194,21,Memory,3,,,,,,,00953960627fa.jpg,,,,,,,,,,,,,,,
195,21,Memory,3,,,,,,,00559940519fa.jpg,,,,,,,,,,,,,,,
196,21,Memory,3,,,,,,,sunatstrpjxhvtbaczf.jpg,,,,,,,,,,,,,,,
197,21,Memory,3,,,,,,,00874940307fa.jpg,,,,,,,,,,,,,,,
198,21,Memory,3,,,,,,,sunahrltmuwbiehihpe.jpg,,,,,,,,,,,,,,,
199,21,Memory,3,,,,,,,00848940307fa.jpg,,,,,,,,,,,,,,,
200,21,Presentation,4,00900960530fa_sunamlotskmmsjeogby.jpg,00952960627fa_sunathzzbcwjykldrem.jpg,,,,,,,>,Face,,,,,1,,,,,,,x
201,21,Presentation,4,00145931230fb_sunaatjesvdupctftmn.jpg,00158931230fb_sunaavchcbptaerhcfy.jpg,,,,,,,<,Place,,,,,1,,,,,,,x
202,21,Presentation,4,00805941205fa_sunagwzdbtlixdhgolm.jpg,00108960530fa_sunaajtnvzzpsjdzres.jpg,,,,,,,<,Face,,,,,1,,,,,,,x
203,21,Presentation,4,00779941205fa_sunagdzlvkqtpnfxfcg.jpg,00985960627fa_sunbgklxeqjhdbyfhhy.jpg,,,,,,,>,Place,,,,,0,,,,,,,o
204,21,Presentation,4,00770941201fa_sunaflojskatpeqyzqp.jpg,00147931230fb_sunaatpkocdkocwxpkb.jpg,,,,,,,<,Place,,,,,1,,,,,,,x
205,21,Presentation,4,00971960627fa_sunbbegcweqnetpdlrh.jpg,00862940307fa_sunaizgnnplsvajzhkc.jpg,,,,,,,>,Face,,,,,1,,,,,,,o
206,21,Presentation,4,00762941201fa_sunafgzgbisbopcyslr.jpg,00184940128fa_sunaavtbadenwnzeutj.jpg,,,,,,,<,Place,,,,,1,,,,,,,o
207,21,Presentation,4,00062931230fb_sunaaelotvjgibjtjhs.jpg,00568940928fa_sunacsdhbbsybcyxnel.jpg,,,,,,,<,Face,,,,,1,,,,,,,x
208,21,Presentation,4,00314940422fa_sunabwmcbaxwioksdgw.jpg,00647941031fa_sunadflbrkckmepztql.jpg,,,,,,,>,Place,,,,,1,,,,,,,x
209,21,Presentation,4,00745941205fa_sunaeouogqolxvggaoq.jpg,00633940928fa_sunadbhmrgrrpyzglxs.jpg,,,,,,,>,Face,,,,,0,,,,,,,x
210,21,Memory,4,,,,,,,00663941121fa.jpg,,,,,,,,,,,,,,,
211,21,Memory,4,,,,,,,sunadakkdovnuzlycvp.jpg,,,,,,,,,,,,,,,
212,21,Memory,4,,,,,,,00564941031fa.jpg,,,,,,,,,,,,,,,
213,21,Memory,4,,,,,,,sunaaelotvjgibjtjhs.jpg,,,,,,,,,,,,,,,
214,21,Memory,4,,,,,,,00770941201fa.jpg,,,,,,,,,,,,,,,
215,21,Memory,4,,,,,,,sunacsdhbbsybcyxnel.jpg,,,,,,,,,,,,,,,
216,21,Memory,4,,,,,,,00763941205fa.jpg,,,,,,,,,,,,,,,
217,21,Memory,4,,,,,,,sunafgzgbisbopcyslr.jpg,,,,,,,,,,,,,,,
218,21,Memory,4,,,,,,,sunadflbrkckmepztql.jpg,,,,,,,,,,,,,,,
219,21,Memory,4,,,,,,,sunaygrtwrwfezqjizr.jpg,,,,,,,,,,,,,,,
220,21,Memory,4,,,,,,,sunbasypfgzjtomktmu.jpg,,,,,,,,,,,,,,,
221,21,Memory,4,,,,,,,sunajrgtewnualfcerj.jpg,,,,,,,,,,,,,,,
222,21,Memory,4,,,,,,,sunaflojskatpeqyzqp.jpg,,,,,,,,,,,,,,,
223,21,Memory,4,,,,,,,sunacsaovnjezqwbykf.jpg,,,,,,,,,,,,,,,
224,21,Memory,4,,,,,,,sunaetydippjxikifsb.jpg,,,,,,,,,,,,,,,
225,21,Memory,4,,,,,,,sunafhmnhsdurlvddpw.jpg,,,,,,,,,,,,,,,
226,21,Memory,4,,,,,,,00870940307fa.jpg,,,,,,,,,,,,,,,
227,21,Memory,4,,,,,,,00746941201fa.jpg,,,,,,,,,,,,,,,
228,21,Memory,4,,,,,,,sunadnjjzohjhbohlwq.jpg,,,,,,,,,,,,,,,
229,21,Memory,4,,,,,,,00568940928fa.jpg,,,,,,,,,,,,,,,
230,21,Memory,4,,,,,,,00762941201fa.jpg,,,,,,,,,,,,,,,
231,21,Memory,4,,,,,,,00959960627fa.jpg,,,,,,,,,,,,,,,
232,21,Memory,4,,,,,,,sunavxokzybtomhbmvm.jpg,,,,,,,,,,,,,,,
233,21,Memory,4,,,,,,,00647941031fa.jpg,,,,,,,,,,,,,,,
234,21,Memory,4,,,,,,,00966960627fa.jpg,,,,,,,,,,,,,,,
235,21,Memory,4,,,,,,,sunagwzdbtlixdhgolm.jpg,,,,,,,,,,,,,,,
236,21,Memory,4,,,,,,,00062931230fb.jpg,,,,,,,,,,,,,,,
237,21,Memory,4,,,,,,,00854940307fa.jpg,,,,,,,,,,,,,,,
238,21,Memory,4,,,,,,,00108960530fa.jpg,,,,,,,,,,,,,,,
239,21,Memory,4,,,,,,,sunbgklxeqjhdbyfhhy.jpg,,,,,,,,,,,,,,,
240,21,Memory,4,,,,,,,00630941031fa.jpg,,,,,,,,,,,,,,,
241,21,Memory,4,,,,,,,00745941205fa.jpg,,,,,,,,,,,,,,,
242,21,Memory,4,,,,,,,00805941205fa.jpg,,,,,,,,,,,,,,,
243,21,Memory,4,,,,,,,sunaiwduelojtwaqeyh.jpg,,,,,,,,,,,,,,,
244,21,Memory,4,,,,,,,00184940128fa.jpg,,,,,,,,,,,,,,,
245,21,Memory,4,,,,,,,sunaavtbadenwnzeutj.jpg,,,,,,,,,,,,,,,
246,21,Memory,4,,,,,,,sunaeouogqolxvggaoq.jpg,,,,,,,,,,,,,,,
247,21,Memory,4,,,,,,,00985960627fa.jpg,,,,,,,,,,,,,,,
248,21,Memory,4,,,,,,,00970960627fa.jpg,,,,,,,,,,,,,,,
249,21,Memory,4,,,,,,,sunaajtnvzzpsjdzres.jpg,,,,,,,,,,,,,,,
250,21,Presentation,5,00859940307fa_sunaiycurtqsfkvcaso.jpg,00829940307fa_sunahwgbqkqcrwprgvh.jpg,,,,,,,<,Place,,,,,1,,,,,,,o
251,21,Presentation,5,00827940307fa_sunahtfxgsrmkiulnwk.jpg,00198940128fb_sunaazezcsunmhttzxz.jpg,,,,,,,<,Face,,,,,1,,,,,,,o
252,21,Presentation,5,00777941205fa_sunagcinxkccdtrjmlv.jpg,00210940128fb_sunabanoxjtqxamkucc.jpg,,,,,,,<,Place,,,,,1,,,,,,,x
253,21,Presentation,5,00142931230fb_sunaapxkpvrhpjplsok.jpg,00564940928fa_sunacmpqqfbsvlzinzl.jpg,,,,,,,>,Place,,,,,1,,,,,,,o
254,21,Presentation,5,00858940307fa_sunaixpqndlwhwjtjek.jpg,00631940928fa_sunadbdqzigzwipuipr.jpg,,,,,,,>,Face,,,,,1,,,,,,,x
255,21,Presentation,5,00876960620fa_sunajwqkfsykceonyig.jpg,00636941031fa_sunaddtdkycxbqlpfqa.jpg,,,,,,,<,Face,,,,,1,,,,,,,o
256,21,Presentation,5,00123931230fb_sunaalcrrdbjgdztbiz.jpg,00776941205fa_sunafxokyavhgptyfye.jpg,,,,,,,>,Place,,,,,1,,,,,,,o
257,21,Presentation,5,00871940307_sunajrujcsdxmfbssmc.jpg,00092931230fa_sunaaheqzstzxuadglu.jpg,,,,,,,>,Face,,,,,1,,,,,,,o
258,21,Presentation,5,00086931230fa_sunaafynehyrzpsoaml.jpg,00069931230fb_sunaaeowapdkwzqpgqr.jpg,,,,,,,<,Face,,,,,1,,,,,,,o
259,21,Presentation,5,00999960627fa_sunbvbrvgbpanfrawft.jpg,00810941205fa_sunahctntqrunhdxhtb.jpg,,,,,,,>,Place,,,,,0,,,,,,,o
260,21,Memory,5,,,,,,,sunbvbrvgbpanfrawft.jpg,,,,,,,,,,,,,,,
261,21,Memory,5,,,,,,,sunacerqowiaeoqkmsq.jpg,,,,,,,,,,,,,,,
262,21,Memory,5,,,,,,,00777941205fa.jpg,,,,,,,,,,,,,,,
263,21,Memory,5,,,,,,,00876960620fa.jpg,,,,,,,,,,,,,,,
264,21,Memory,5,,,,,,,sunasmmcxdddtmtazwx.jpg,,,,,,,,,,,,,,,
265,21,Memory,5,,,,,,,00999960627fa.jpg,,,,,,,,,,,,,,,
266,21,Memory,5,,,,,,,00742941201fa.jpg,,,,,,,,,,,,,,,
267,21,Memory,5,,,,,,,00988960627fa.jpg,,,,,,,,,,,,,,,
268,21,Memory,5,,,,,,,00548940519fa.jpg,,,,,,,,,,,,,,,
269,21,Memory,5,,,,,,,sunagcinxkccdtrjmlv.jpg,,,,,,,,,,,,,,,
270,21,Memory,5,,,,,,,00564940928fa.jpg,,,,,,,,,,,,,,,
271,21,Memory,5,,,,,,,sunaawsdjisukbbginm.jpg,,,,,,,,,,,,,,,
272,21,Memory,5,,,,,,,sunbmaiocftdtvnzgap.jpg,,,,,,,,,,,,,,,
273,21,Memory,5,,,,,,,sunabanoxjtqxamkucc.jpg,,,,,,,,,,,,,,,
274,21,Memory,5,,,,,,,sunaenwuebvlpdmntju.jpg,,,,,,,,,,,,,,,
275,21,Memory,5,,,,,,,sunacmpqqfbsvlzinzl.jpg,,,,,,,,,,,,,,,
276,21,Memory,5,,,,,,,sunabcfpwlpolnutyju.jpg,,,,,,,,,,,,,,,
277,21,Memory,5,,,,,,,00210940128fb.jpg,,,,,,,,,,,,,,,
278,21,Memory,5,,,,,,,sunafowswglhxcsufpo.jpg,,,,,,,,,,,,,,,
279,21,Memory,5,,,,,,,00129931230fb.jpg,,,,,,,,,,,,,,,
280,21,Memory,5,,,,,,,00795941205fa.jpg,,,,,,,,,,,,,,,
281,21,Memory,5,,,,,,,00115931230fa.jpg,,,,,,,,,,,,,,,
282,21,Memory,5,,,,,,,00827940307fa.jpg,,,,,,,,,,,,,,,
283,21,Memory,5,,,,,,,00221940128fa.jpg,,,,,,,,,,,,,,,
284,21,Memory,5,,,,,,,sunaalcrrdbjgdztbiz.jpg,,,,,,,,,,,,,,,
285,21,Memory,5,,,,,,,00829940307fa.jpg,,,,,,,,,,,,,,,
286,21,Memory,5,,,,,,,00771941205fa.jpg,,,,,,,,,,,,,,,
287,21,Memory,5,,,,,,,sunaakmxzhuceuiryah.jpg,,,,,,,,,,,,,,,
288,21,Memory,5,,,,,,,sunagtumacdlmciqamz.jpg,,,,,,,,,,,,,,,
289,21,Memory,5,,,,,,,sunajwqkfsykceonyig.jpg,,,,,,,,,,,,,,,
290,21,Memory,5,,,,,,,sunahwgbqkqcrwprgvh.jpg,,,,,,,,,,,,,,,
291,21,Memory,5,,,,,,,00123931230fb.jpg,,,,,,,,,,,,,,,
292,21,Memory,5,,,,,,,sunaamsdyakblkfoydx.jpg,,,,,,,,,,,,,,,
293,21,Memory,5,,,,,,,sunahctntqrunhdxhtb.jpg,,,,,,,,,,,,,,,
294,21,Memory,5,,,,,,,00191940128fb.jpg,,,,,,,,,,,,,,,
295,21,Memory,5,,,,,,,sunahtfxgsrmkiulnwk.jpg,,,,,,,,,,,,,,,
296,21,Memory,5,,,,,,,00947960627fa.jpg,,,,,,,,,,,,,,,
297,21,Memory,5,,,,,,,00636941031fa.jpg,,,,,,,,,,,,,,,
298,21,Memory,5,,,,,,,00810941205fa.jpg,,,,,,,,,,,,,,,
299,21,Memory,5,,,,,,,sunaddtdkycxbqlpfqa.jpg,,,,,,,,,,,,,,,
300,21,Presentation,6,00816941205fa_sunahmhrncocyhsjpxk.jpg,00967960627fa_sunbaejotfklekvpxcz.jpg,,,,,,,>,Face,,,,,1,,,,,,,x
301,21,Presentation,6,00760960620fa_sunaffstbkappprzxnv.jpg,00894960620fa_sunalqmfgeadpqsyzpd.jpg,,,,,,,<,Face,,,,,1,,,,,,,x
302,21,Presentation,6,00780960530fa_sunagetqixeypsysbpn.jpg,00882960530fa_sunaknlirqjqiwbbeeg.jpg,,,,,,,>,Place,,,,,1,,,,,,,o
303,21,Presentation,6,00834940307fa_sunaibnpvhkdpdnzcnz.jpg,00851940307fa_sunaivflshbyfrfzhqb.jpg,,,,,,,<,Face,,,,,1,,,,,,,x
304,21,Presentation,6,00783941205fa_sunagjeesomrwjsfqie.jpg,00939960627fa_sunarceibpcyacbmfga.jpg,,,,,,,<,Place,,,,,1,,,,,,,x
305,21,Presentation,6,00982960627fa_sunbesrwkdsffeogeqq.jpg,00803941205fa_sunagvxkjokqimstxpe.jpg,,,,,,,>,Face,,,,,1,,,,,,,o
306,21,Presentation,6,00785941205fa_sunaglqunwuycxydmyu.jpg,00914960620fa_sunaozisvwfbmlkfhzv.jpg,,,,,,,>,Place,,,,,1,,,,,,,x
307,21,Presentation,6,00288940422fa_sunabppokiyglaxpcha.jpg,00835940307fa_sunaijsqpvodplbwxkf.jpg,,,,,,,<,Face,,,,,1,,,,,,,x
308,21,Presentation,6,00909960530_sunaobtizabegtwfwul.jpg,01010960627fa_suncnkvbhypnivcohyx.jpg,,,,,,,>,Place,,,,,1,,,,,,,o
309,21,Presentation,6,00727941205fa_sunaeisnjeetzmkbuad.jpg,00082931230fa_sunaafvitpexrpvumsa.jpg,,,,,,,<,Place,,,,,1,,,,,,,o
310,21,Memory,6,,,,,,,sunabbafjowbzcvbucc.jpg,,,,,,,,,,,,,,,
311,21,Memory,6,,,,,,,sunaauglwmctnkxyird.jpg,,,,,,,,,,,,,,,
312,21,Memory,6,,,,,,,00138931230fa.jpg,,,,,,,,,,,,,,,
313,21,Memory,6,,,,,,,00909960530.jpg,,,,,,,,,,,,,,,
314,21,Memory,6,,,,,,,00095931230fa.jpg,,,,,,,,,,,,,,,
315,21,Memory,6,,,,,,,00939960627fa.jpg,,,,,,,,,,,,,,,
316,21,Memory,6,,,,,,,suncnkvbhypnivcohyx.jpg,,,,,,,,,,,,,,,
317,21,Memory,6,,,,,,,sunaobtizabegtwfwul.jpg,,,,,,,,,,,,,,,
318,21,Memory,6,,,,,,,sunalqmfgeadpqsyzpd.jpg,,,,,,,,,,,,,,,
319,21,Memory,6,,,,,,,00982960627fa.jpg,,,,,,,,,,,,,,,
320,21,Memory,6,,,,,,,sunantryfbloeaomfta.jpg,,,,,,,,,,,,,,,
321,21,Memory,6,,,,,,,sunagmwxxwymwojbvgi.jpg,,,,,,,,,,,,,,,
322,21,Memory,6,,,,,,,00149931230fa.jpg,,,,,,,,,,,,,,,
323,21,Memory,6,,,,,,,00906960530fa.jpg,,,,,,,,,,,,,,,
324,21,Memory,6,,,,,,,sunaglqunwuycxydmyu.jpg,,,,,,,,,,,,,,,
325,21,Memory,6,,,,,,,01009960627fa.jpg,,,,,,,,,,,,,,,
326,21,Memory,6,,,,,,,00816941205fa.jpg,,,,,,,,,,,,,,,
327,21,Memory,6,,,,,,,00803941205fa.jpg,,,,,,,,,,,,,,,
328,21,Memory,6,,,,,,,sunacjnahdmqfnjfwqx.jpg,,,,,,,,,,,,,,,
329,21,Memory,6,,,,,,,sunajjxttslobudoqbv.jpg,,,,,,,,,,,,,,,
330,21,Memory,6,,,,,,,sunahmhrncocyhsjpxk.jpg,,,,,,,,,,,,,,,
331,21,Memory,6,,,,,,,00851940307fa.jpg,,,,,,,,,,,,,,,
332,21,Memory,6,,,,,,,00787941205fa.jpg,,,,,,,,,,,,,,,
333,21,Memory,6,,,,,,,sunbxzweleltykebgan.jpg,,,,,,,,,,,,,,,
334,21,Memory,6,,,,,,,sunagvxkjokqimstxpe.jpg,,,,,,,,,,,,,,,
335,21,Memory,6,,,,,,,sunarceibpcyacbmfga.jpg,,,,,,,,,,,,,,,
336,21,Memory,6,,,,,,,sunbesrwkdsffeogeqq.jpg,,,,,,,,,,,,,,,
337,21,Memory,6,,,,,,,00562941031fa.jpg,,,,,,,,,,,,,,,
338,21,Memory,6,,,,,,,sunaapfaivxqoynnwwp.jpg,,,,,,,,,,,,,,,
339,21,Memory,6,,,,,,,00214940128fa.jpg,,,,,,,,,,,,,,,
340,21,Memory,6,,,,,,,sunaahzooisqkwlxwoz.jpg,,,,,,,,,,,,,,,
341,21,Memory,6,,,,,,,00868960307fa.jpg,,,,,,,,,,,,,,,
342,21,Memory,6,,,,,,,01010960627fa.jpg,,,,,,,,,,,,,,,
343,21,Memory,6,,,,,,,sunaivflshbyfrfzhqb.jpg,,,,,,,,,,,,,,,
344,21,Memory,6,,,,,,,00093931230fa.jpg,,,,,,,,,,,,,,,
345,21,Memory,6,,,,,,,00834940307fa.jpg,,,,,,,,,,,,,,,
346,21,Memory,6,,,,,,,sunaibnpvhkdpdnzcnz.jpg,,,,,,,,,,,,,,,
347,21,Memory,6,,,,,,,00785941205fa.jpg,,,,,,,,,,,,,,,
348,21,Memory,6,,,,,,,00894960620fa.jpg,,,,,,,,,,,,,,,
349,21,Memory,6,,,,,,,sunaahwnmtqsrhocysw.jpg,,,,,,,,,,,,,,,
350,21,Presentation,7,00090931230fa_sunaahedjlmtqekgyvj.jpg,00662941121fa_sunadkazmlajmohnwfl.jpg,,,,,,,<,Place,,,,,1,,,,,,,x
351,21,Presentation,7,00154931230fa_sunaauueuhhvklldjik.jpg,00889960530fa_sunaletopenvvozhpxc.jpg,,,,,,,>,Place,,,,,1,,,,,,,o
352,21,Presentation,7,00071940128fa_sunaaexpnawiehinlpy.jpg,00725941201fa_sunaefgzwiramypjvtd.jpg,,,,,,,>,Face,,,,,1,,,,,,,x
353,21,Presentation,7,00836940307fa_sunainqelldeebvxtcz.jpg,00127931230fa_sunaampvucecsfbdafn.jpg,,,,,,,<,Place,,,,,1,,,,,,,o
354,21,Presentation,7,00815941205fa_sunahiphsekjihkafsl.jpg,00260940128fa_sunabgfhvifeijihhjw.jpg,,,,,,,>,Place,,,,,1,,,,,,,x
355,21,Presentation,7,01007960627fa_sunbxarcshsnqsefemx.jpg,00120931230fa_sunaakxgygjfqrzpyoz.jpg,,,,,,,<,Place,,,,,1,,,,,,,o
356,21,Presentation,7,00242940128fa_sunabcuurugvxwparpk.jpg,00774941201fa_sunafvtpfczkzopbgue.jpg,,,,,,,<,Face,,,,,1,,,,,,,x
357,21,Presentation,7,00543940519fa_sunacepzfrmtkiqonpy.jpg,00719941201fa_sunadvithllcgmfxsrn.jpg,,,,,,,>,Face,,,,,1,,,,,,,o
358,21,Presentation,7,00080931230fb_sunaafjszryxyavjzln.jpg,00119931230fb_sunaakvmbftkrgqhjun.jpg,,,,,,,<,Face,,,,,1,,,,,,,o
359,21,Presentation,7,00483940519fa_sunabyvpwkgsjtijdwj.jpg,00784941205fb_sunagjzcrjvmxzqzljx.jpg,,,,,,,>,Face,,,,,0,,,,,,,o
360,21,Memory,7,,,,,,,00071940128fa.jpg,,,,,,,,,,,,,,,
361,21,Memory,7,,,,,,,00609940928fa.jpg,,,,,,,,,,,,,,,
362,21,Memory,7,,,,,,,sunbbgtoeuzierkkajt.jpg,,,,,,,,,,,,,,,
363,21,Memory,7,,,,,,,01007960627fa.jpg,,,,,,,,,,,,,,,
364,21,Memory,7,,,,,,,sunaavodbcpygkggnfp.jpg,,,,,,,,,,,,,,,
365,21,Memory,7,,,,,,,00111931230fb.jpg,,,,,,,,,,,,,,,
366,21,Memory,7,,,,,,,00119931230fb.jpg,,,,,,,,,,,,,,,
367,21,Memory,7,,,,,,,00662941121fa.jpg,,,,,,,,,,,,,,,
368,21,Memory,7,,,,,,,sunajxpkuhbizeveguy.jpg,,,,,,,,,,,,,,,
369,21,Memory,7,,,,,,,sunabxsuqbleluwczoy.jpg,,,,,,,,,,,,,,,
370,21,Memory,7,,,,,,,sunaakvmbftkrgqhjun.jpg,,,,,,,,,,,,,,,
371,21,Memory,7,,,,,,,sunbxarcshsnqsefemx.jpg,,,,,,,,,,,,,,,
372,21,Memory,7,,,,,,,00877960530fa.jpg,,,,,,,,,,,,,,,
373,21,Memory,7,,,,,,,00973960627fa.jpg,,,,,,,,,,,,,,,
374,21,Memory,7,,,,,,,00836940307fa.jpg,,,,,,,,,,,,,,,
375,21,Memory,7,,,,,,,00543940519fa.jpg,,,,,,,,,,,,,,,
376,21,Memory,7,,,,,,,sunagjzcrjvmxzqzljx.jpg,,,,,,,,,,,,,,,
377,21,Memory,7,,,,,,,sunaaexpnawiehinlpy.jpg,,,,,,,,,,,,,,,
378,21,Memory,7,,,,,,,00306940422fa.jpg,,,,,,,,,,,,,,,
379,21,Memory,7,,,,,,,00163931230fb.jpg,,,,,,,,,,,,,,,
380,21,Memory,7,,,,,,,sunaakgekhjklxmvulj.jpg,,,,,,,,,,,,,,,
381,21,Memory,7,,,,,,,00784941205fb.jpg,,,,,,,,,,,,,,,
382,21,Memory,7,,,,,,,01011960627fa.jpg,,,,,,,,,,,,,,,
383,21,Memory,7,,,,,,,00260940128fa.jpg,,,,,,,,,,,,,,,
384,21,Memory,7,,,,,,,sunabueyoajufbkraki.jpg,,,,,,,,,,,,,,,
385,21,Memory,7,,,,,,,sundahdxwmcdluscvot.jpg,,,,,,,,,,,,,,,
386,21,Memory,7,,,,,,,00799941205fa.jpg,,,,,,,,,,,,,,,
387,21,Memory,7,,,,,,,sunadkazmlajmohnwfl.jpg,,,,,,,,,,,,,,,
388,21,Memory,7,,,,,,,sunabxmguapjekttvwm.jpg,,,,,,,,,,,,,,,
389,21,Memory,7,,,,,,,00815941205fa.jpg,,,,,,,,,,,,,,,
390,21,Memory,7,,,,,,,sunacepzfrmtkiqonpy.jpg,,,,,,,,,,,,,,,
391,21,Memory,7,,,,,,,00316940422fa.jpg,,,,,,,,,,,,,,,
392,21,Memory,7,,,,,,,sunagutjvdvnhxejerz.jpg,,,,,,,,,,,,,,,
393,21,Memory,7,,,,,,,sunabgfhvifeijihhjw.jpg,,,,,,,,,,,,,,,
394,21,Memory,7,,,,,,,sunacycdoztxoluxjyk.jpg,,,,,,,,,,,,,,,
395,21,Memory,7,,,,,,,00127931230fa.jpg,,,,,,,,,,,,,,,
396,21,Memory,7,,,,,,,sunahiphsekjihkafsl.jpg,,,,,,,,,,,,,,,
397,21,Memory,7,,,,,,,00481940519fa.jpg,,,,,,,,,,,,,,,
398,21,Memory,7,,,,,,,sunainqelldeebvxtcz.jpg,,,,,,,,,,,,,,,
399,21,Memory,7,,,,,,,sunaampvucecsfbdafn.jpg,,,,,,,,,,,,,,,
