,Subject,Trial Type,Run,Cued Composite,Uncued Composite,Cued Face,Cued Place,Uncued Face,Uncued Place,Memory Image,Category,Cued Side,Cued Category,Attention Reaction Time (s),Familiarity Reaction Time (s),Familiarity Rating,Attention Level,Cue Validity,Post Invalid Cue,Pre Invalid Cue,Attention Button,Rating History,Stimulus Onset,Stimulus End,Attention Probe
0,16,Presentation,0,00857940307fa_sunaiwfobocrruqznsv.jpg,00913960530fa_sunaooffzffbhcpirmm.jpg,00857940307fa.jpg,sunaiwfobocrruqznsv.jpg,00913960530fa.jpg,sunaooffzffbhcpirmm.jpg,,,>,Place,,,,,1,,,,,,,o
1,16,Presentation,0,00227940128fa_sunabckqabszusgcykj.jpg,00505960627fa_sunabzuqsrgcsonqlkz.jpg,00227940128fa.jpg,sunabckqabszusgcykj.jpg,00505960627fa.jpg,sunabzuqsrgcsonqlkz.jpg,,,>,Place,,,,,1,,,,,,,x
2,16,Presentation,0,00741941201fa_sunaemcowdozyphwknd.jpg,00131931230fb_sunaangbuylfvckqqoo.jpg,00741941201fa.jpg,sunaemcowdozyphwknd.jpg,00131931230fb.jpg,sunaangbuylfvckqqoo.jpg,,,>,Place,,,,,0,,,,,,,x
3,16,Presentation,0,00648941031fa_sunadfndyrtqqiasoig.jpg,01011960627fa_sundahdxwmcdluscvot.jpg,00648941031fa.jpg,sunadfndyrtqqiasoig.jpg,01011960627fa.jpg,sundahdxwmcdluscvot.jpg,,,>,Place,,,,,1,,,,,,,x
4,16,Presentation,0,00529940519fa_sunacbeefkxpymwevpk.jpg,00116931230fa_sunaakqepfoeqomfgxf.jpg,00529940519fa.jpg,sunacbeefkxpymwevpk.jpg,00116931230fa.jpg,sunaakqepfoeqomfgxf.jpg,,,>,Place,,,,,1,,,,,,,x
5,16,Presentation,0,00827940307fa_sunahtfxgsrmkiulnwk.jpg,00705960530fa_sunaduslxfzlbxlllnz.jpg,00827940307fa.jpg,sunahtfxgsrmkiulnwk.jpg,00705960530fa.jpg,sunaduslxfzlbxlllnz.jpg,,,>,Place,,,,,1,,,,,,,x
6,16,Presentation,0,00634940928fa_sunadcphrizvfpljiqt.jpg,00854940307fa_sunaiwduelojtwaqeyh.jpg,00634940928fa.jpg,sunadcphrizvfpljiqt.jpg,00854940307fa.jpg,sunaiwduelojtwaqeyh.jpg,,,>,Place,,,,,1,,,,,,,x
7,16,Presentation,0,00973960627fa_sunbbgtoeuzierkkajt.jpg,00096931230fa_sunaaiqiqcggrskoqgy.jpg,00973960627fa.jpg,sunbbgtoeuzierkkajt.jpg,00096931230fa.jpg,sunaaiqiqcggrskoqgy.jpg,,,>,Place,,,,,1,,,,,,,x
8,16,Presentation,0,00129931230fb_sunaamsdyakblkfoydx.jpg,00787941205fa_sunagmwxxwymwojbvgi.jpg,00129931230fb.jpg,sunaamsdyakblkfoydx.jpg,00787941205fa.jpg,sunagmwxxwymwojbvgi.jpg,,,>,Place,,,,,1,,,,,,,x
9,16,Presentation,0,00069931230fb_sunaaeowapdkwzqpgqr.jpg,00483940519fa_sunabyvpwkgsjtijdwj.jpg,00069931230fb.jpg,sunaaeowapdkwzqpgqr.jpg,00483940519fa.jpg,sunabyvpwkgsjtijdwj.jpg,,,>,Place,,,,,1,,,,,,,o
10,16,Memory,0,,,,,,,sunadcphrizvfpljiqt.jpg,,,,,,,,,,,,,,,
11,16,Memory,0,,,,,,,00648941031fa.jpg,,,,,,,,,,,,,,,
12,16,Memory,0,,,,,,,00069931230fb.jpg,,,,,,,,,,,,,,,
13,16,Memory,0,,,,,,,00675941121fa.jpg,,,,,,,,,,,,,,,
14,16,Memory,0,,,,,,,sunahuynahneraqftyz.jpg,,,,,,,,,,,,,,,
15,16,Memory,0,,,,,,,sunbbgtoeuzierkkajt.jpg,,,,,,,,,,,,,,,
16,16,Memory,0,,,,,,,00483940519fa.jpg,,,,,,,,,,,,,,,
17,16,Memory,0,,,,,,,sundahdxwmcdluscvot.jpg,,,,,,,,,,,,,,,
18,16,Memory,0,,,,,,,00129931230fb.jpg,,,,,,,,,,,,,,,
19,16,Memory,0,,,,,,,sunajjxttslobudoqbv.jpg,,,,,,,,,,,,,,,
20,16,Memory,0,,,,,,,00913960530fa.jpg,,,,,,,,,,,,,,,
21,16,Memory,0,,,,,,,00098931230fa.jpg,,,,,,,,,,,,,,,
22,16,Memory,0,,,,,,,00828940307fa.jpg,,,,,,,,,,,,,,,
23,16,Memory,0,,,,,,,sunadoxcchtmsxewsau.jpg,,,,,,,,,,,,,,,
24,16,Memory,0,,,,,,,00809960620fa.jpg,,,,,,,,,,,,,,,
25,16,Memory,0,,,,,,,sunaaiqiqcggrskoqgy.jpg,,,,,,,,,,,,,,,
26,16,Memory,0,,,,,,,01009960627fa.jpg,,,,,,,,,,,,,,,
27,16,Memory,0,,,,,,,sunaooffzffbhcpirmm.jpg,,,,,,,,,,,,,,,
28,16,Memory,0,,,,,,,sunahbvlpavurqoxdeq.jpg,,,,,,,,,,,,,,,
29,16,Memory,0,,,,,,,sunagjeesomrwjsfqie.jpg,,,,,,,,,,,,,,,
30,16,Memory,0,,,,,,,00634940928fa.jpg,,,,,,,,,,,,,,,
31,16,Memory,0,,,,,,,sunaamsdyakblkfoydx.jpg,,,,,,,,,,,,,,,
32,16,Memory,0,,,,,,,00071941031fa.jpg,,,,,,,,,,,,,,,
33,16,Memory,0,,,,,,,sunaaeowapdkwzqpgqr.jpg,,,,,,,,,,,,,,,
34,16,Memory,0,,,,,,,00973960627fa.jpg,,,,,,,,,,,,,,,
35,16,Memory,0,,,,,,,sunaaexqbtdswxrqjvz.jpg,,,,,,,,,,,,,,,
36,16,Memory,0,,,,,,,00787941205fa.jpg,,,,,,,,,,,,,,,
37,16,Memory,0,,,,,,,sunauburywlkjszngcq.jpg,,,,,,,,,,,,,,,
38,16,Memory,0,,,,,,,sunajrujcsdxmfbssmc.jpg,,,,,,,,,,,,,,,
39,16,Memory,0,,,,,,,00868960307fa.jpg,,,,,,,,,,,,,,,
40,16,Memory,0,,,,,,,sunagmwxxwymwojbvgi.jpg,,,,,,,,,,,,,,,
41,16,Memory,0,,,,,,,00871940307.jpg,,,,,,,,,,,,,,,
42,16,Memory,0,,,,,,,01011960627fa.jpg,,,,,,,,,,,,,,,
43,16,Memory,0,,,,,,,sunaajpqmulidejvjsr.jpg,,,,,,,,,,,,,,,
44,16,Memory,0,,,,,,,00955960627fb.jpg,,,,,,,,,,,,,,,
45,16,Memory,0,,,,,,,sunabyvpwkgsjtijdwj.jpg,,,,,,,,,,,,,,,
46,16,Memory,0,,,,,,,00096931230fa.jpg,,,,,,,,,,,,,,,
47,16,Memory,0,,,,,,,00783941205fa.jpg,,,,,,,,,,,,,,,
48,16,Memory,0,,,,,,,sunbxzweleltykebgan.jpg,,,,,,,,,,,,,,,
49,16,Memory,0,,,,,,,sunadfndyrtqqiasoig.jpg,,,,,,,,,,,,,,,
50,16,Presentation,1,00197940128fa_sunaaylzyqlqrsmfwif.jpg,00306940422fa_sunabueyoajufbkraki.jpg,00197940128fa.jpg,sunaaylzyqlqrsmfwif.jpg,00306940422fa.jpg,sunabueyoajufbkraki.jpg,,,>,Face,,,,,1,,,,,,,x
51,16,Presentation,1,00961960627fa_sunawotxrevnqvamsfp.jpg,00681941121fa_sunadqmjrhfjyuzyvdd.jpg,00961960627fa.jpg,sunawotxrevnqvamsfp.jpg,00681941121fa.jpg,sunadqmjrhfjyuzyvdd.jpg,,,>,Face,,,,,1,,,,,,,o
52,16,Presentation,1,00977960627fa_sunbbxkanhzjgbwyxqs.jpg,00818940307fa_sunahpblecxtmuzkmxb.jpg,00977960627fa.jpg,sunbbxkanhzjgbwyxqs.jpg,00818940307fa.jpg,sunahpblecxtmuzkmxb.jpg,,,>,Face,,,,,0,,,,,,,o
53,16,Presentation,1,00761960627fa_sunafgdqbclkwfocdhg.jpg,00836940307fa_sunainqelldeebvxtcz.jpg,00761960627fa.jpg,sunafgdqbclkwfocdhg.jpg,00836940307fa.jpg,sunainqelldeebvxtcz.jpg,,,>,Face,,,,,1,,,,,,,o
54,16,Presentation,1,00097931230fa_sunaajayojuslbbnneg.jpg,00263940128fb_sunabjuovqvyfuzvqwt.jpg,00097931230fa.jpg,sunaajayojuslbbnneg.jpg,00263940128fb.jpg,sunabjuovqvyfuzvqwt.jpg,,,>,Face,,,,,0,,,,,,,o
55,16,Presentation,1,00903960620fa_sunanainkqdvktzoxyl.jpg,00885960530fa_sunakwlvxjpddialozd.jpg,00903960620fa.jpg,sunanainkqdvktzoxyl.jpg,00885960530fa.jpg,sunakwlvxjpddialozd.jpg,,,>,Face,,,,,1,,,,,,,x
56,16,Presentation,1,00772941201fa_sunafpfpiiujzoesnqg.jpg,00957960627fa_sunavhxgmgrqsaptynb.jpg,00772941201fa.jpg,sunafpfpiiujzoesnqg.jpg,00957960627fa.jpg,sunavhxgmgrqsaptynb.jpg,,,>,Face,,,,,1,,,,,,,x
57,16,Presentation,1,00132931230fb_sunaanjcbzdvtvblsdy.jpg,00898960530fa_sunamkmeblgteyggink.jpg,00132931230fb.jpg,sunaanjcbzdvtvblsdy.jpg,00898960530fa.jpg,sunamkmeblgteyggink.jpg,,,>,Face,,,,,1,,,,,,,o
58,16,Presentation,1,00803941205fa_sunagvxkjokqimstxpe.jpg,00076931230fa_sunaafewhewbxmjiurz.jpg,00803941205fa.jpg,sunagvxkjokqimstxpe.jpg,00076931230fa.jpg,sunaafewhewbxmjiurz.jpg,,,>,Face,,,,,1,,,,,,,o
59,16,Presentation,1,00290940422fa_sunabqowuarvqqcnipn.jpg,00901960530fa_sunammbnoambmhdxdwd.jpg,00290940422fa.jpg,sunabqowuarvqqcnipn.jpg,00901960530fa.jpg,sunammbnoambmhdxdwd.jpg,,,>,Face,,,,,1,,,,,,,o
60,16,Memory,1,,,,,,,sunakwlvxjpddialozd.jpg,,,,,,,,,,,,,,,
61,16,Memory,1,,,,,,,00097931230fa.jpg,,,,,,,,,,,,,,,
62,16,Memory,1,,,,,,,00895960530fa.jpg,,,,,,,,,,,,,,,
63,16,Memory,1,,,,,,,sunbondbduabvijnmch.jpg,,,,,,,,,,,,,,,
64,16,Memory,1,,,,,,,00977960627fa.jpg,,,,,,,,,,,,,,,
65,16,Memory,1,,,,,,,sunabueyoajufbkraki.jpg,,,,,,,,,,,,,,,
66,16,Memory,1,,,,,,,sunaanjcbzdvtvblsdy.jpg,,,,,,,,,,,,,,,
67,16,Memory,1,,,,,,,00903960620fa.jpg,,,,,,,,,,,,,,,
68,16,Memory,1,,,,,,,sunbgzjryivyczuvkvm.jpg,,,,,,,,,,,,,,,
69,16,Memory,1,,,,,,,sunammbnoambmhdxdwd.jpg,,,,,,,,,,,,,,,
70,16,Memory,1,,,,,,,sunbbfqwjpdxniyhies.jpg,,,,,,,,,,,,,,,
71,16,Memory,1,,,,,,,sunabcuurugvxwparpk.jpg,,,,,,,,,,,,,,,
72,16,Memory,1,,,,,,,00800941205fb.jpg,,,,,,,,,,,,,,,
73,16,Memory,1,,,,,,,00885960530fa.jpg,,,,,,,,,,,,,,,
74,16,Memory,1,,,,,,,sunafbwnojpqeyzssoe.jpg,,,,,,,,,,,,,,,
75,16,Memory,1,,,,,,,00162931230fb.jpg,,,,,,,,,,,,,,,
76,16,Memory,1,,,,,,,00898960530fa.jpg,,,,,,,,,,,,,,,
77,16,Memory,1,,,,,,,00986960627fa.jpg,,,,,,,,,,,,,,,
78,16,Memory,1,,,,,,,sunbbxkanhzjgbwyxqs.jpg,,,,,,,,,,,,,,,
79,16,Memory,1,,,,,,,00060931230fa.jpg,,,,,,,,,,,,,,,
80,16,Memory,1,,,,,,,sunagvjurcwdbixvnyi.jpg,,,,,,,,,,,,,,,
81,16,Memory,1,,,,,,,sunaavjinpnkappuonm.jpg,,,,,,,,,,,,,,,
82,16,Memory,1,,,,,,,sunamczizlzavhzhpay.jpg,,,,,,,,,,,,,,,
83,16,Memory,1,,,,,,,sunaaehaikpckyjsety.jpg,,,,,,,,,,,,,,,
84,16,Memory,1,,,,,,,00306940422fa.jpg,,,,,,,,,,,,,,,
85,16,Memory,1,,,,,,,00132931230fb.jpg,,,,,,,,,,,,,,,
86,16,Memory,1,,,,,,,sunanainkqdvktzoxyl.jpg,,,,,,,,,,,,,,,
87,16,Memory,1,,,,,,,sunaefgzwiramypjvtd.jpg,,,,,,,,,,,,,,,
88,16,Memory,1,,,,,,,sunabjuovqvyfuzvqwt.jpg,,,,,,,,,,,,,,,
89,16,Memory,1,,,,,,,sunaajayojuslbbnneg.jpg,,,,,,,,,,,,,,,
90,16,Memory,1,,,,,,,sunaaylzyqlqrsmfwif.jpg,,,,,,,,,,,,,,,
91,16,Memory,1,,,,,,,00752960620fa.jpg,,,,,,,,,,,,,,,
92,16,Memory,1,,,,,,,00972960627fa.jpg,,,,,,,,,,,,,,,
93,16,Memory,1,,,,,,,sunamkmeblgteyggink.jpg,,,,,,,,,,,,,,,
94,16,Memory,1,,,,,,,00989960627fa.jpg,,,,,,,,,,,,,,,
95,16,Memory,1,,,,,,,00242940128fa.jpg,,,,,,,,,,,,,,,
96,16,Memory,1,,,,,,,00197940128fa.jpg,,,,,,,,,,,,,,,
97,16,Memory,1,,,,,,,00725941201fa.jpg,,,,,,,,,,,,,,,
98,16,Memory,1,,,,,,,00263940128fb.jpg,,,,,,,,,,,,,,,
99,16,Memory,1,,,,,,,00901960530fa.jpg,,,,,,,,,,,,,,,
100,16,Presentation,2,00102931230fa_sunaajspcoepticvplv.jpg,00791941205fa_sunagrmyoovzukhxmlo.jpg,00102931230fa.jpg,sunaajspcoepticvplv.jpg,00791941205fa.jpg,sunagrmyoovzukhxmlo.jpg,,,<,Place,,,,,1,,,,,,,x
101,16,Presentation,2,00082931230fa_sunaafvitpexrpvumsa.jpg,00933960627fa_sunapwjkcxdaeqehfql.jpg,00082931230fa.jpg,sunaafvitpexrpvumsa.jpg,00933960627fa.jpg,sunapwjkcxdaeqehfql.jpg,,,<,Place,,,,,1,,,,,,,o
102,16,Presentation,2,00753941201fa_sunafcofuuzebuadceo.jpg,00848940307fa_sunaivdylrawbmhryfp.jpg,00753941201fa.jpg,sunafcofuuzebuadceo.jpg,00848940307fa.jpg,sunaivdylrawbmhryfp.jpg,,,<,Place,,,,,1,,,,,,,x
103,16,Presentation,2,00939960627fa_sunarceibpcyacbmfga.jpg,00979960627fa_sunbdycacjfaujxitbw.jpg,00939960627fa.jpg,sunarceibpcyacbmfga.jpg,00979960627fa.jpg,sunbdycacjfaujxitbw.jpg,,,<,Place,,,,,1,,,,,,,o
104,16,Presentation,2,00111931230fb_sunaakgekhjklxmvulj.jpg,00214940128fa_sunabbafjowbzcvbucc.jpg,00111931230fb.jpg,sunaakgekhjklxmvulj.jpg,00214940128fa.jpg,sunabbafjowbzcvbucc.jpg,,,<,Place,,,,,1,,,,,,,o
105,16,Presentation,2,00777941205fa_sunagcinxkccdtrjmlv.jpg,00976960627fa_sunbbhqyyzmsxhsbjmp.jpg,00777941205fa.jpg,sunagcinxkccdtrjmlv.jpg,00976960627fa.jpg,sunbbhqyyzmsxhsbjmp.jpg,,,<,Place,,,,,1,,,,,,,x
106,16,Presentation,2,00081941031fa_sunaaftlyfudyzuhqzf.jpg,00792941205fa_sunagsiwrmuixqgdimb.jpg,00081941031fa.jpg,sunaaftlyfudyzuhqzf.jpg,00792941205fa.jpg,sunagsiwrmuixqgdimb.jpg,,,<,Place,,,,,1,,,,,,,o
107,16,Presentation,2,00120931230fa_sunaakxgygjfqrzpyoz.jpg,00077931230fb_sunaafgqutfaishsxyu.jpg,00120931230fa.jpg,sunaakxgygjfqrzpyoz.jpg,00077931230fb.jpg,sunaafgqutfaishsxyu.jpg,,,<,Place,,,,,1,,,,,,,x
108,16,Presentation,2,00208940128fa_sunaazzyhbvqjpmazjq.jpg,00797960620fa_sunagufzbeteqdjxais.jpg,00208940128fa.jpg,sunaazzyhbvqjpmazjq.jpg,00797960620fa.jpg,sunagufzbeteqdjxais.jpg,,,<,Place,,,,,1,,,,,,,o
109,16,Presentation,2,00235940128fb_sunabclssnoeuigtawp.jpg,00694941121fa_sunadrmfzmstgdjdcod.jpg,00235940128fb.jpg,sunabclssnoeuigtawp.jpg,00694941121fa.jpg,sunadrmfzmstgdjdcod.jpg,,,<,Place,,,,,1,,,,,,,o
110,16,Memory,2,,,,,,,00777941205fa.jpg,,,,,,,,,,,,,,,
111,16,Memory,2,,,,,,,sunbbhqyyzmsxhsbjmp.jpg,,,,,,,,,,,,,,,
112,16,Memory,2,,,,,,,sunaajqmsaavkmgbsth.jpg,,,,,,,,,,,,,,,
113,16,Memory,2,,,,,,,sunanaacmmosxrfwmvl.jpg,,,,,,,,,,,,,,,
114,16,Memory,2,,,,,,,00791941205fa.jpg,,,,,,,,,,,,,,,
115,16,Memory,2,,,,,,,sunafcofuuzebuadceo.jpg,,,,,,,,,,,,,,,
116,16,Memory,2,,,,,,,00082931230fa.jpg,,,,,,,,,,,,,,,
117,16,Memory,2,,,,,,,sunaakgekhjklxmvulj.jpg,,,,,,,,,,,,,,,
118,16,Memory,2,,,,,,,00978960627fa.jpg,,,,,,,,,,,,,,,
119,16,Memory,2,,,,,,,00235940128fb.jpg,,,,,,,,,,,,,,,
120,16,Memory,2,,,,,,,sunbddbivbptlrlauhy.jpg,,,,,,,,,,,,,,,
121,16,Memory,2,,,,,,,00747941201fa.jpg,,,,,,,,,,,,,,,
122,16,Memory,2,,,,,,,sunakgbnzxmfohgehnu.jpg,,,,,,,,,,,,,,,
123,16,Memory,2,,,,,,,sunagrmyoovzukhxmlo.jpg,,,,,,,,,,,,,,,
124,16,Memory,2,,,,,,,00264940128fb.jpg,,,,,,,,,,,,,,,
125,16,Memory,2,,,,,,,sunayaepykrqvenaqqy.jpg,,,,,,,,,,,,,,,
126,16,Memory,2,,,,,,,00921960627fa.jpg,,,,,,,,,,,,,,,
127,16,Memory,2,,,,,,,00073931230fa.jpg,,,,,,,,,,,,,,,
128,16,Memory,2,,,,,,,00694941121fa.jpg,,,,,,,,,,,,,,,
129,16,Memory,2,,,,,,,sunaeutbrtswvsozxyk.jpg,,,,,,,,,,,,,,,
130,16,Memory,2,,,,,,,sunagufzbeteqdjxais.jpg,,,,,,,,,,,,,,,
131,16,Memory,2,,,,,,,sunbdycacjfaujxitbw.jpg,,,,,,,,,,,,,,,
132,16,Memory,2,,,,,,,sunaafbmtoniaasysgu.jpg,,,,,,,,,,,,,,,
133,16,Memory,2,,,,,,,00943960627fa.jpg,,,,,,,,,,,,,,,
134,16,Memory,2,,,,,,,00963960627fa.jpg,,,,,,,,,,,,,,,
135,16,Memory,2,,,,,,,00976960627fa.jpg,,,,,,,,,,,,,,,
136,16,Memory,2,,,,,,,sunabjzyxcjnmztdonj.jpg,,,,,,,,,,,,,,,
137,16,Memory,2,,,,,,,sunarpsxqkduedrrzyi.jpg,,,,,,,,,,,,,,,
138,16,Memory,2,,,,,,,00878960530fa.jpg,,,,,,,,,,,,,,,
139,16,Memory,2,,,,,,,sunadrmfzmstgdjdcod.jpg,,,,,,,,,,,,,,,
140,16,Memory,2,,,,,,,sunagcinxkccdtrjmlv.jpg,,,,,,,,,,,,,,,
141,16,Memory,2,,,,,,,00753941201fa.jpg,,,,,,,,,,,,,,,
142,16,Memory,2,,,,,,,00111931230fb.jpg,,,,,,,,,,,,,,,
143,16,Memory,2,,,,,,,00902960530fa.jpg,,,,,,,,,,,,,,,
144,16,Memory,2,,,,,,,sunabclssnoeuigtawp.jpg,,,,,,,,,,,,,,,
145,16,Memory,2,,,,,,,sunaafvitpexrpvumsa.jpg,,,,,,,,,,,,,,,
146,16,Memory,2,,,,,,,00797960620fa.jpg,,,,,,,,,,,,,,,
147,16,Memory,2,,,,,,,sunapqkpqdfvxlbqwyo.jpg,,,,,,,,,,,,,,,
148,16,Memory,2,,,,,,,00101931230fb.jpg,,,,,,,,,,,,,,,
149,16,Memory,2,,,,,,,00979960627fa.jpg,,,,,,,,,,,,,,,
150,16,Presentation,3,00635941031fa_sunaddsaeicthrfbkhe.jpg,00136931230fb_sunaanptmsknhirrzed.jpg,00635941031fa.jpg,sunaddsaeicthrfbkhe.jpg,00136931230fb.jpg,sunaanptmsknhirrzed.jpg,,,<,Place,,,,,1,,,,,,,o
151,16,Presentation,3,00937960627fa_sunaqsolmfydodnakub.jpg,00095931230fa_sunaahzooisqkwlxwoz.jpg,00937960627fa.jpg,sunaqsolmfydodnakub.jpg,00095931230fa.jpg,sunaahzooisqkwlxwoz.jpg,,,<,Place,,,,,1,,,,,,,x
152,16,Presentation,3,00245940128fa_sunabeyhmxodahoieyk.jpg,00633940928fa_sunadbhmrgrrpyzglxs.jpg,00245940128fa.jpg,sunabeyhmxodahoieyk.jpg,00633940928fa.jpg,sunadbhmrgrrpyzglxs.jpg,,,<,Place,,,,,1,,,,,,,x
153,16,Presentation,3,00313940422fa_sunabwjvmoaddlyxfjr.jpg,00070940307fa_sunaaeplwsfslcbtojr.jpg,00313940422fa.jpg,sunabwjvmoaddlyxfjr.jpg,00070940307fa.jpg,sunaaeplwsfslcbtojr.jpg,,,<,Place,,,,,1,,,,,,,o
154,16,Presentation,3,00481940519fa_sunabxsuqbleluwczoy.jpg,00778941205fa_sunagcthdfirrcawoic.jpg,00481940519fa.jpg,sunabxsuqbleluwczoy.jpg,00778941205fa.jpg,sunagcthdfirrcawoic.jpg,,,<,Place,,,,,0,,,,,,,x
155,16,Presentation,3,00479940519fa_sunabxsbfwjccqxxzxq.jpg,00799941205fa_sunagutjvdvnhxejerz.jpg,00479940519fa.jpg,sunabxsbfwjccqxxzxq.jpg,00799941205fa.jpg,sunagutjvdvnhxejerz.jpg,,,<,Place,,,,,1,,,,,,,o
156,16,Presentation,3,00127931230fa_sunaampvucecsfbdafn.jpg,00942960627fa_sunarfdklgdnjgeqfjg.jpg,00127931230fa.jpg,sunaampvucecsfbdafn.jpg,00942960627fa.jpg,sunarfdklgdnjgeqfjg.jpg,,,<,Place,,,,,1,,,,,,,o
157,16,Presentation,3,00598941031fa_sunacxtcahkymosigud.jpg,00130931230fa_sunaamvxnvouicstkjb.jpg,00598941031fa.jpg,sunacxtcahkymosigud.jpg,00130931230fa.jpg,sunaamvxnvouicstkjb.jpg,,,<,Place,,,,,1,,,,,,,x
158,16,Presentation,3,00092931230fa_sunaaheqzstzxuadglu.jpg,00877960530fa_sunajxpkuhbizeveguy.jpg,00092931230fa.jpg,sunaaheqzstzxuadglu.jpg,00877960530fa.jpg,sunajxpkuhbizeveguy.jpg,,,<,Place,,,,,1,,,,,,,o
159,16,Presentation,3,00983960627fa_sunbfyvfqiimvdaxlqn.jpg,00922960627fa_sunapqkyghktgtosuuk.jpg,00983960627fa.jpg,sunbfyvfqiimvdaxlqn.jpg,00922960627fa.jpg,sunapqkyghktgtosuuk.jpg,,,<,Place,,,,,1,,,,,,,x
160,16,Memory,3,,,,,,,00245940128fa.jpg,,,,,,,,,,,,,,,
161,16,Memory,3,,,,,,,00092931230fa.jpg,,,,,,,,,,,,,,,
162,16,Memory,3,,,,,,,00581940928fa.jpg,,,,,,,,,,,,,,,
163,16,Memory,3,,,,,,,00793941205fa.jpg,,,,,,,,,,,,,,,
164,16,Memory,3,,,,,,,sunaanptmsknhirrzed.jpg,,,,,,,,,,,,,,,
165,16,Memory,3,,,,,,,00633940928fa.jpg,,,,,,,,,,,,,,,
166,16,Memory,3,,,,,,,sunagtjwilqjvxohypn.jpg,,,,,,,,,,,,,,,
167,16,Memory,3,,,,,,,sunacuatpqpqhyjhjqk.jpg,,,,,,,,,,,,,,,
168,16,Memory,3,,,,,,,00942960627fa.jpg,,,,,,,,,,,,,,,
169,16,Memory,3,,,,,,,00136931230fb.jpg,,,,,,,,,,,,,,,
170,16,Memory,3,,,,,,,sunbfyvfqiimvdaxlqn.jpg,,,,,,,,,,,,,,,
171,16,Memory,3,,,,,,,sunacxtcahkymosigud.jpg,,,,,,,,,,,,,,,
172,16,Memory,3,,,,,,,00926960627Fa.jpg,,,,,,,,,,,,,,,
173,16,Memory,3,,,,,,,sunaaheqzstzxuadglu.jpg,,,,,,,,,,,,,,,
174,16,Memory,3,,,,,,,sunadikxpvqeabxrvvc.jpg,,,,,,,,,,,,,,,
175,16,Memory,3,,,,,,,00070940307fa.jpg,,,,,,,,,,,,,,,
176,16,Memory,3,,,,,,,00598941031fa.jpg,,,,,,,,,,,,,,,
177,16,Memory,3,,,,,,,00983960627fa.jpg,,,,,,,,,,,,,,,
178,16,Memory,3,,,,,,,sunabeyhmxodahoieyk.jpg,,,,,,,,,,,,,,,
179,16,Memory,3,,,,,,,sunaqsolmfydodnakub.jpg,,,,,,,,,,,,,,,
180,16,Memory,3,,,,,,,sunapqkyghktgtosuuk.jpg,,,,,,,,,,,,,,,
181,16,Memory,3,,,,,,,00922960627fa.jpg,,,,,,,,,,,,,,,
182,16,Memory,3,,,,,,,00931960627fa.jpg,,,,,,,,,,,,,,,
183,16,Memory,3,,,,,,,00198940128fb.jpg,,,,,,,,,,,,,,,
184,16,Memory,3,,,,,,,sunaaeplwsfslcbtojr.jpg,,,,,,,,,,,,,,,
185,16,Memory,3,,,,,,,sunabohxbskznglnrhv.jpg,,,,,,,,,,,,,,,
186,16,Memory,3,,,,,,,sunarfdklgdnjgeqfjg.jpg,,,,,,,,,,,,,,,
187,16,Memory,3,,,,,,,sunaazezcsunmhttzxz.jpg,,,,,,,,,,,,,,,
188,16,Memory,3,,,,,,,sunapqwoeotxshkukbh.jpg,,,,,,,,,,,,,,,
189,16,Memory,3,,,,,,,00280940422fb.jpg,,,,,,,,,,,,,,,
190,16,Memory,3,,,,,,,00571940928fa.jpg,,,,,,,,,,,,,,,
191,16,Memory,3,,,,,,,00937960627fa.jpg,,,,,,,,,,,,,,,
192,16,Memory,3,,,,,,,00851940307fa.jpg,,,,,,,,,,,,,,,
193,16,Memory,3,,,,,,,sunaivflshbyfrfzhqb.jpg,,,,,,,,,,,,,,,
194,16,Memory,3,,,,,,,sunaptrqvaooxfvktvw.jpg,,,,,,,,,,,,,,,
195,16,Memory,3,,,,,,,01004960627fa.jpg,,,,,,,,,,,,,,,
196,16,Memory,3,,,,,,,sunacvzhvcksnwqcqbw.jpg,,,,,,,,,,,,,,,
197,16,Memory,3,,,,,,,00650941031fa.jpg,,,,,,,,,,,,,,,
198,16,Memory,3,,,,,,,sunadbhmrgrrpyzglxs.jpg,,,,,,,,,,,,,,,
199,16,Memory,3,,,,,,,sunbwtlihsuptkrckid.jpg,,,,,,,,,,,,,,,
200,16,Presentation,4,00775941205fa_sunafvwfsmqkjrutjta.jpg,00952960627fa_sunathzzbcwjykldrem.jpg,00775941205fa.jpg,sunafvwfsmqkjrutjta.jpg,00952960627fa.jpg,sunathzzbcwjykldrem.jpg,,,>,Place,,,,,1,,,,,,,o
201,16,Presentation,4,00647941031fa_sunadflbrkckmepztql.jpg,00825940307fa_sunahrltmuwbiehihpe.jpg,00647941031fa.jpg,sunadflbrkckmepztql.jpg,00825940307fa.jpg,sunahrltmuwbiehihpe.jpg,,,>,Place,,,,,1,,,,,,,o
202,16,Presentation,4,00906960530fa_sunantryfbloeaomfta.jpg,00112931230fa_sunaakjaacuzulqckgl.jpg,00906960530fa.jpg,sunantryfbloeaomfta.jpg,00112931230fa.jpg,sunaakjaacuzulqckgl.jpg,,,>,Place,,,,,1,,,,,,,o
203,16,Presentation,4,00126931230fb_sunaamdjwemxpmmtypi.jpg,00540940519fa_sunacdnquypmsshhsbk.jpg,00126931230fb.jpg,sunaamdjwemxpmmtypi.jpg,00540940519fa.jpg,sunacdnquypmsshhsbk.jpg,,,>,Place,,,,,1,,,,,,,x
204,16,Presentation,4,00929960627fa_sunaprnrbmgkomdbchr.jpg,00071940128fa_sunaaexpnawiehinlpy.jpg,00929960627fa.jpg,sunaprnrbmgkomdbchr.jpg,00071940128fa.jpg,sunaaexpnawiehinlpy.jpg,,,>,Place,,,,,1,,,,,,,o
205,16,Presentation,4,00239940128fa_sunabctlikybqabezjv.jpg,00559940519fa_sunacjkmnpawfzbyvae.jpg,00239940128fa.jpg,sunabctlikybqabezjv.jpg,00559940519fa.jpg,sunacjkmnpawfzbyvae.jpg,,,>,Place,,,,,1,,,,,,,x
206,16,Presentation,4,01000960627fa_sunbvzmgrdvaakxusbu.jpg,00763941205fa_sunafhmnhsdurlvddpw.jpg,01000960627fa.jpg,sunbvzmgrdvaakxusbu.jpg,00763941205fa.jpg,sunafhmnhsdurlvddpw.jpg,,,>,Place,,,,,1,,,,,,,x
207,16,Presentation,4,00947960627fa_sunasmmcxdddtmtazwx.jpg,00638941031fa_sunadfktsqjthoglcsm.jpg,00947960627fa.jpg,sunasmmcxdddtmtazwx.jpg,00638941031fa.jpg,sunadfktsqjthoglcsm.jpg,,,>,Place,,,,,0,,,,,,,o
208,16,Presentation,4,00288940422fa_sunabppokiyglaxpcha.jpg,00891960530fa_sunalkiibhqpxfamlll.jpg,00288940422fa.jpg,sunabppokiyglaxpcha.jpg,00891960530fa.jpg,sunalkiibhqpxfamlll.jpg,,,>,Place,,,,,1,,,,,,,o
209,16,Presentation,4,00080931230fb_sunaafjszryxyavjzln.jpg,00609940928fa_sunacycdoztxoluxjyk.jpg,00080931230fb.jpg,sunaafjszryxyavjzln.jpg,00609940928fa.jpg,sunacycdoztxoluxjyk.jpg,,,>,Place,,,,,1,,,,,,,x
210,16,Memory,4,,,,,,,sunagtqhhwxjeuxdebe.jpg,,,,,,,,,,,,,,,
211,16,Memory,4,,,,,,,sunagetqixeypsysbpn.jpg,,,,,,,,,,,,,,,
212,16,Memory,4,,,,,,,sunaeoghzrjarigmwua.jpg,,,,,,,,,,,,,,,
213,16,Memory,4,,,,,,,sunaprnrbmgkomdbchr.jpg,,,,,,,,,,,,,,,
214,16,Memory,4,,,,,,,sunaajtnvzzpsjdzres.jpg,,,,,,,,,,,,,,,
215,16,Memory,4,,,,,,,00609940928fa.jpg,,,,,,,,,,,,,,,
216,16,Memory,4,,,,,,,00316940422fa.jpg,,,,,,,,,,,,,,,
217,16,Memory,4,,,,,,,00108960530fa.jpg,,,,,,,,,,,,,,,
218,16,Memory,4,,,,,,,00746941201fa.jpg,,,,,,,,,,,,,,,
219,16,Memory,4,,,,,,,00775941205fa.jpg,,,,,,,,,,,,,,,
220,16,Memory,4,,,,,,,00794960620fa.jpg,,,,,,,,,,,,,,,
221,16,Memory,4,,,,,,,sunadflbrkckmepztql.jpg,,,,,,,,,,,,,,,
222,16,Memory,4,,,,,,,00929960627fa.jpg,,,,,,,,,,,,,,,
223,16,Memory,4,,,,,,,00952960627fa.jpg,,,,,,,,,,,,,,,
224,16,Memory,4,,,,,,,sunasmmcxdddtmtazwx.jpg,,,,,,,,,,,,,,,
225,16,Memory,4,,,,,,,sunaaelyvurpntclgau.jpg,,,,,,,,,,,,,,,
226,16,Memory,4,,,,,,,sunaetydippjxikifsb.jpg,,,,,,,,,,,,,,,
227,16,Memory,4,,,,,,,00819940307fa.jpg,,,,,,,,,,,,,,,
228,16,Memory,4,,,,,,,00647941031fa.jpg,,,,,,,,,,,,,,,
229,16,Memory,4,,,,,,,sunacerqowiaeoqkmsq.jpg,,,,,,,,,,,,,,,
230,16,Memory,4,,,,,,,sunabxmguapjekttvwm.jpg,,,,,,,,,,,,,,,
231,16,Memory,4,,,,,,,00548940519fa.jpg,,,,,,,,,,,,,,,
232,16,Memory,4,,,,,,,sunabppokiyglaxpcha.jpg,,,,,,,,,,,,,,,
233,16,Memory,4,,,,,,,00763941205fa.jpg,,,,,,,,,,,,,,,
234,16,Memory,4,,,,,,,00743941201fa.jpg,,,,,,,,,,,,,,,
235,16,Memory,4,,,,,,,sunafvwfsmqkjrutjta.jpg,,,,,,,,,,,,,,,
236,16,Memory,4,,,,,,,00559940519fa.jpg,,,,,,,,,,,,,,,
237,16,Memory,4,,,,,,,sunahqldjibofgsfdgb.jpg,,,,,,,,,,,,,,,
238,16,Memory,4,,,,,,,00780960530fa.jpg,,,,,,,,,,,,,,,
239,16,Memory,4,,,,,,,sunacycdoztxoluxjyk.jpg,,,,,,,,,,,,,,,
240,16,Memory,4,,,,,,,00288940422fa.jpg,,,,,,,,,,,,,,,
241,16,Memory,4,,,,,,,sunafhmnhsdurlvddpw.jpg,,,,,,,,,,,,,,,
242,16,Memory,4,,,,,,,sunagmhildamktmqjss.jpg,,,,,,,,,,,,,,,
243,16,Memory,4,,,,,,,00112931230fa.jpg,,,,,,,,,,,,,,,
244,16,Memory,4,,,,,,,sunaakjaacuzulqckgl.jpg,,,,,,,,,,,,,,,
245,16,Memory,4,,,,,,,00947960627fa.jpg,,,,,,,,,,,,,,,
246,16,Memory,4,,,,,,,00063931230fa.jpg,,,,,,,,,,,,,,,
247,16,Memory,4,,,,,,,sunathzzbcwjykldrem.jpg,,,,,,,,,,,,,,,
248,16,Memory,4,,,,,,,sunacjkmnpawfzbyvae.jpg,,,,,,,,,,,,,,,
249,16,Memory,4,,,,,,,00786941205fa.jpg,,,,,,,,,,,,,,,
250,16,Presentation,5,00841940307fa_sunaisiwfgppimtnmxl.jpg,00262940128fa_sunabizydfotqddlnjp.jpg,00841940307fa.jpg,sunaisiwfgppimtnmxl.jpg,00262940128fa.jpg,sunabizydfotqddlnjp.jpg,,,>,Face,,,,,0,,,,,,,o
251,16,Presentation,5,00784941205fb_sunagjzcrjvmxzqzljx.jpg,01003960627fb_sunbwdrdvsweerwsdrj.jpg,00784941205fb.jpg,sunagjzcrjvmxzqzljx.jpg,01003960627fb.jpg,sunbwdrdvsweerwsdrj.jpg,,,>,Face,,,,,1,,,,,,,o
252,16,Presentation,5,00185940422fb_sunaawqdbpihmlbwyyn.jpg,00965960627fa_sunaydywdmvlfddbxbk.jpg,00185940422fb.jpg,sunaawqdbpihmlbwyyn.jpg,00965960627fa.jpg,sunaydywdmvlfddbxbk.jpg,,,>,Face,,,,,1,,,,,,,o
253,16,Presentation,5,00089931230fa_sunaagcpoejbuzyvddd.jpg,01207940128fa_sundbixjudsgeuuehrn.jpg,00089931230fa.jpg,sunaagcpoejbuzyvddd.jpg,01207940128fa.jpg,sundbixjudsgeuuehrn.jpg,,,>,Face,,,,,0,,,,,,,x
254,16,Presentation,5,00115931230fa_sunaakmxzhuceuiryah.jpg,00835940307fa_sunaijsqpvodplbwxkf.jpg,00115931230fa.jpg,sunaakmxzhuceuiryah.jpg,00835940307fa.jpg,sunaijsqpvodplbwxkf.jpg,,,>,Face,,,,,1,,,,,,,x
255,16,Presentation,5,00987960627fa_sunbloeoiozwjjsiamp.jpg,00776941205fa_sunafxokyavhgptyfye.jpg,00987960627fa.jpg,sunbloeoiozwjjsiamp.jpg,00776941205fa.jpg,sunafxokyavhgptyfye.jpg,,,>,Face,,,,,1,,,,,,,o
256,16,Presentation,5,00727941205fa_sunaeisnjeetzmkbuad.jpg,00636941031fa_sunaddtdkycxbqlpfqa.jpg,00727941205fa.jpg,sunaeisnjeetzmkbuad.jpg,00636941031fa.jpg,sunaddtdkycxbqlpfqa.jpg,,,>,Face,,,,,1,,,,,,,o
257,16,Presentation,5,00676941121fa_sunadpnqovzckyikrjo.jpg,00557940519fa_sunachtuarilwyqnvjx.jpg,00676941121fa.jpg,sunadpnqovzckyikrjo.jpg,00557940519fa.jpg,sunachtuarilwyqnvjx.jpg,,,>,Face,,,,,1,,,,,,,o
258,16,Presentation,5,00086931230fa_sunaafynehyrzpsoaml.jpg,00795941205fa_sunagtumacdlmciqamz.jpg,00086931230fa.jpg,sunaafynehyrzpsoaml.jpg,00795941205fa.jpg,sunagtumacdlmciqamz.jpg,,,>,Face,,,,,1,,,,,,,x
259,16,Presentation,5,00119931230fb_sunaakvmbftkrgqhjun.jpg,00564940928fa_sunacmpqqfbsvlzinzl.jpg,00119931230fb.jpg,sunaakvmbftkrgqhjun.jpg,00564940928fa.jpg,sunacmpqqfbsvlzinzl.jpg,,,>,Face,,,,,1,,,,,,,o
260,16,Memory,5,,,,,,,sunawksfbacycuhbrsc.jpg,,,,,,,,,,,,,,,
261,16,Memory,5,,,,,,,sunagvprlbprarvgdvj.jpg,,,,,,,,,,,,,,,
262,16,Memory,5,,,,,,,00262940128fa.jpg,,,,,,,,,,,,,,,
263,16,Memory,5,,,,,,,sunabllobxadqcyttej.jpg,,,,,,,,,,,,,,,
264,16,Memory,5,,,,,,,sunafxokyavhgptyfye.jpg,,,,,,,,,,,,,,,
265,16,Memory,5,,,,,,,sunaijsqpvodplbwxkf.jpg,,,,,,,,,,,,,,,
266,16,Memory,5,,,,,,,00887960530.jpg,,,,,,,,,,,,,,,
267,16,Memory,5,,,,,,,sunaafynehyrzpsoaml.jpg,,,,,,,,,,,,,,,
268,16,Memory,5,,,,,,,00801941205fa.jpg,,,,,,,,,,,,,,,
269,16,Memory,5,,,,,,,sunaalltyvjhbzhkmvg.jpg,,,,,,,,,,,,,,,
270,16,Memory,5,,,,,,,00564940928fa.jpg,,,,,,,,,,,,,,,
271,16,Memory,5,,,,,,,sunabizydfotqddlnjp.jpg,,,,,,,,,,,,,,,
272,16,Memory,5,,,,,,,00766960620fa.jpg,,,,,,,,,,,,,,,
273,16,Memory,5,,,,,,,sunahmhrncocyhsjpxk.jpg,,,,,,,,,,,,,,,
274,16,Memory,5,,,,,,,sunasnqkkyhilqkxiqm.jpg,,,,,,,,,,,,,,,
275,16,Memory,5,,,,,,,00949960627fb.jpg,,,,,,,,,,,,,,,
276,16,Memory,5,,,,,,,00119931230fb.jpg,,,,,,,,,,,,,,,
277,16,Memory,5,,,,,,,sunaezuszgtxnmsxdbk.jpg,,,,,,,,,,,,,,,
278,16,Memory,5,,,,,,,00960960627fa.jpg,,,,,,,,,,,,,,,
279,16,Memory,5,,,,,,,00086931230fa.jpg,,,,,,,,,,,,,,,
280,16,Memory,5,,,,,,,00751960620fa.jpg,,,,,,,,,,,,,,,
281,16,Memory,5,,,,,,,sunbloeoiozwjjsiamp.jpg,,,,,,,,,,,,,,,
282,16,Memory,5,,,,,,,sunafijbgncijwykrnl.jpg,,,,,,,,,,,,,,,
283,16,Memory,5,,,,,,,sunalcrtwiycqobgelp.jpg,,,,,,,,,,,,,,,
284,16,Memory,5,,,,,,,sunacmpqqfbsvlzinzl.jpg,,,,,,,,,,,,,,,
285,16,Memory,5,,,,,,,sunajtrfunvzdfticna.jpg,,,,,,,,,,,,,,,
286,16,Memory,5,,,,,,,sunadpnqovzckyikrjo.jpg,,,,,,,,,,,,,,,
287,16,Memory,5,,,,,,,00835940307fa.jpg,,,,,,,,,,,,,,,
288,16,Memory,5,,,,,,,00841940307fa.jpg,,,,,,,,,,,,,,,
289,16,Memory,5,,,,,,,sundbixjudsgeuuehrn.jpg,,,,,,,,,,,,,,,
290,16,Memory,5,,,,,,,sunaakvmbftkrgqhjun.jpg,,,,,,,,,,,,,,,
291,16,Memory,5,,,,,,,00125931230fa.jpg,,,,,,,,,,,,,,,
292,16,Memory,5,,,,,,,01207940128fa.jpg,,,,,,,,,,,,,,,
293,16,Memory,5,,,,,,,00676941121fa.jpg,,,,,,,,,,,,,,,
294,16,Memory,5,,,,,,,00816941205fa.jpg,,,,,,,,,,,,,,,
295,16,Memory,5,,,,,,,00776941205fa.jpg,,,,,,,,,,,,,,,
296,16,Memory,5,,,,,,,00874940307fa.jpg,,,,,,,,,,,,,,,
297,16,Memory,5,,,,,,,00270940422fb.jpg,,,,,,,,,,,,,,,
298,16,Memory,5,,,,,,,sunaisiwfgppimtnmxl.jpg,,,,,,,,,,,,,,,
299,16,Memory,5,,,,,,,00987960627fa.jpg,,,,,,,,,,,,,,,
300,16,Presentation,6,00211940128fa_sunabasphceswhwwqvv.jpg,00804960530fa_sunagwswhkvnsmuszlz.jpg,00211940128fa.jpg,sunabasphceswhwwqvv.jpg,00804960530fa.jpg,sunagwswhkvnsmuszlz.jpg,,,<,Face,,,,,1,,,,,,,o
301,16,Presentation,6,00958960627fa_sunavspxmxubqaeidjt.jpg,00221940128fa_sunabcfpwlpolnutyju.jpg,00958960627fa.jpg,sunavspxmxubqaeidjt.jpg,00221940128fa.jpg,sunabcfpwlpolnutyju.jpg,,,<,Face,,,,,1,,,,,,,x
302,16,Presentation,6,00744941201fa_sunaeomlfaabhpswasy.jpg,00730960620fa_sunaekgzpfilgjxpeyq.jpg,00744941201fa.jpg,sunaeomlfaabhpswasy.jpg,00730960620fa.jpg,sunaekgzpfilgjxpeyq.jpg,,,<,Face,,,,,1,,,,,,,x
303,16,Presentation,6,00133931230fa_sunaanlwnpqndclffxt.jpg,00768941205fa_sunafkmnlytenlsywia.jpg,00133931230fa.jpg,sunaanlwnpqndclffxt.jpg,00768941205fa.jpg,sunafkmnlytenlsywia.jpg,,,<,Face,,,,,1,,,,,,,o
304,16,Presentation,6,00700941121fa_sunadsgmtznewzyasnk.jpg,00184940128fa_sunaavtbadenwnzeutj.jpg,00700941121fa.jpg,sunadsgmtznewzyasnk.jpg,00184940128fa.jpg,sunaavtbadenwnzeutj.jpg,,,<,Face,,,,,1,,,,,,,o
305,16,Presentation,6,00774941201fa_sunafvtpfczkzopbgue.jpg,00124931230fa_sunaalhlvzmjmitybdn.jpg,00774941201fa.jpg,sunafvtpfczkzopbgue.jpg,00124931230fa.jpg,sunaalhlvzmjmitybdn.jpg,,,<,Face,,,,,1,,,,,,,x
306,16,Presentation,6,00771941205fa_sunafowswglhxcsufpo.jpg,00996960627fa_sunbpvgllfdejxcpjqp.jpg,00771941205fa.jpg,sunafowswglhxcsufpo.jpg,00996960627fa.jpg,sunbpvgllfdejxcpjqp.jpg,,,<,Face,,,,,1,,,,,,,o
307,16,Presentation,6,00065931230fb_sunaaemixhfquhnxxlm.jpg,00719960620fa_sunadzuvtmtmgupotmf.jpg,00065931230fb.jpg,sunaaemixhfquhnxxlm.jpg,00719960620fa.jpg,sunadzuvtmtmgupotmf.jpg,,,<,Face,,,,,1,,,,,,,x
308,16,Presentation,6,00142931230fb_sunaapxkpvrhpjplsok.jpg,00147931230fb_sunaatpkocdkocwxpkb.jpg,00142931230fb.jpg,sunaapxkpvrhpjplsok.jpg,00147931230fb.jpg,sunaatpkocdkocwxpkb.jpg,,,<,Face,,,,,1,,,,,,,x
309,16,Presentation,6,00158931230fb_sunaavchcbptaerhcfy.jpg,00271940422fa_sunabmbnddafmywtjjj.jpg,00158931230fb.jpg,sunaavchcbptaerhcfy.jpg,00271940422fa.jpg,sunabmbnddafmywtjjj.jpg,,,<,Face,,,,,1,,,,,,,o
310,16,Memory,6,,,,,,,00804960530fa.jpg,,,,,,,,,,,,,,,
311,16,Memory,6,,,,,,,sunadnjjzohjhbohlwq.jpg,,,,,,,,,,,,,,,
312,16,Memory,6,,,,,,,00663941121fa.jpg,,,,,,,,,,,,,,,
313,16,Memory,6,,,,,,,00773941201fa.jpg,,,,,,,,,,,,,,,
314,16,Memory,6,,,,,,,sunablfqiwfqomjarht.jpg,,,,,,,,,,,,,,,
315,16,Memory,6,,,,,,,sunaavchcbptaerhcfy.jpg,,,,,,,,,,,,,,,
316,16,Memory,6,,,,,,,00221940128fa.jpg,,,,,,,,,,,,,,,
317,16,Memory,6,,,,,,,sunafkmnlytenlsywia.jpg,,,,,,,,,,,,,,,
318,16,Memory,6,,,,,,,sunafvtpfczkzopbgue.jpg,,,,,,,,,,,,,,,
319,16,Memory,6,,,,,,,00314940422fa.jpg,,,,,,,,,,,,,,,
320,16,Memory,6,,,,,,,sunaayehfdqcyxggsej.jpg,,,,,,,,,,,,,,,
321,16,Memory,6,,,,,,,sunafowswglhxcsufpo.jpg,,,,,,,,,,,,,,,
322,16,Memory,6,,,,,,,00700941121fa.jpg,,,,,,,,,,,,,,,
323,16,Memory,6,,,,,,,00720960620fa.jpg,,,,,,,,,,,,,,,
324,16,Memory,6,,,,,,,00839940307fa.jpg,,,,,,,,,,,,,,,
325,16,Memory,6,,,,,,,00267940128fb.jpg,,,,,,,,,,,,,,,
326,16,Memory,6,,,,,,,00124931230fa.jpg,,,,,,,,,,,,,,,
327,16,Memory,6,,,,,,,sunaawsdjisukbbginm.jpg,,,,,,,,,,,,,,,
328,16,Memory,6,,,,,,,00191940128fb.jpg,,,,,,,,,,,,,,,
329,16,Memory,6,,,,,,,sunaanlwnpqndclffxt.jpg,,,,,,,,,,,,,,,
330,16,Memory,6,,,,,,,00996960627fa.jpg,,,,,,,,,,,,,,,
331,16,Memory,6,,,,,,,00158931230fb.jpg,,,,,,,,,,,,,,,
332,16,Memory,6,,,,,,,00768941205fa.jpg,,,,,,,,,,,,,,,
333,16,Memory,6,,,,,,,sunaipyohrqlwngaqif.jpg,,,,,,,,,,,,,,,
334,16,Memory,6,,,,,,,00774941201fa.jpg,,,,,,,,,,,,,,,
335,16,Memory,6,,,,,,,00771941205fa.jpg,,,,,,,,,,,,,,,
336,16,Memory,6,,,,,,,sunadsgmtznewzyasnk.jpg,,,,,,,,,,,,,,,
337,16,Memory,6,,,,,,,sunabwmcbaxwioksdgw.jpg,,,,,,,,,,,,,,,
338,16,Memory,6,,,,,,,00194940128fb.jpg,,,,,,,,,,,,,,,
339,16,Memory,6,,,,,,,sunacjnahdmqfnjfwqx.jpg,,,,,,,,,,,,,,,
340,16,Memory,6,,,,,,,sunaalhlvzmjmitybdn.jpg,,,,,,,,,,,,,,,
341,16,Memory,6,,,,,,,sunaecpkgfewqqreqwe.jpg,,,,,,,,,,,,,,,
342,16,Memory,6,,,,,,,sunagwswhkvnsmuszlz.jpg,,,,,,,,,,,,,,,
343,16,Memory,6,,,,,,,00498960627fa.jpg,,,,,,,,,,,,,,,
344,16,Memory,6,,,,,,,sunabzjxlmkwnwzimua.jpg,,,,,,,,,,,,,,,
345,16,Memory,6,,,,,,,sunafvcflzhlqloapyo.jpg,,,,,,,,,,,,,,,
346,16,Memory,6,,,,,,,00133931230fa.jpg,,,,,,,,,,,,,,,
347,16,Memory,6,,,,,,,sunbpvgllfdejxcpjqp.jpg,,,,,,,,,,,,,,,
348,16,Memory,6,,,,,,,00562941031fa.jpg,,,,,,,,,,,,,,,
349,16,Memory,6,,,,,,,sunabcfpwlpolnutyju.jpg,,,,,,,,,,,,,,,
350,16,Presentation,7,01007960627fa_sunbxarcshsnqsefemx.jpg,00568940928fa_sunacsdhbbsybcyxnel.jpg,01007960627fa.jpg,sunbxarcshsnqsefemx.jpg,00568940928fa.jpg,sunacsdhbbsybcyxnel.jpg,,,<,Face,,,,,1,,,,,,,x
351,16,Presentation,7,00742941201fa_sunaenwuebvlpdmntju.jpg,00938960627fa_sunaqyylsngywqzwfmx.jpg,00742941201fa.jpg,sunaenwuebvlpdmntju.jpg,00938960627fa.jpg,sunaqyylsngywqzwfmx.jpg,,,<,Face,,,,,1,,,,,,,x
352,16,Presentation,7,00788941205fa_sunagountlxpzkytsmp.jpg,00090931230fa_sunaahedjlmtqekgyvj.jpg,00788941205fa.jpg,sunagountlxpzkytsmp.jpg,00090931230fa.jpg,sunaahedjlmtqekgyvj.jpg,,,<,Face,,,,,1,,,,,,,x
353,16,Presentation,7,00093931230fa_sunaahwnmtqsrhocysw.jpg,00507940519fa_sunacacflqoyxhsqzhe.jpg,00093931230fa.jpg,sunaahwnmtqsrhocysw.jpg,00507940519fa.jpg,sunacacflqoyxhsqzhe.jpg,,,<,Face,,,,,1,,,,,,,x
354,16,Presentation,7,00876960620fa_sunajwqkfsykceonyig.jpg,01010960627fa_suncnkvbhypnivcohyx.jpg,00876960620fa.jpg,sunajwqkfsykceonyig.jpg,01010960627fa.jpg,suncnkvbhypnivcohyx.jpg,,,<,Face,,,,,0,,,,,,,x
355,16,Presentation,7,00894960620fa_sunalqmfgeadpqsyzpd.jpg,00971960627fa_sunbbegcweqnetpdlrh.jpg,00894960620fa.jpg,sunalqmfgeadpqsyzpd.jpg,00971960627fa.jpg,sunbbegcweqnetpdlrh.jpg,,,<,Face,,,,,1,,,,,,,x
356,16,Presentation,7,00145931230fb_sunaatjesvdupctftmn.jpg,00811960530fa_sunahedfrhtcwpneund.jpg,00145931230fb.jpg,sunaatjesvdupctftmn.jpg,00811960530fa.jpg,sunahedfrhtcwpneund.jpg,,,<,Face,,,,,1,,,,,,,x
357,16,Presentation,7,00982960627fa_sunbesrwkdsffeogeqq.jpg,00662941121fa_sunadkazmlajmohnwfl.jpg,00982960627fa.jpg,sunbesrwkdsffeogeqq.jpg,00662941121fa.jpg,sunadkazmlajmohnwfl.jpg,,,<,Face,,,,,1,,,,,,,o
358,16,Presentation,7,00900960530fa_sunamlotskmmsjeogby.jpg,00153931230fa_sunaauhozyxzeeqstxi.jpg,00900960530fa.jpg,sunamlotskmmsjeogby.jpg,00153931230fa.jpg,sunaauhozyxzeeqstxi.jpg,,,<,Face,,,,,1,,,,,,,x
359,16,Presentation,7,00620940928fa_sunacypmnujalygkunp.jpg,00138931230fa_sunaapfaivxqoynnwwp.jpg,00620940928fa.jpg,sunacypmnujalygkunp.jpg,00138931230fa.jpg,sunaapfaivxqoynnwwp.jpg,,,<,Face,,,,,1,,,,,,,o
360,16,Memory,7,,,,,,,sunaenwuebvlpdmntju.jpg,,,,,,,,,,,,,,,
361,16,Memory,7,,,,,,,00631940928fa.jpg,,,,,,,,,,,,,,,
362,16,Memory,7,,,,,,,sunaqgjuuwvdcyiccjt.jpg,,,,,,,,,,,,,,,
363,16,Memory,7,,,,,,,00138931230fa.jpg,,,,,,,,,,,,,,,
364,16,Memory,7,,,,,,,00093931230fa.jpg,,,,,,,,,,,,,,,
365,16,Memory,7,,,,,,,sunaqbmgkgqucajzrkp.jpg,,,,,,,,,,,,,,,
366,16,Memory,7,,,,,,,sunacypmnujalygkunp.jpg,,,,,,,,,,,,,,,
367,16,Memory,7,,,,,,,00630941031fa.jpg,,,,,,,,,,,,,,,
368,16,Memory,7,,,,,,,00968960627fa.jpg,,,,,,,,,,,,,,,
369,16,Memory,7,,,,,,,00090931230fa.jpg,,,,,,,,,,,,,,,
370,16,Memory,7,,,,,,,sunaahedjlmtqekgyvj.jpg,,,,,,,,,,,,,,,
371,16,Memory,7,,,,,,,sunadakkdovnuzlycvp.jpg,,,,,,,,,,,,,,,
372,16,Memory,7,,,,,,,00900960530fa.jpg,,,,,,,,,,,,,,,
373,16,Memory,7,,,,,,,sunalqmfgeadpqsyzpd.jpg,,,,,,,,,,,,,,,
374,16,Memory,7,,,,,,,sunaqyylsngywqzwfmx.jpg,,,,,,,,,,,,,,,
375,16,Memory,7,,,,,,,sunamlotskmmsjeogby.jpg,,,,,,,,,,,,,,,
376,16,Memory,7,,,,,,,sunajbwkywmsqkldfml.jpg,,,,,,,,,,,,,,,
377,16,Memory,7,,,,,,,sunaauhozyxzeeqstxi.jpg,,,,,,,,,,,,,,,
378,16,Memory,7,,,,,,,sunacepzfrmtkiqonpy.jpg,,,,,,,,,,,,,,,
379,16,Memory,7,,,,,,,sunbbegcweqnetpdlrh.jpg,,,,,,,,,,,,,,,
380,16,Memory,7,,,,,,,00884960530fa.jpg,,,,,,,,,,,,,,,
381,16,Memory,7,,,,,,,sunaaekxzjzrfgtkwjf.jpg,,,,,,,,,,,,,,,
382,16,Memory,7,,,,,,,00971960627fa.jpg,,,,,,,,,,,,,,,
383,16,Memory,7,,,,,,,sunbagfpovqwbuexqdn.jpg,,,,,,,,,,,,,,,
384,16,Memory,7,,,,,,,00894960620fa.jpg,,,,,,,,,,,,,,,
385,16,Memory,7,,,,,,,sunaahwnmtqsrhocysw.jpg,,,,,,,,,,,,,,,
386,16,Memory,7,,,,,,,00742941201fa.jpg,,,,,,,,,,,,,,,
387,16,Memory,7,,,,,,,00893960530Fa.jpg,,,,,,,,,,,,,,,
388,16,Memory,7,,,,,,,00935960627fa.jpg,,,,,,,,,,,,,,,
389,16,Memory,7,,,,,,,00543940519fa.jpg,,,,,,,,,,,,,,,
390,16,Memory,7,,,,,,,00620940928fa.jpg,,,,,,,,,,,,,,,
391,16,Memory,7,,,,,,,00866940307fa.jpg,,,,,,,,,,,,,,,
392,16,Memory,7,,,,,,,00153931230fa.jpg,,,,,,,,,,,,,,,
393,16,Memory,7,,,,,,,sunakodkcslgqhqlgwl.jpg,,,,,,,,,,,,,,,
394,16,Memory,7,,,,,,,sunaapfaivxqoynnwwp.jpg,,,,,,,,,,,,,,,
395,16,Memory,7,,,,,,,sunadbdqzigzwipuipr.jpg,,,,,,,,,,,,,,,
396,16,Memory,7,,,,,,,00061931230fb.jpg,,,,,,,,,,,,,,,
397,16,Memory,7,,,,,,,sunaloffvbvysigxent.jpg,,,,,,,,,,,,,,,
398,16,Memory,7,,,,,,,00936960627fa.jpg,,,,,,,,,,,,,,,
399,16,Memory,7,,,,,,,00938960627fa.jpg,,,,,,,,,,,,,,,
