,Subject,Trial Type,Run,Cued Composite,Uncued Composite,Cued Face,Cued Place,Uncued Face,Uncued Place,Memory Image,Category,Cued Side,Cued Category,Attention Reaction Time (s),Familiarity Reaction Time (s),Familiarity Rating,Attention Level,Cue Validity,Post Invalid Cue,Pre Invalid Cue,Attention Button,Rating History,Stimulus Onset,Stimulus End,Attention Probe
0,33,Presentation,0,00803941205fa_sunagvxkjokqimstxpe.jpg,00804960530fa_sunagwswhkvnsmuszlz.jpg,00803941205fa.jpg,sunagvxkjokqimstxpe.jpg,00804960530fa.jpg,sunagwswhkvnsmuszlz.jpg,,,>,Face,,,,,0,,,,,,,o
1,33,Presentation,0,00935960627fa_sunaqbmgkgqucajzrkp.jpg,00725941201fa_sunaefgzwiramypjvtd.jpg,00935960627fa.jpg,sunaqbmgkgqucajzrkp.jpg,00725941201fa.jpg,sunaefgzwiramypjvtd.jpg,,,<,Face,,,,,1,,,,,,,x
2,33,Presentation,0,00208940128fa_sunaazzyhbvqjpmazjq.jpg,00766960620fa_sunafijbgncijwykrnl.jpg,00208940128fa.jpg,sunaazzyhbvqjpmazjq.jpg,00766960620fa.jpg,sunafijbgncijwykrnl.jpg,,,>,Face,,,,,1,,,,,,,x
3,33,Presentation,0,00885960530fa_sunakwlvxjpddialozd.jpg,00302940422fa_sunabtlfmiwtljmoues.jpg,00885960530fa.jpg,sunakwlvxjpddialozd.jpg,00302940422fa.jpg,sunabtlfmiwtljmoues.jpg,,,>,Place,,,,,1,,,,,,,o
4,33,Presentation,0,00839940307fa_sunaipyohrqlwngaqif.jpg,00972960627fa_sunbbfqwjpdxniyhies.jpg,00839940307fa.jpg,sunaipyohrqlwngaqif.jpg,00972960627fa.jpg,sunbbfqwjpdxniyhies.jpg,,,<,Face,,,,,1,,,,,,,o
5,33,Presentation,0,00870940307fa_sunajrgtewnualfcerj.jpg,00214940128fa_sunabbafjowbzcvbucc.jpg,00870940307fa.jpg,sunajrgtewnualfcerj.jpg,00214940128fa.jpg,sunabbafjowbzcvbucc.jpg,,,>,Place,,,,,1,,,,,,,o
6,33,Presentation,0,00869940307fa_sunajoveqhiprwqgoco.jpg,00481940519fa_sunabxsuqbleluwczoy.jpg,00869940307fa.jpg,sunajoveqhiprwqgoco.jpg,00481940519fa.jpg,sunabxsuqbleluwczoy.jpg,,,>,Place,,,,,1,,,,,,,o
7,33,Presentation,0,00891960530fa_sunalkiibhqpxfamlll.jpg,00815941205fa_sunahiphsekjihkafsl.jpg,00891960530fa.jpg,sunalkiibhqpxfamlll.jpg,00815941205fa.jpg,sunahiphsekjihkafsl.jpg,,,<,Face,,,,,1,,,,,,,x
8,33,Presentation,0,00265940128fb_sunabkmdplkdbvxriff.jpg,00101931230fb_sunaajqmsaavkmgbsth.jpg,00265940128fb.jpg,sunabkmdplkdbvxriff.jpg,00101931230fb.jpg,sunaajqmsaavkmgbsth.jpg,,,<,Place,,,,,1,,,,,,,x
9,33,Presentation,0,00498960627fa_sunabzjxlmkwnwzimua.jpg,00939960627fa_sunarceibpcyacbmfga.jpg,00498960627fa.jpg,sunabzjxlmkwnwzimua.jpg,00939960627fa.jpg,sunarceibpcyacbmfga.jpg,,,<,Place,,,,,1,,,,,,,o
10,33,Memory,0,,,,,,,00815941205fa.jpg,,,,,,,,,,,,,,,
11,33,Memory,0,,,,,,,sunaqbmgkgqucajzrkp.jpg,,,,,,,,,,,,,,,
12,33,Memory,0,,,,,,,sunammbnoambmhdxdwd.jpg,,,,,,,,,,,,,,,
13,33,Memory,0,,,,,,,00620940928fa.jpg,,,,,,,,,,,,,,,
14,33,Memory,0,,,,,,,00933960627fa.jpg,,,,,,,,,,,,,,,
15,33,Memory,0,,,,,,,00101931230fb.jpg,,,,,,,,,,,,,,,
16,33,Memory,0,,,,,,,00302940422fa.jpg,,,,,,,,,,,,,,,
17,33,Memory,0,,,,,,,00972960627fa.jpg,,,,,,,,,,,,,,,
18,33,Memory,0,,,,,,,00777941205fa.jpg,,,,,,,,,,,,,,,
19,33,Memory,0,,,,,,,00891960530fa.jpg,,,,,,,,,,,,,,,
20,33,Memory,0,,,,,,,00935960627fa.jpg,,,,,,,,,,,,,,,
21,33,Memory,0,,,,,,,00803941205fa.jpg,,,,,,,,,,,,,,,
22,33,Memory,0,,,,,,,sunabxsuqbleluwczoy.jpg,,,,,,,,,,,,,,,
23,33,Memory,0,,,,,,,sunadoxcchtmsxewsau.jpg,,,,,,,,,,,,,,,
24,33,Memory,0,,,,,,,sunadrmfzmstgdjdcod.jpg,,,,,,,,,,,,,,,
25,33,Memory,0,,,,,,,sunaajqmsaavkmgbsth.jpg,,,,,,,,,,,,,,,
26,33,Memory,0,,,,,,,sunabzjxlmkwnwzimua.jpg,,,,,,,,,,,,,,,
27,33,Memory,0,,,,,,,sunaffstbkappprzxnv.jpg,,,,,,,,,,,,,,,
28,33,Memory,0,,,,,,,sunaloffvbvysigxent.jpg,,,,,,,,,,,,,,,
29,33,Memory,0,,,,,,,sunabwfvcqqidycwypa.jpg,,,,,,,,,,,,,,,
30,33,Memory,0,,,,,,,00498960627fa.jpg,,,,,,,,,,,,,,,
31,33,Memory,0,,,,,,,00869940307fa.jpg,,,,,,,,,,,,,,,
32,33,Memory,0,,,,,,,sunajoveqhiprwqgoco.jpg,,,,,,,,,,,,,,,
33,33,Memory,0,,,,,,,sunagvxkjokqimstxpe.jpg,,,,,,,,,,,,,,,
34,33,Memory,0,,,,,,,00760960620fa.jpg,,,,,,,,,,,,,,,
35,33,Memory,0,,,,,,,00675941121fa.jpg,,,,,,,,,,,,,,,
36,33,Memory,0,,,,,,,00882960530fa.jpg,,,,,,,,,,,,,,,
37,33,Memory,0,,,,,,,sunbbfqwjpdxniyhies.jpg,,,,,,,,,,,,,,,
38,33,Memory,0,,,,,,,00901960530fa.jpg,,,,,,,,,,,,,,,
39,33,Memory,0,,,,,,,00694941121fa.jpg,,,,,,,,,,,,,,,
40,33,Memory,0,,,,,,,sunagcinxkccdtrjmlv.jpg,,,,,,,,,,,,,,,
41,33,Memory,0,,,,,,,00308940422fb.jpg,,,,,,,,,,,,,,,
42,33,Memory,0,,,,,,,sunalkiibhqpxfamlll.jpg,,,,,,,,,,,,,,,
43,33,Memory,0,,,,,,,sunahiphsekjihkafsl.jpg,,,,,,,,,,,,,,,
44,33,Memory,0,,,,,,,sunaknlirqjqiwbbeeg.jpg,,,,,,,,,,,,,,,
45,33,Memory,0,,,,,,,sunacypmnujalygkunp.jpg,,,,,,,,,,,,,,,
46,33,Memory,0,,,,,,,00481940519fa.jpg,,,,,,,,,,,,,,,
47,33,Memory,0,,,,,,,sunapwjkcxdaeqehfql.jpg,,,,,,,,,,,,,,,
48,33,Memory,0,,,,,,,sunabtlfmiwtljmoues.jpg,,,,,,,,,,,,,,,
49,33,Memory,0,,,,,,,00893960530Fa.jpg,,,,,,,,,,,,,,,
50,33,Presentation,1,00913960530fa_sunaooffzffbhcpirmm.jpg,00988960627fa_sunbmaiocftdtvnzgap.jpg,00913960530fa.jpg,sunaooffzffbhcpirmm.jpg,00988960627fa.jpg,sunbmaiocftdtvnzgap.jpg,,,>,Face,,,,,1,,,,,,,x
51,33,Presentation,1,00900960530fa_sunamlotskmmsjeogby.jpg,00983960627fa_sunbfyvfqiimvdaxlqn.jpg,00900960530fa.jpg,sunamlotskmmsjeogby.jpg,00983960627fa.jpg,sunbfyvfqiimvdaxlqn.jpg,,,<,Place,,,,,1,,,,,,,o
52,33,Presentation,1,00968960627fa_sunbagfpovqwbuexqdn.jpg,00209940128fb_sunabaergayifsgacxt.jpg,00968960627fa.jpg,sunbagfpovqwbuexqdn.jpg,00209940128fb.jpg,sunabaergayifsgacxt.jpg,,,>,Face,,,,,1,,,,,,,o
53,33,Presentation,1,00719941201fa_sunadvithllcgmfxsrn.jpg,00841940307fa_sunaisiwfgppimtnmxl.jpg,00719941201fa.jpg,sunadvithllcgmfxsrn.jpg,00841940307fa.jpg,sunaisiwfgppimtnmxl.jpg,,,<,Face,,,,,1,,,,,,,o
54,33,Presentation,1,00130931230fa_sunaamvxnvouicstkjb.jpg,00847940307fa_sunaivdjruhkrfywfed.jpg,00130931230fa.jpg,sunaamvxnvouicstkjb.jpg,00847940307fa.jpg,sunaivdjruhkrfywfed.jpg,,,<,Place,,,,,1,,,,,,,o
55,33,Presentation,1,00761960627fa_sunafgdqbclkwfocdhg.jpg,00889960530fa_sunaletopenvvozhpxc.jpg,00761960627fa.jpg,sunafgdqbclkwfocdhg.jpg,00889960530fa.jpg,sunaletopenvvozhpxc.jpg,,,>,Face,,,,,1,,,,,,,o
56,33,Presentation,1,00985960627fa_sunbgklxeqjhdbyfhhy.jpg,00809960620fa_sunahbvlpavurqoxdeq.jpg,00985960627fa.jpg,sunbgklxeqjhdbyfhhy.jpg,00809960620fa.jpg,sunahbvlpavurqoxdeq.jpg,,,>,Place,,,,,1,,,,,,,o
57,33,Presentation,1,00884960530fa_sunakodkcslgqhqlgwl.jpg,00996960627fa_sunbpvgllfdejxcpjqp.jpg,00884960530fa.jpg,sunakodkcslgqhqlgwl.jpg,00996960627fa.jpg,sunbpvgllfdejxcpjqp.jpg,,,<,Place,,,,,1,,,,,,,x
58,33,Presentation,1,00973960627fa_sunbbgtoeuzierkkajt.jpg,00540940519fa_sunacdnquypmsshhsbk.jpg,00973960627fa.jpg,sunbbgtoeuzierkkajt.jpg,00540940519fa.jpg,sunacdnquypmsshhsbk.jpg,,,<,Face,,,,,1,,,,,,,x
59,33,Presentation,1,00979960627fa_sunbdycacjfaujxitbw.jpg,00938960627fa_sunaqyylsngywqzwfmx.jpg,00979960627fa.jpg,sunbdycacjfaujxitbw.jpg,00938960627fa.jpg,sunaqyylsngywqzwfmx.jpg,,,>,Place,,,,,1,,,,,,,x
60,33,Memory,1,,,,,,,00988960627fa.jpg,,,,,,,,,,,,,,,
61,33,Memory,1,,,,,,,00938960627fa.jpg,,,,,,,,,,,,,,,
62,33,Memory,1,,,,,,,sunakodkcslgqhqlgwl.jpg,,,,,,,,,,,,,,,
63,33,Memory,1,,,,,,,sunbmaiocftdtvnzgap.jpg,,,,,,,,,,,,,,,
64,33,Memory,1,,,,,,,sunapmfmzadmosuogaz.jpg,,,,,,,,,,,,,,,
65,33,Memory,1,,,,,,,sunaavodbcpygkggnfp.jpg,,,,,,,,,,,,,,,
66,33,Memory,1,,,,,,,00985960627fa.jpg,,,,,,,,,,,,,,,
67,33,Memory,1,,,,,,,00719941201fa.jpg,,,,,,,,,,,,,,,
68,33,Memory,1,,,,,,,sunaakqepfoeqomfgxf.jpg,,,,,,,,,,,,,,,
69,33,Memory,1,,,,,,,00973960627fa.jpg,,,,,,,,,,,,,,,
70,33,Memory,1,,,,,,,sunaqyylsngywqzwfmx.jpg,,,,,,,,,,,,,,,
71,33,Memory,1,,,,,,,sunbgklxeqjhdbyfhhy.jpg,,,,,,,,,,,,,,,
72,33,Memory,1,,,,,,,00809960620fa.jpg,,,,,,,,,,,,,,,
73,33,Memory,1,,,,,,,00841940307fa.jpg,,,,,,,,,,,,,,,
74,33,Memory,1,,,,,,,00884960530fa.jpg,,,,,,,,,,,,,,,
75,33,Memory,1,,,,,,,00743941201fa.jpg,,,,,,,,,,,,,,,
76,33,Memory,1,,,,,,,00919960620fa.jpg,,,,,,,,,,,,,,,
77,33,Memory,1,,,,,,,sunaisiwfgppimtnmxl.jpg,,,,,,,,,,,,,,,
78,33,Memory,1,,,,,,,00209940128fb.jpg,,,,,,,,,,,,,,,
79,33,Memory,1,,,,,,,sunamlotskmmsjeogby.jpg,,,,,,,,,,,,,,,
80,33,Memory,1,,,,,,,sunahtfxgsrmkiulnwk.jpg,,,,,,,,,,,,,,,
81,33,Memory,1,,,,,,,sunahawfngukizslzsd.jpg,,,,,,,,,,,,,,,
82,33,Memory,1,,,,,,,00163931230fb.jpg,,,,,,,,,,,,,,,
83,33,Memory,1,,,,,,,sunadvithllcgmfxsrn.jpg,,,,,,,,,,,,,,,
84,33,Memory,1,,,,,,,00741941201fa.jpg,,,,,,,,,,,,,,,
85,33,Memory,1,,,,,,,sunahbvlpavurqoxdeq.jpg,,,,,,,,,,,,,,,
86,33,Memory,1,,,,,,,00144931230fb.jpg,,,,,,,,,,,,,,,
87,33,Memory,1,,,,,,,sunaeoghzrjarigmwua.jpg,,,,,,,,,,,,,,,
88,33,Memory,1,,,,,,,00108960530fa.jpg,,,,,,,,,,,,,,,
89,33,Memory,1,,,,,,,00900960530fa.jpg,,,,,,,,,,,,,,,
90,33,Memory,1,,,,,,,00116931230fa.jpg,,,,,,,,,,,,,,,
91,33,Memory,1,,,,,,,sunabaergayifsgacxt.jpg,,,,,,,,,,,,,,,
92,33,Memory,1,,,,,,,sunbbgtoeuzierkkajt.jpg,,,,,,,,,,,,,,,
93,33,Memory,1,,,,,,,sunaajtnvzzpsjdzres.jpg,,,,,,,,,,,,,,,
94,33,Memory,1,,,,,,,00827940307fa.jpg,,,,,,,,,,,,,,,
95,33,Memory,1,,,,,,,00785941205fa.jpg,,,,,,,,,,,,,,,
96,33,Memory,1,,,,,,,sunaglqunwuycxydmyu.jpg,,,,,,,,,,,,,,,
97,33,Memory,1,,,,,,,00807941205fa.jpg,,,,,,,,,,,,,,,
98,33,Memory,1,,,,,,,sunaemcowdozyphwknd.jpg,,,,,,,,,,,,,,,
99,33,Memory,1,,,,,,,sunaathajvxrgptwhoj.jpg,,,,,,,,,,,,,,,
100,33,Presentation,2,00905960530fa_sunanmoqeyprjjjfxjt.jpg,00264940128fb_sunabjzyxcjnmztdonj.jpg,00905960530fa.jpg,sunanmoqeyprjjjfxjt.jpg,00264940128fb.jpg,sunabjzyxcjnmztdonj.jpg,,,<,Face,,,,,1,,,,,,,x
101,33,Presentation,2,00267940128fb_sunablfqiwfqomjarht.jpg,00749941201fa_sunaeuvjbmdpknaqqaj.jpg,00267940128fb.jpg,sunablfqiwfqomjarht.jpg,00749941201fa.jpg,sunaeuvjbmdpknaqqaj.jpg,,,>,Face,,,,,1,,,,,,,x
102,33,Presentation,2,00910960530fa_sunaofikylqtxphvdem.jpg,00961960627fa_sunawotxrevnqvamsfp.jpg,00910960530fa.jpg,sunaofikylqtxphvdem.jpg,00961960627fa.jpg,sunawotxrevnqvamsfp.jpg,,,>,Face,,,,,1,,,,,,,o
103,33,Presentation,2,00093931230fa_sunaahwnmtqsrhocysw.jpg,00775941205fa_sunafvwfsmqkjrutjta.jpg,00093931230fa.jpg,sunaahwnmtqsrhocysw.jpg,00775941205fa.jpg,sunafvwfsmqkjrutjta.jpg,,,<,Place,,,,,1,,,,,,,o
104,33,Presentation,2,00063931230fa_sunaaelyvurpntclgau.jpg,00316940422fa_sunabxmguapjekttvwm.jpg,00063931230fa.jpg,sunaaelyvurpntclgau.jpg,00316940422fa.jpg,sunabxmguapjekttvwm.jpg,,,>,Place,,,,,1,,,,,,,o
105,33,Presentation,2,00947960627fa_sunasmmcxdddtmtazwx.jpg,00835940307fa_sunaijsqpvodplbwxkf.jpg,00947960627fa.jpg,sunasmmcxdddtmtazwx.jpg,00835940307fa.jpg,sunaijsqpvodplbwxkf.jpg,,,>,Place,,,,,0,,,,,,,o
106,33,Presentation,2,00098931230fa_sunaajpqmulidejvjsr.jpg,00997960627fa_sunbtpilbhhbmhmeuzq.jpg,00098931230fa.jpg,sunaajpqmulidejvjsr.jpg,00997960627fa.jpg,sunbtpilbhhbmhmeuzq.jpg,,,>,Face,,,,,1,,,,,,,o
107,33,Presentation,2,00290940422fa_sunabqowuarvqqcnipn.jpg,00571940928fa_sunacuatpqpqhyjhjqk.jpg,00290940422fa.jpg,sunabqowuarvqqcnipn.jpg,00571940928fa.jpg,sunacuatpqpqhyjhjqk.jpg,,,<,Place,,,,,1,,,,,,,x
108,33,Presentation,2,00574940928fa_sunacvbrcejzwmcgnoq.jpg,00635941031fa_sunaddsaeicthrfbkhe.jpg,00574940928fa.jpg,sunacvbrcejzwmcgnoq.jpg,00635941031fa.jpg,sunaddsaeicthrfbkhe.jpg,,,<,Face,,,,,1,,,,,,,x
109,33,Presentation,2,00942960627fa_sunarfdklgdnjgeqfjg.jpg,00505960627fa_sunabzuqsrgcsonqlkz.jpg,00942960627fa.jpg,sunarfdklgdnjgeqfjg.jpg,00505960627fa.jpg,sunabzuqsrgcsonqlkz.jpg,,,<,Place,,,,,1,,,,,,,o
110,33,Memory,2,,,,,,,00984960627fa.jpg,,,,,,,,,,,,,,,
111,33,Memory,2,,,,,,,sunaeomlfaabhpswasy.jpg,,,,,,,,,,,,,,,
112,33,Memory,2,,,,,,,sunaahwnmtqsrhocysw.jpg,,,,,,,,,,,,,,,
113,33,Memory,2,,,,,,,sunbwaafjdebjzttuvq.jpg,,,,,,,,,,,,,,,
114,33,Memory,2,,,,,,,sunajbwkywmsqkldfml.jpg,,,,,,,,,,,,,,,
115,33,Memory,2,,,,,,,sunaofikylqtxphvdem.jpg,,,,,,,,,,,,,,,
116,33,Memory,2,,,,,,,00905960530fa.jpg,,,,,,,,,,,,,,,
117,33,Memory,2,,,,,,,01002960627fb.jpg,,,,,,,,,,,,,,,
118,33,Memory,2,,,,,,,sunabjzyxcjnmztdonj.jpg,,,,,,,,,,,,,,,
119,33,Memory,2,,,,,,,00835940307fa.jpg,,,,,,,,,,,,,,,
120,33,Memory,2,,,,,,,sunanmoqeyprjjjfxjt.jpg,,,,,,,,,,,,,,,
121,33,Memory,2,,,,,,,00829940307fa.jpg,,,,,,,,,,,,,,,
122,33,Memory,2,,,,,,,00136931230fb.jpg,,,,,,,,,,,,,,,
123,33,Memory,2,,,,,,,sunahwgbqkqcrwprgvh.jpg,,,,,,,,,,,,,,,
124,33,Memory,2,,,,,,,sunaeuvjbmdpknaqqaj.jpg,,,,,,,,,,,,,,,
125,33,Memory,2,,,,,,,00264940128fb.jpg,,,,,,,,,,,,,,,
126,33,Memory,2,,,,,,,00866940307fa.jpg,,,,,,,,,,,,,,,
127,33,Memory,2,,,,,,,00239940128fa.jpg,,,,,,,,,,,,,,,
128,33,Memory,2,,,,,,,sunaanptmsknhirrzed.jpg,,,,,,,,,,,,,,,
129,33,Memory,2,,,,,,,sunaafewhewbxmjiurz.jpg,,,,,,,,,,,,,,,
130,33,Memory,2,,,,,,,00749941201fa.jpg,,,,,,,,,,,,,,,
131,33,Memory,2,,,,,,,00795941205fa.jpg,,,,,,,,,,,,,,,
132,33,Memory,2,,,,,,,00788941205fa.jpg,,,,,,,,,,,,,,,
133,33,Memory,2,,,,,,,sunagountlxpzkytsmp.jpg,,,,,,,,,,,,,,,
134,33,Memory,2,,,,,,,00947960627fa.jpg,,,,,,,,,,,,,,,
135,33,Memory,2,,,,,,,sunacuatpqpqhyjhjqk.jpg,,,,,,,,,,,,,,,
136,33,Memory,2,,,,,,,sunagtumacdlmciqamz.jpg,,,,,,,,,,,,,,,
137,33,Memory,2,,,,,,,sunasmmcxdddtmtazwx.jpg,,,,,,,,,,,,,,,
138,33,Memory,2,,,,,,,sunabctlikybqabezjv.jpg,,,,,,,,,,,,,,,
139,33,Memory,2,,,,,,,sunacvbrcejzwmcgnoq.jpg,,,,,,,,,,,,,,,
140,33,Memory,2,,,,,,,00076931230fa.jpg,,,,,,,,,,,,,,,
141,33,Memory,2,,,,,,,00574940928fa.jpg,,,,,,,,,,,,,,,
142,33,Memory,2,,,,,,,00775941205fa.jpg,,,,,,,,,,,,,,,
143,33,Memory,2,,,,,,,00744941201fa.jpg,,,,,,,,,,,,,,,
144,33,Memory,2,,,,,,,00571940928fa.jpg,,,,,,,,,,,,,,,
145,33,Memory,2,,,,,,,sunaijsqpvodplbwxkf.jpg,,,,,,,,,,,,,,,
146,33,Memory,2,,,,,,,sunbfzchmomnvzhbxdg.jpg,,,,,,,,,,,,,,,
147,33,Memory,2,,,,,,,sunafvwfsmqkjrutjta.jpg,,,,,,,,,,,,,,,
148,33,Memory,2,,,,,,,00910960530fa.jpg,,,,,,,,,,,,,,,
149,33,Memory,2,,,,,,,00093931230fa.jpg,,,,,,,,,,,,,,,
150,33,Presentation,3,00773941201fa_sunafvcflzhlqloapyo.jpg,00564941031fa_sunacsaovnjezqwbykf.jpg,00773941201fa.jpg,sunafvcflzhlqloapyo.jpg,00564941031fa.jpg,sunacsaovnjezqwbykf.jpg,,,>,Place,,,,,1,,,,,,,x
151,33,Presentation,3,00903960620fa_sunanainkqdvktzoxyl.jpg,00221940128fa_sunabcfpwlpolnutyju.jpg,00903960620fa.jpg,sunanainkqdvktzoxyl.jpg,00221940128fa.jpg,sunabcfpwlpolnutyju.jpg,,,>,Place,,,,,1,,,,,,,o
152,33,Presentation,3,00778941205fa_sunagcthdfirrcawoic.jpg,00753941201fa_sunafcofuuzebuadceo.jpg,00778941205fa.jpg,sunagcthdfirrcawoic.jpg,00753941201fa.jpg,sunafcofuuzebuadceo.jpg,,,<,Place,,,,,1,,,,,,,x
153,33,Presentation,3,00811960530fa_sunahedfrhtcwpneund.jpg,00483940519fa_sunabyvpwkgsjtijdwj.jpg,00811960530fa.jpg,sunahedfrhtcwpneund.jpg,00483940519fa.jpg,sunabyvpwkgsjtijdwj.jpg,,,>,Face,,,,,1,,,,,,,o
154,33,Presentation,3,00993960627fa_sunbprywzqxjcezkbch.jpg,00752960620fa_sunafbwnojpqeyzssoe.jpg,00993960627fa.jpg,sunbprywzqxjcezkbch.jpg,00752960620fa.jpg,sunafbwnojpqeyzssoe.jpg,,,>,Place,,,,,1,,,,,,,o
155,33,Presentation,3,00963960627fa_sunayaepykrqvenaqqy.jpg,00145931230fb_sunaatjesvdupctftmn.jpg,00963960627fa.jpg,sunayaepykrqvenaqqy.jpg,00145931230fb.jpg,sunaatjesvdupctftmn.jpg,,,<,Face,,,,,1,,,,,,,x
156,33,Presentation,3,00857940307fa_sunaiwfobocrruqznsv.jpg,00982960627fa_sunbesrwkdsffeogeqq.jpg,00857940307fa.jpg,sunaiwfobocrruqznsv.jpg,00982960627fa.jpg,sunbesrwkdsffeogeqq.jpg,,,>,Face,,,,,0,,,,,,,x
157,33,Presentation,3,00122931230fa_sunaakxjfbrrequcjmx.jpg,00965960627fa_sunaydywdmvlfddbxbk.jpg,00122931230fa.jpg,sunaakxjfbrrequcjmx.jpg,00965960627fa.jpg,sunaydywdmvlfddbxbk.jpg,,,<,Face,,,,,1,,,,,,,x
158,33,Presentation,3,00119931230fb_sunaakvmbftkrgqhjun.jpg,00115931230fa_sunaakmxzhuceuiryah.jpg,00119931230fb.jpg,sunaakvmbftkrgqhjun.jpg,00115931230fa.jpg,sunaakmxzhuceuiryah.jpg,,,<,Face,,,,,1,,,,,,,x
159,33,Presentation,3,00529940519fa_sunacbeefkxpymwevpk.jpg,00828940307fa_sunahuynahneraqftyz.jpg,00529940519fa.jpg,sunacbeefkxpymwevpk.jpg,00828940307fa.jpg,sunahuynahneraqftyz.jpg,,,<,Place,,,,,1,,,,,,,o
160,33,Memory,3,,,,,,,00753941201fa.jpg,,,,,,,,,,,,,,,
161,33,Memory,3,,,,,,,sunaiwfobocrruqznsv.jpg,,,,,,,,,,,,,,,
162,33,Memory,3,,,,,,,sunaakxjfbrrequcjmx.jpg,,,,,,,,,,,,,,,
163,33,Memory,3,,,,,,,sunaenwuebvlpdmntju.jpg,,,,,,,,,,,,,,,
164,33,Memory,3,,,,,,,01004960627fa.jpg,,,,,,,,,,,,,,,
165,33,Memory,3,,,,,,,00851940307fa.jpg,,,,,,,,,,,,,,,
166,33,Memory,3,,,,,,,00131931230fb.jpg,,,,,,,,,,,,,,,
167,33,Memory,3,,,,,,,sunaivflshbyfrfzhqb.jpg,,,,,,,,,,,,,,,
168,33,Memory,3,,,,,,,sunadzuvtmtmgupotmf.jpg,,,,,,,,,,,,,,,
169,33,Memory,3,,,,,,,sunaanjcbzdvtvblsdy.jpg,,,,,,,,,,,,,,,
170,33,Memory,3,,,,,,,sunbprywzqxjcezkbch.jpg,,,,,,,,,,,,,,,
171,33,Memory,3,,,,,,,sunafgzgbisbopcyslr.jpg,,,,,,,,,,,,,,,
172,33,Memory,3,,,,,,,00993960627fa.jpg,,,,,,,,,,,,,,,
173,33,Memory,3,,,,,,,sunagcthdfirrcawoic.jpg,,,,,,,,,,,,,,,
174,33,Memory,3,,,,,,,00752960620fa.jpg,,,,,,,,,,,,,,,
175,33,Memory,3,,,,,,,00276940422fa.jpg,,,,,,,,,,,,,,,
176,33,Memory,3,,,,,,,sunagmhildamktmqjss.jpg,,,,,,,,,,,,,,,
177,33,Memory,3,,,,,,,sunafbwnojpqeyzssoe.jpg,,,,,,,,,,,,,,,
178,33,Memory,3,,,,,,,sunacsaovnjezqwbykf.jpg,,,,,,,,,,,,,,,
179,33,Memory,3,,,,,,,sunafcofuuzebuadceo.jpg,,,,,,,,,,,,,,,
180,33,Memory,3,,,,,,,sunabmytpyhsgigllxu.jpg,,,,,,,,,,,,,,,
181,33,Memory,3,,,,,,,00719960620fa.jpg,,,,,,,,,,,,,,,
182,33,Memory,3,,,,,,,00132931230fb.jpg,,,,,,,,,,,,,,,
183,33,Memory,3,,,,,,,00778941205fa.jpg,,,,,,,,,,,,,,,
184,33,Memory,3,,,,,,,sunbwtlihsuptkrckid.jpg,,,,,,,,,,,,,,,
185,33,Memory,3,,,,,,,00786941205fa.jpg,,,,,,,,,,,,,,,
186,33,Memory,3,,,,,,,00742941201fa.jpg,,,,,,,,,,,,,,,
187,33,Memory,3,,,,,,,00828940307fa.jpg,,,,,,,,,,,,,,,
188,33,Memory,3,,,,,,,00857940307fa.jpg,,,,,,,,,,,,,,,
189,33,Memory,3,,,,,,,sunahuynahneraqftyz.jpg,,,,,,,,,,,,,,,
190,33,Memory,3,,,,,,,00762941201fa.jpg,,,,,,,,,,,,,,,
191,33,Memory,3,,,,,,,sunaapfaivxqoynnwwp.jpg,,,,,,,,,,,,,,,
192,33,Memory,3,,,,,,,00122931230fa.jpg,,,,,,,,,,,,,,,
193,33,Memory,3,,,,,,,00903960620fa.jpg,,,,,,,,,,,,,,,
194,33,Memory,3,,,,,,,00138931230fa.jpg,,,,,,,,,,,,,,,
195,33,Memory,3,,,,,,,sunaangbuylfvckqqoo.jpg,,,,,,,,,,,,,,,
196,33,Memory,3,,,,,,,sunaatjesvdupctftmn.jpg,,,,,,,,,,,,,,,
197,33,Memory,3,,,,,,,sunanainkqdvktzoxyl.jpg,,,,,,,,,,,,,,,
198,33,Memory,3,,,,,,,00564941031fa.jpg,,,,,,,,,,,,,,,
199,33,Memory,3,,,,,,,00145931230fb.jpg,,,,,,,,,,,,,,,
200,33,Presentation,4,00260940128fa_sunabgfhvifeijihhjw.jpg,00887960530_sunalcrtwiycqobgelp.jpg,00260940128fa.jpg,sunabgfhvifeijihhjw.jpg,00887960530.jpg,sunalcrtwiycqobgelp.jpg,,,>,Place,,,,,1,,,,,,,o
201,33,Presentation,4,00745941205fa_sunaeouogqolxvggaoq.jpg,00999960627fa_sunbvbrvgbpanfrawft.jpg,00745941205fa.jpg,sunaeouogqolxvggaoq.jpg,00999960627fa.jpg,sunbvbrvgbpanfrawft.jpg,,,>,Place,,,,,1,,,,,,,o
202,33,Presentation,4,00789960620fa_sunagpancjmxqfazssf.jpg,00987960627fa_sunbloeoiozwjjsiamp.jpg,00789960620fa.jpg,sunagpancjmxqfazssf.jpg,00987960627fa.jpg,sunbloeoiozwjjsiamp.jpg,,,<,Place,,,,,0,,,,,,,x
203,33,Presentation,4,00638941031fa_sunadfktsqjthoglcsm.jpg,00793941205fa_sunagtjwilqjvxohypn.jpg,00638941031fa.jpg,sunadfktsqjthoglcsm.jpg,00793941205fa.jpg,sunagtjwilqjvxohypn.jpg,,,<,Face,,,,,1,,,,,,,o
204,33,Presentation,4,00784941205fb_sunagjzcrjvmxzqzljx.jpg,00747941201fa_sunaeutbrtswvsozxyk.jpg,00784941205fb.jpg,sunagjzcrjvmxzqzljx.jpg,00747941201fa.jpg,sunaeutbrtswvsozxyk.jpg,,,>,Face,,,,,1,,,,,,,o
205,33,Presentation,4,00082931230fa_sunaafvitpexrpvumsa.jpg,00589940928fa_sunacwggadqsfpovdjv.jpg,00082931230fa.jpg,sunaafvitpexrpvumsa.jpg,00589940928fa.jpg,sunacwggadqsfpovdjv.jpg,,,<,Face,,,,,1,,,,,,,x
206,33,Presentation,4,00146960620fb_sunaatpeezlljqaxlhj.jpg,00990960627fa_sunbpflsdaxnddnwcqi.jpg,00146960620fb.jpg,sunaatpeezlljqaxlhj.jpg,00990960627fa.jpg,sunbpflsdaxnddnwcqi.jpg,,,<,Place,,,,,1,,,,,,,x
207,33,Presentation,4,00081941031fa_sunaaftlyfudyzuhqzf.jpg,00952960627fa_sunathzzbcwjykldrem.jpg,00081941031fa.jpg,sunaaftlyfudyzuhqzf.jpg,00952960627fa.jpg,sunathzzbcwjykldrem.jpg,,,<,Face,,,,,0,,,,,,,x
208,33,Presentation,4,00294940422fb_sunabrlndkruqokhury.jpg,00162931230fb_sunaavjinpnkappuonm.jpg,00294940422fb.jpg,sunabrlndkruqokhury.jpg,00162931230fb.jpg,sunaavjinpnkappuonm.jpg,,,>,Place,,,,,0,,,,,,,x
209,33,Presentation,4,00754941201fa_sunaffgsyyvoqdlkmnk.jpg,00557940519fa_sunachtuarilwyqnvjx.jpg,00754941201fa.jpg,sunaffgsyyvoqdlkmnk.jpg,00557940519fa.jpg,sunachtuarilwyqnvjx.jpg,,,>,Face,,,,,1,,,,,,,x
210,33,Memory,4,,,,,,,00124931230fa.jpg,,,,,,,,,,,,,,,
211,33,Memory,4,,,,,,,sunagoufulkpsxrmklt.jpg,,,,,,,,,,,,,,,
212,33,Memory,4,,,,,,,sunbvbrvgbpanfrawft.jpg,,,,,,,,,,,,,,,
213,33,Memory,4,,,,,,,00598940928fa.jpg,,,,,,,,,,,,,,,
214,33,Memory,4,,,,,,,00793941205fa.jpg,,,,,,,,,,,,,,,
215,33,Memory,4,,,,,,,sunabrlndkruqokhury.jpg,,,,,,,,,,,,,,,
216,33,Memory,4,,,,,,,00598941031fa.jpg,,,,,,,,,,,,,,,
217,33,Memory,4,,,,,,,sunaeutbrtswvsozxyk.jpg,,,,,,,,,,,,,,,
218,33,Memory,4,,,,,,,00784941205fb.jpg,,,,,,,,,,,,,,,
219,33,Memory,4,,,,,,,00133931230fa.jpg,,,,,,,,,,,,,,,
220,33,Memory,4,,,,,,,00061931230fb.jpg,,,,,,,,,,,,,,,
221,33,Memory,4,,,,,,,00218940128fa.jpg,,,,,,,,,,,,,,,
222,33,Memory,4,,,,,,,sunagpancjmxqfazssf.jpg,,,,,,,,,,,,,,,
223,33,Memory,4,,,,,,,sunagtjwilqjvxohypn.jpg,,,,,,,,,,,,,,,
224,33,Memory,4,,,,,,,sunaeouogqolxvggaoq.jpg,,,,,,,,,,,,,,,
225,33,Memory,4,,,,,,,00987960627fa.jpg,,,,,,,,,,,,,,,
226,33,Memory,4,,,,,,,sunacxtcahkymosigud.jpg,,,,,,,,,,,,,,,
227,33,Memory,4,,,,,,,sunaalhlvzmjmitybdn.jpg,,,,,,,,,,,,,,,
228,33,Memory,4,,,,,,,00789960620fa.jpg,,,,,,,,,,,,,,,
229,33,Memory,4,,,,,,,00162931230fb.jpg,,,,,,,,,,,,,,,
230,33,Memory,4,,,,,,,sunagjzcrjvmxzqzljx.jpg,,,,,,,,,,,,,,,
231,33,Memory,4,,,,,,,00294940422fb.jpg,,,,,,,,,,,,,,,
232,33,Memory,4,,,,,,,sunaavjinpnkappuonm.jpg,,,,,,,,,,,,,,,
233,33,Memory,4,,,,,,,sunaatpeezlljqaxlhj.jpg,,,,,,,,,,,,,,,
234,33,Memory,4,,,,,,,00787960620fa.jpg,,,,,,,,,,,,,,,
235,33,Memory,4,,,,,,,sunacxeheuiigkcgquf.jpg,,,,,,,,,,,,,,,
236,33,Memory,4,,,,,,,sunbloeoiozwjjsiamp.jpg,,,,,,,,,,,,,,,
237,33,Memory,4,,,,,,,00747941201fa.jpg,,,,,,,,,,,,,,,
238,33,Memory,4,,,,,,,sunaanlwnpqndclffxt.jpg,,,,,,,,,,,,,,,
239,33,Memory,4,,,,,,,00745941205fa.jpg,,,,,,,,,,,,,,,
240,33,Memory,4,,,,,,,00060931230fa.jpg,,,,,,,,,,,,,,,
241,33,Memory,4,,,,,,,sunadsgmtznewzyasnk.jpg,,,,,,,,,,,,,,,
242,33,Memory,4,,,,,,,00999960627fa.jpg,,,,,,,,,,,,,,,
243,33,Memory,4,,,,,,,00936960627fa.jpg,,,,,,,,,,,,,,,
244,33,Memory,4,,,,,,,sunabbwggenhfbftyvi.jpg,,,,,,,,,,,,,,,
245,33,Memory,4,,,,,,,00700941121fa.jpg,,,,,,,,,,,,,,,
246,33,Memory,4,,,,,,,sunaqgjuuwvdcyiccjt.jpg,,,,,,,,,,,,,,,
247,33,Memory,4,,,,,,,sunaaekxzjzrfgtkwjf.jpg,,,,,,,,,,,,,,,
248,33,Memory,4,,,,,,,00146960620fb.jpg,,,,,,,,,,,,,,,
249,33,Memory,4,,,,,,,sunaaehaikpckyjsety.jpg,,,,,,,,,,,,,,,
250,33,Presentation,5,00950960627fa_sunasrjlmglmjzbmqxb.jpg,00822940307fa_sunahqrxievfeusiqlt.jpg,00950960627fa.jpg,sunasrjlmglmjzbmqxb.jpg,00822940307fa.jpg,sunahqrxievfeusiqlt.jpg,,,>,Face,,,,,1,,,,,,,x
251,33,Presentation,5,00957960627fa_sunavhxgmgrqsaptynb.jpg,00314940422fa_sunabwmcbaxwioksdgw.jpg,00957960627fa.jpg,sunavhxgmgrqsaptynb.jpg,00314940422fa.jpg,sunabwmcbaxwioksdgw.jpg,,,<,Place,,,,,1,,,,,,,x
252,33,Presentation,5,00943960627fa_sunarpsxqkduedrrzyi.jpg,00922960627fa_sunapqkyghktgtosuuk.jpg,00943960627fa.jpg,sunarpsxqkduedrrzyi.jpg,00922960627fa.jpg,sunapqkyghktgtosuuk.jpg,,,>,Place,,,,,1,,,,,,,o
253,33,Presentation,5,00776941205fa_sunafxokyavhgptyfye.jpg,00080931230fb_sunaafjszryxyavjzln.jpg,00776941205fa.jpg,sunafxokyavhgptyfye.jpg,00080931230fb.jpg,sunaafjszryxyavjzln.jpg,,,>,Place,,,,,1,,,,,,,x
254,33,Presentation,5,00630941031fa_sunadakkdovnuzlycvp.jpg,00929960627fa_sunaprnrbmgkomdbchr.jpg,00630941031fa.jpg,sunadakkdovnuzlycvp.jpg,00929960627fa.jpg,sunaprnrbmgkomdbchr.jpg,,,>,Face,,,,,1,,,,,,,o
255,33,Presentation,5,00787941205fa_sunagmwxxwymwojbvgi.jpg,00120931230fa_sunaakxgygjfqrzpyoz.jpg,00787941205fa.jpg,sunagmwxxwymwojbvgi.jpg,00120931230fa.jpg,sunaakxgygjfqrzpyoz.jpg,,,>,Place,,,,,1,,,,,,,o
256,33,Presentation,5,00127931230fa_sunaampvucecsfbdafn.jpg,00906960530fa_sunantryfbloeaomfta.jpg,00127931230fa.jpg,sunaampvucecsfbdafn.jpg,00906960530fa.jpg,sunantryfbloeaomfta.jpg,,,<,Face,,,,,1,,,,,,,x
257,33,Presentation,5,00746941201fa_sunaetydippjxikifsb.jpg,00648941031fa_sunadfndyrtqqiasoig.jpg,00746941201fa.jpg,sunaetydippjxikifsb.jpg,00648941031fa.jpg,sunadfndyrtqqiasoig.jpg,,,<,Face,,,,,1,,,,,,,x
258,33,Presentation,5,00185940422fb_sunaawqdbpihmlbwyyn.jpg,00065931230fb_sunaaemixhfquhnxxlm.jpg,00185940422fb.jpg,sunaawqdbpihmlbwyyn.jpg,00065931230fb.jpg,sunaaemixhfquhnxxlm.jpg,,,<,Face,,,,,1,,,,,,,o
259,33,Presentation,5,00953960627fa_sunatstrpjxhvtbaczf.jpg,00548940519fa_sunacerqowiaeoqkmsq.jpg,00953960627fa.jpg,sunatstrpjxhvtbaczf.jpg,00548940519fa.jpg,sunacerqowiaeoqkmsq.jpg,,,<,Place,,,,,1,,,,,,,x
260,33,Memory,5,,,,,,,sunafxokyavhgptyfye.jpg,,,,,,,,,,,,,,,
261,33,Memory,5,,,,,,,00080931230fb.jpg,,,,,,,,,,,,,,,
262,33,Memory,5,,,,,,,sunaalltyvjhbzhkmvg.jpg,,,,,,,,,,,,,,,
263,33,Memory,5,,,,,,,00125931230fa.jpg,,,,,,,,,,,,,,,
264,33,Memory,5,,,,,,,00065931230fb.jpg,,,,,,,,,,,,,,,
265,33,Memory,5,,,,,,,00971960627fa.jpg,,,,,,,,,,,,,,,
266,33,Memory,5,,,,,,,sunaczwgyukesaajxnx.jpg,,,,,,,,,,,,,,,
267,33,Memory,5,,,,,,,sunaaemixhfquhnxxlm.jpg,,,,,,,,,,,,,,,
268,33,Memory,5,,,,,,,00086931230fa.jpg,,,,,,,,,,,,,,,
269,33,Memory,5,,,,,,,00776941205fa.jpg,,,,,,,,,,,,,,,
270,33,Memory,5,,,,,,,00953960627fa.jpg,,,,,,,,,,,,,,,
271,33,Memory,5,,,,,,,00750941201fa.jpg,,,,,,,,,,,,,,,
272,33,Memory,5,,,,,,,sunaccdtpgenvcbcbcf.jpg,,,,,,,,,,,,,,,
273,33,Memory,5,,,,,,,sunahqrxievfeusiqlt.jpg,,,,,,,,,,,,,,,
274,33,Memory,5,,,,,,,sunavhxgmgrqsaptynb.jpg,,,,,,,,,,,,,,,
275,33,Memory,5,,,,,,,sunadcphrizvfpljiqt.jpg,,,,,,,,,,,,,,,
276,33,Memory,5,,,,,,,00648941031fa.jpg,,,,,,,,,,,,,,,
277,33,Memory,5,,,,,,,sunaafynehyrzpsoaml.jpg,,,,,,,,,,,,,,,
278,33,Memory,5,,,,,,,00070940307fa.jpg,,,,,,,,,,,,,,,
279,33,Memory,5,,,,,,,00822940307fa.jpg,,,,,,,,,,,,,,,
280,33,Memory,5,,,,,,,sunaeuzwggvibufclwf.jpg,,,,,,,,,,,,,,,
281,33,Memory,5,,,,,,,sunatstrpjxhvtbaczf.jpg,,,,,,,,,,,,,,,
282,33,Memory,5,,,,,,,sunadfndyrtqqiasoig.jpg,,,,,,,,,,,,,,,
283,33,Memory,5,,,,,,,sunaakxgygjfqrzpyoz.jpg,,,,,,,,,,,,,,,
284,33,Memory,5,,,,,,,sunbbegcweqnetpdlrh.jpg,,,,,,,,,,,,,,,
285,33,Memory,5,,,,,,,sunajawzbrlrwafowen.jpg,,,,,,,,,,,,,,,
286,33,Memory,5,,,,,,,00864940307fa.jpg,,,,,,,,,,,,,,,
287,33,Memory,5,,,,,,,sunaampvucecsfbdafn.jpg,,,,,,,,,,,,,,,
288,33,Memory,5,,,,,,,00127931230fa.jpg,,,,,,,,,,,,,,,
289,33,Memory,5,,,,,,,00630940928fa.jpg,,,,,,,,,,,,,,,
290,33,Memory,5,,,,,,,00957960627fa.jpg,,,,,,,,,,,,,,,
291,33,Memory,5,,,,,,,00634940928fa.jpg,,,,,,,,,,,,,,,
292,33,Memory,5,,,,,,,sunagmwxxwymwojbvgi.jpg,,,,,,,,,,,,,,,
293,33,Memory,5,,,,,,,00782941205fa.jpg,,,,,,,,,,,,,,,
294,33,Memory,5,,,,,,,00120931230fa.jpg,,,,,,,,,,,,,,,
295,33,Memory,5,,,,,,,sunaaeplwsfslcbtojr.jpg,,,,,,,,,,,,,,,
296,33,Memory,5,,,,,,,00787941205fa.jpg,,,,,,,,,,,,,,,
297,33,Memory,5,,,,,,,00532960627fa.jpg,,,,,,,,,,,,,,,
298,33,Memory,5,,,,,,,sunaafjszryxyavjzln.jpg,,,,,,,,,,,,,,,
299,33,Memory,5,,,,,,,sunagfvluwixdsozaql.jpg,,,,,,,,,,,,,,,
300,33,Presentation,6,00931960627fa_sunaptrqvaooxfvktvw.jpg,00921960627fa_sunapqkpqdfvxlbqwyo.jpg,00931960627fa.jpg,sunaptrqvaooxfvktvw.jpg,00921960627fa.jpg,sunapqkpqdfvxlbqwyo.jpg,,,>,Place,,,,,1,,,,,,,o
301,33,Presentation,6,00153931230fa_sunaauhozyxzeeqstxi.jpg,00805941205fa_sunagwzdbtlixdhgolm.jpg,00153931230fa.jpg,sunaauhozyxzeeqstxi.jpg,00805941205fa.jpg,sunagwzdbtlixdhgolm.jpg,,,<,Place,,,,,1,,,,,,,o
302,33,Presentation,6,00730960620fa_sunaekgzpfilgjxpeyq.jpg,00902960530fa_sunanaacmmosxrfwmvl.jpg,00730960620fa.jpg,sunaekgzpfilgjxpeyq.jpg,00902960530fa.jpg,sunanaacmmosxrfwmvl.jpg,,,<,Face,,,,,1,,,,,,,x
303,33,Presentation,6,00479940519fa_sunabxsbfwjccqxxzxq.jpg,00859940307fa_sunaiycurtqsfkvcaso.jpg,00479940519fa.jpg,sunabxsbfwjccqxxzxq.jpg,00859940307fa.jpg,sunaiycurtqsfkvcaso.jpg,,,>,Face,,,,,1,,,,,,,x
304,33,Presentation,6,00960960627fa_sunawksfbacycuhbrsc.jpg,00296940422fa_sunabrwnslxalcohfre.jpg,00960960627fa.jpg,sunawksfbacycuhbrsc.jpg,00296940422fa.jpg,sunabrwnslxalcohfre.jpg,,,>,Face,,,,,1,,,,,,,o
305,33,Presentation,6,00090931230fa_sunaahedjlmtqekgyvj.jpg,00123931230fb_sunaalcrrdbjgdztbiz.jpg,00090931230fa.jpg,sunaahedjlmtqekgyvj.jpg,00123931230fb.jpg,sunaalcrrdbjgdztbiz.jpg,,,<,Place,,,,,1,,,,,,,o
306,33,Presentation,6,00564940928fa_sunacmpqqfbsvlzinzl.jpg,00836940307fa_sunainqelldeebvxtcz.jpg,00564940928fa.jpg,sunacmpqqfbsvlzinzl.jpg,00836940307fa.jpg,sunainqelldeebvxtcz.jpg,,,<,Face,,,,,1,,,,,,,o
307,33,Presentation,6,00877960530fa_sunajxpkuhbizeveguy.jpg,00633940928fa_sunadbhmrgrrpyzglxs.jpg,00877960530fa.jpg,sunajxpkuhbizeveguy.jpg,00633940928fa.jpg,sunadbhmrgrrpyzglxs.jpg,,,>,Place,,,,,1,,,,,,,o
308,33,Presentation,6,00576941031fa_sunacvjlsylseoghjup.jpg,00874940307fa_sunajtrfunvzdfticna.jpg,00576941031fa.jpg,sunacvjlsylseoghjup.jpg,00874940307fa.jpg,sunajtrfunvzdfticna.jpg,,,<,Face,,,,,1,,,,,,,x
309,33,Presentation,6,01010960627fa_suncnkvbhypnivcohyx.jpg,00292940422fb_sunabrjdpmoedcdjbpo.jpg,01010960627fa.jpg,suncnkvbhypnivcohyx.jpg,00292940422fb.jpg,sunabrjdpmoedcdjbpo.jpg,,,>,Place,,,,,1,,,,,,,x
310,33,Memory,6,,,,,,,00836940307fa.jpg,,,,,,,,,,,,,,,
311,33,Memory,6,,,,,,,sunaiycurtqsfkvcaso.jpg,,,,,,,,,,,,,,,
312,33,Memory,6,,,,,,,00801941205fa.jpg,,,,,,,,,,,,,,,
313,33,Memory,6,,,,,,,suncnkvbhypnivcohyx.jpg,,,,,,,,,,,,,,,
314,33,Memory,6,,,,,,,00958960627fa.jpg,,,,,,,,,,,,,,,
315,33,Memory,6,,,,,,,sunadtlxenqqxsyjvix.jpg,,,,,,,,,,,,,,,
316,33,Memory,6,,,,,,,sunasbbntuiheekqyaq.jpg,,,,,,,,,,,,,,,
317,33,Memory,6,,,,,,,00089931230fa.jpg,,,,,,,,,,,,,,,
318,33,Memory,6,,,,,,,00771941205fa.jpg,,,,,,,,,,,,,,,
319,33,Memory,6,,,,,,,00097931230fa.jpg,,,,,,,,,,,,,,,
320,33,Memory,6,,,,,,,sunaahedjlmtqekgyvj.jpg,,,,,,,,,,,,,,,
321,33,Memory,6,,,,,,,sunadbhmrgrrpyzglxs.jpg,,,,,,,,,,,,,,,
322,33,Memory,6,,,,,,,sunaptrqvaooxfvktvw.jpg,,,,,,,,,,,,,,,
323,33,Memory,6,,,,,,,01010960627fa.jpg,,,,,,,,,,,,,,,
324,33,Memory,6,,,,,,,sunainqelldeebvxtcz.jpg,,,,,,,,,,,,,,,
325,33,Memory,6,,,,,,,sunajrujcsdxmfbssmc.jpg,,,,,,,,,,,,,,,
326,33,Memory,6,,,,,,,00871940307.jpg,,,,,,,,,,,,,,,
327,33,Memory,6,,,,,,,00944960627fa.jpg,,,,,,,,,,,,,,,
328,33,Memory,6,,,,,,,sunaapllqyqlykszopd.jpg,,,,,,,,,,,,,,,
329,33,Memory,6,,,,,,,00859940307fa.jpg,,,,,,,,,,,,,,,
330,33,Memory,6,,,,,,,sunabrwnslxalcohfre.jpg,,,,,,,,,,,,,,,
331,33,Memory,6,,,,,,,sunafowswglhxcsufpo.jpg,,,,,,,,,,,,,,,
332,33,Memory,6,,,,,,,00296940422fa.jpg,,,,,,,,,,,,,,,
333,33,Memory,6,,,,,,,sunagvprlbprarvgdvj.jpg,,,,,,,,,,,,,,,
334,33,Memory,6,,,,,,,sunabxsbfwjccqxxzxq.jpg,,,,,,,,,,,,,,,
335,33,Memory,6,,,,,,,00633940928fa.jpg,,,,,,,,,,,,,,,
336,33,Memory,6,,,,,,,00705941205fa.jpg,,,,,,,,,,,,,,,
337,33,Memory,6,,,,,,,sunajtrfunvzdfticna.jpg,,,,,,,,,,,,,,,
338,33,Memory,6,,,,,,,sunaajayojuslbbnneg.jpg,,,,,,,,,,,,,,,
339,33,Memory,6,,,,,,,00931960627fa.jpg,,,,,,,,,,,,,,,
340,33,Memory,6,,,,,,,sunaayehfdqcyxggsej.jpg,,,,,,,,,,,,,,,
341,33,Memory,6,,,,,,,00874940307fa.jpg,,,,,,,,,,,,,,,
342,33,Memory,6,,,,,,,00479940519fa.jpg,,,,,,,,,,,,,,,
343,33,Memory,6,,,,,,,00194940128fb.jpg,,,,,,,,,,,,,,,
344,33,Memory,6,,,,,,,sunajxpkuhbizeveguy.jpg,,,,,,,,,,,,,,,
345,33,Memory,6,,,,,,,sunavspxmxubqaeidjt.jpg,,,,,,,,,,,,,,,
346,33,Memory,6,,,,,,,00090931230fa.jpg,,,,,,,,,,,,,,,
347,33,Memory,6,,,,,,,00877960530fa.jpg,,,,,,,,,,,,,,,
348,33,Memory,6,,,,,,,sunaagcpoejbuzyvddd.jpg,,,,,,,,,,,,,,,
349,33,Memory,6,,,,,,,00140931230fb.jpg,,,,,,,,,,,,,,,
350,33,Presentation,7,00062931230fb_sunaaelotvjgibjtjhs.jpg,00800941205fb_sunagvjurcwdbixvnyi.jpg,00062931230fb.jpg,sunaaelotvjgibjtjhs.jpg,00800941205fb.jpg,sunagvjurcwdbixvnyi.jpg,,,<,Face,,,,,0,,,,,,,x
351,33,Presentation,7,00077931230fb_sunaafgqutfaishsxyu.jpg,00581940928fa_sunacvzhvcksnwqcqbw.jpg,00077931230fb.jpg,sunaafgqutfaishsxyu.jpg,00581940928fa.jpg,sunacvzhvcksnwqcqbw.jpg,,,<,Face,,,,,1,,,,,,,o
352,33,Presentation,7,00095931230fa_sunaahzooisqkwlxwoz.jpg,01007960627fa_sunbxarcshsnqsefemx.jpg,00095931230fa.jpg,sunaahzooisqkwlxwoz.jpg,01007960627fa.jpg,sunbxarcshsnqsefemx.jpg,,,>,Place,,,,,1,,,,,,,o
353,33,Presentation,7,00966960627fa_sunaygrtwrwfezqjizr.jpg,00266940128fb_sunabkngeblodihjvbk.jpg,00966960627fa.jpg,sunaygrtwrwfezqjizr.jpg,00266940128fb.jpg,sunabkngeblodihjvbk.jpg,,,<,Place,,,,,1,,,,,,,o
354,33,Presentation,7,00967960627fa_sunbaejotfklekvpxcz.jpg,00112931230fa_sunaakjaacuzulqckgl.jpg,00967960627fa.jpg,sunbaejotfklekvpxcz.jpg,00112931230fa.jpg,sunaakjaacuzulqckgl.jpg,,,>,Place,,,,,0,,,,,,,o
355,33,Presentation,7,00636941031fa_sunaddtdkycxbqlpfqa.jpg,00568940928fa_sunacsdhbbsybcyxnel.jpg,00636941031fa.jpg,sunaddtdkycxbqlpfqa.jpg,00568940928fa.jpg,sunacsdhbbsybcyxnel.jpg,,,>,Place,,,,,1,,,,,,,x
356,33,Presentation,7,00895960530fa_sunamczizlzavhzhpay.jpg,00305940422fa_sunabtrnbvpppgczjim.jpg,00895960530fa.jpg,sunamczizlzavhzhpay.jpg,00305940422fa.jpg,sunabtrnbvpppgczjim.jpg,,,<,Place,,,,,1,,,,,,,x
357,33,Presentation,7,00184940128fa_sunaavtbadenwnzeutj.jpg,00969960627fa_sunbaoizrfijvhpnnjn.jpg,00184940128fa.jpg,sunaavtbadenwnzeutj.jpg,00969960627fa.jpg,sunbaoizrfijvhpnnjn.jpg,,,>,Face,,,,,1,,,,,,,x
358,33,Presentation,7,00227940128fa_sunabckqabszusgcykj.jpg,00860940307fa_sunaizeyhvjzknwjudw.jpg,00227940128fa.jpg,sunabckqabszusgcykj.jpg,00860940307fa.jpg,sunaizeyhvjzknwjudw.jpg,,,>,Face,,,,,1,,,,,,,x
359,33,Presentation,7,00909960530_sunaobtizabegtwfwul.jpg,00986960627fa_sunbgzjryivyczuvkvm.jpg,00909960530.jpg,sunaobtizabegtwfwul.jpg,00986960627fa.jpg,sunbgzjryivyczuvkvm.jpg,,,<,Face,,,,,1,,,,,,,x
360,33,Memory,7,,,,,,,sunaygrtwrwfezqjizr.jpg,,,,,,,,,,,,,,,
361,33,Memory,7,,,,,,,sunaiwduelojtwaqeyh.jpg,,,,,,,,,,,,,,,
362,33,Memory,7,,,,,,,sunabckqabszusgcykj.jpg,,,,,,,,,,,,,,,
363,33,Memory,7,,,,,,,00073931230fa.jpg,,,,,,,,,,,,,,,
364,33,Memory,7,,,,,,,00854940307fa.jpg,,,,,,,,,,,,,,,
365,33,Memory,7,,,,,,,00266940128fb.jpg,,,,,,,,,,,,,,,
366,33,Memory,7,,,,,,,sunbxarcshsnqsefemx.jpg,,,,,,,,,,,,,,,
367,33,Memory,7,,,,,,,sunaafgqutfaishsxyu.jpg,,,,,,,,,,,,,,,
368,33,Memory,7,,,,,,,sunaecpkgfewqqreqwe.jpg,,,,,,,,,,,,,,,
369,33,Memory,7,,,,,,,00894960620fa.jpg,,,,,,,,,,,,,,,
370,33,Memory,7,,,,,,,00986960627fa.jpg,,,,,,,,,,,,,,,
371,33,Memory,7,,,,,,,sunafvtpfczkzopbgue.jpg,,,,,,,,,,,,,,,
372,33,Memory,7,,,,,,,00543940519fa.jpg,,,,,,,,,,,,,,,
373,33,Memory,7,,,,,,,sunaguchqqnrtodtezq.jpg,,,,,,,,,,,,,,,
374,33,Memory,7,,,,,,,00838940307fa.jpg,,,,,,,,,,,,,,,
375,33,Memory,7,,,,,,,00720960620fa.jpg,,,,,,,,,,,,,,,
376,33,Memory,7,,,,,,,sunabkngeblodihjvbk.jpg,,,,,,,,,,,,,,,
377,33,Memory,7,,,,,,,sunaiozxhxgtfrmoagh.jpg,,,,,,,,,,,,,,,
378,33,Memory,7,,,,,,,01207940128fa.jpg,,,,,,,,,,,,,,,
379,33,Memory,7,,,,,,,00227940128fa.jpg,,,,,,,,,,,,,,,
380,33,Memory,7,,,,,,,00774941201fa.jpg,,,,,,,,,,,,,,,
381,33,Memory,7,,,,,,,00800941205fb.jpg,,,,,,,,,,,,,,,
382,33,Memory,7,,,,,,,00868960307fa.jpg,,,,,,,,,,,,,,,
383,33,Memory,7,,,,,,,sunajjxttslobudoqbv.jpg,,,,,,,,,,,,,,,
384,33,Memory,7,,,,,,,sunaahzooisqkwlxwoz.jpg,,,,,,,,,,,,,,,
385,33,Memory,7,,,,,,,sundbixjudsgeuuehrn.jpg,,,,,,,,,,,,,,,
386,33,Memory,7,,,,,,,sunalqmfgeadpqsyzpd.jpg,,,,,,,,,,,,,,,
387,33,Memory,7,,,,,,,sunaobtizabegtwfwul.jpg,,,,,,,,,,,,,,,
388,33,Memory,7,,,,,,,00909960530.jpg,,,,,,,,,,,,,,,
389,33,Memory,7,,,,,,,sunabtrnbvpppgczjim.jpg,,,,,,,,,,,,,,,
390,33,Memory,7,,,,,,,sunacepzfrmtkiqonpy.jpg,,,,,,,,,,,,,,,
391,33,Memory,7,,,,,,,sunbgzjryivyczuvkvm.jpg,,,,,,,,,,,,,,,
392,33,Memory,7,,,,,,,00966960627fa.jpg,,,,,,,,,,,,,,,
393,33,Memory,7,,,,,,,sunaafbmtoniaasysgu.jpg,,,,,,,,,,,,,,,
394,33,Memory,7,,,,,,,00305940422fa.jpg,,,,,,,,,,,,,,,
395,33,Memory,7,,,,,,,01007960627fa.jpg,,,,,,,,,,,,,,,
396,33,Memory,7,,,,,,,00077931230fb.jpg,,,,,,,,,,,,,,,
397,33,Memory,7,,,,,,,sunagvjurcwdbixvnyi.jpg,,,,,,,,,,,,,,,
398,33,Memory,7,,,,,,,00095931230fa.jpg,,,,,,,,,,,,,,,
399,33,Memory,7,,,,,,,00796941205fa.jpg,,,,,,,,,,,,,,,
