,Subject,Trial Type,Run,Cued Composite,Uncued Composite,Cued Face,Cued Place,Uncued Face,Uncued Place,Memory Image,Category,Cued Side,Cued Category,Attention Reaction Time (s),Familiarity Reaction Time (s),Familiarity Rating,Attention Level,Cue Validity,Post Invalid Cue,Pre Invalid Cue,Attention Button,Rating History,Stimulus Onset,Stimulus End,Attention Probe
210,33,Memory,4,,,,,,,00124931230fa.jpg,,,,,0.896,1.0,,,,,,,1556311860.243498,1556311864.227795,
211,33,Memory,4,,,,,,,sunagoufulkpsxrmklt.jpg,,,,,1.178,4.0,,,,,,,1556311865.645845,1556311869.580323,
212,33,Memory,4,,,,,,,sunbvbrvgbpanfrawft.jpg,,,,,1.312,2.0,,,,,,,1556311870.881051,1556311874.814587,
213,33,Memory,4,,,,,,,00598940928fa.jpg,,,,,1.844,3.0,,,,,,,1556311876.149344,1556311880.083805,
214,33,Memory,4,,,,,,,00793941205fa.jpg,,,,,2.179,1.0,,,,,,,1556311881.400522,1556311885.334852,
215,33,Memory,4,,,,,,,sunabrlndkruqokhury.jpg,,,,,2.879,4.0,,,,,,,1556311886.651827,1556311890.587338,
216,33,Memory,4,,,,,,,00598941031fa.jpg,,,,,1.545,4.0,,,,,,,1556311891.886529,1556311895.821827,
217,33,Memory,4,,,,,,,sunaeutbrtswvsozxyk.jpg,,,,,2.111,1.0,,,,,,,1556311897.121706,1556311901.040513,
218,33,Memory,4,,,,,,,00784941205fb.jpg,,,,,1.579,4.0,,,,,,,1556311902.356909,1556311906.29121,
219,33,Memory,4,,,,,,,00133931230fa.jpg,,,,,1.076,1.0,,,,,,,1556311907.62506,1556311911.560442,
220,33,Memory,4,,,,,,,00061931230fb.jpg,,,,,0.843,1.0,,,,,,,1556311912.87635,1556311916.811362,
221,33,Memory,4,,,,,,,00218940128fa.jpg,,,,,1.147,3.0,,,,,,,1556311918.128662,1556311922.063889,
222,33,Memory,4,,,,,,,sunagpancjmxqfazssf.jpg,,,,,1.346,1.0,,,,,,,1556311923.380438,1556311927.31501,
223,33,Memory,4,,,,,,,sunagtjwilqjvxohypn.jpg,,,,,1.378,1.0,,,,,,,1556311928.665274,1556311932.599636,
224,33,Memory,4,,,,,,,sunaeouogqolxvggaoq.jpg,,,,,1.227,4.0,,,,,,,1556311933.917544,1556311937.817996,
225,33,Memory,4,,,,,,,00987960627fa.jpg,,,,,1.31,3.0,,,,,,,1556311939.136043,1556311943.070257,
226,33,Memory,4,,,,,,,sunacxtcahkymosigud.jpg,,,,,0.778,1.0,,,,,,,1556311944.404219,1556311948.338495,
227,33,Memory,4,,,,,,,sunaalhlvzmjmitybdn.jpg,,,,,2.394,1.0,,,,,,,1556311949.673413,1556311953.58973,
228,33,Memory,4,,,,,,,00789960620fa.jpg,,,,,1.044,3.0,,,,,,,1556311954.924549,1556311958.859849,
229,33,Memory,4,,,,,,,00162931230fb.jpg,,,,,1.678,2.0,,,,,,,1556311960.209923,1556311964.144231,
230,33,Memory,4,,,,,,,sunagjzcrjvmxzqzljx.jpg,,,,,1.711,1.0,,,,,,,1556311965.478197,1556311969.412497,
231,33,Memory,4,,,,,,,00294940422fb.jpg,,,,,1.311,1.0,,,,,,,1556311970.763552,1556311974.697721,
232,33,Memory,4,,,,,,,sunaavjinpnkappuonm.jpg,,,,,1.412,1.0,,,,,,,1556311976.031139,1556311979.96524,
233,33,Memory,4,,,,,,,sunaatpeezlljqaxlhj.jpg,,,,,1.344,4.0,,,,,,,1556311981.316002,1556311985.25043,
234,33,Memory,4,,,,,,,00787960620fa.jpg,,,,,0.878,2.0,,,,,,,1556311986.567764,1556311990.486672,
235,33,Memory,4,,,,,,,sunacxeheuiigkcgquf.jpg,,,,,1.243,1.0,,,,,,,1556311991.819902,1556311995.753937,
236,33,Memory,4,,,,,,,sunbloeoiozwjjsiamp.jpg,,,,,0.945,1.0,,,,,,,1556311997.070951,1556312001.006077,
237,33,Memory,4,,,,,,,00747941201fa.jpg,,,,,1.211,1.0,,,,,,,1556312002.305586,1556312006.240539,
238,33,Memory,4,,,,,,,sunaanlwnpqndclffxt.jpg,,,,,1.177,1.0,,,,,,,1556312007.557701,1556312011.492846,
239,33,Memory,4,,,,,,,00745941205fa.jpg,,,,,1.678,1.0,,,,,,,1556312012.809846,1556312016.744394,
240,33,Memory,4,,,,,,,00060931230fa.jpg,,,,,1.213,2.0,,,,,,,1556312018.127444,1556312022.062631,
241,33,Memory,4,,,,,,,sunadsgmtznewzyasnk.jpg,,,,,1.445,1.0,,,,,,,1556312023.379937,1556312027.314622,
242,33,Memory,4,,,,,,,00999960627fa.jpg,,,,,1.745,1.0,,,,,,,1556312028.614904,1556312032.549978,
243,33,Memory,4,,,,,,,00936960627fa.jpg,,,,,1.445,1.0,,,,,,,1556312033.865969,1556312037.784348,
244,33,Memory,4,,,,,,,sunabbwggenhfbftyvi.jpg,,,,,1.41,1.0,,,,,,,1556312039.085297,1556312043.019735,
245,33,Memory,4,,,,,,,00700941121fa.jpg,,,,,1.711,2.0,,,,,,,1556312044.353937,1556312048.288221,
246,33,Memory,4,,,,,,,sunaqgjuuwvdcyiccjt.jpg,,,,,1.41,2.0,,,,,,,1556312049.58932,1556312053.522299,
247,33,Memory,4,,,,,,,sunaaekxzjzrfgtkwjf.jpg,,,,,2.011,1.0,,,,,,,1556312054.82404,1556312058.757599,
248,33,Memory,4,,,,,,,00146960620fb.jpg,,,,,2.144,1.0,,,,,,,1556312060.059284,1556312063.993836,
249,33,Memory,4,,,,,,,sunaaehaikpckyjsety.jpg,,,,,2.345,4.0,,,,,,,1556312065.293756,1556312069.22819,
