,Subject,Trial Type,Run,Cued Composite,Uncued Composite,Cued Face,Cued Place,Uncued Face,Uncued Place,Memory Image,Category,Cued Side,Cued Category,Attention Reaction Time (s),Familiarity Reaction Time (s),Familiarity Rating,Attention Level,Cue Validity,Post Invalid Cue,Pre Invalid Cue,Attention Button,Rating History,Stimulus Onset,Stimulus End,Attention Probe
60,22,Memory,1,,,,,,,00294940422fb.jpg,,,,,1.661,1.0,,,,,,,1554915621.398517,1554915625.315886,
61,22,Memory,1,,,,,,,00208940128fa.jpg,,,,,1.278,1.0,,,,,,,1554915626.67863,1554915629.901807,
62,22,Memory,1,,,,,,,00694941121fa.jpg,,,,,1.127,1.0,,,,,,,1554915631.301389,1554915635.152347,
63,22,Memory,1,,,,,,,sunagutjvdvnhxejerz.jpg,,,,,1.794,1.0,,,,,,,1554915636.469323,1554915640.304511,
64,22,Memory,1,,,,,,,00290940422fa.jpg,,,,,0.876,2.0,,,,,,,1554915641.620967,1554915645.52302,
65,22,Memory,1,,,,,,,00825940307fa.jpg,,,,,0.961,1.0,,,,,,,1554915646.839191,1554915650.773697,
66,22,Memory,1,,,,,,,sunabyfxcxhdebvdyfd.jpg,,,,,1.16,2.0,,,,,,,1554915652.074469,1554915655.874832,
67,22,Memory,1,,,,,,,sunacjkmnpawfzbyvae.jpg,,,,,0.826,1.0,,,,,,,1554915657.177385,1554915661.044935,
68,22,Memory,1,,,,,,,00559940519fa.jpg,,,,,0.859,1.0,,,,,,,1554915662.378944,1554915666.195947,
69,22,Memory,1,,,,,,,sunaozisvwfbmlkfhzv.jpg,,,,,1.393,4.0,,,,,,,1554915667.564065,1554915671.414686,
70,22,Memory,1,,,,,,,sunajawzbrlrwafowen.jpg,,,,,0.943,2.0,,,,,,,1554915672.782623,1554915676.714678,
71,22,Memory,1,,,,,,,sunaazzyhbvqjpmazjq.jpg,,,,,0.777,1.0,,,,,,,1554915678.017697,1554915681.867778,
72,22,Memory,1,,,,,,,00482940519fa.jpg,,,,,1.027,2.0,,,,,,,1554915683.185896,1554915687.01932,
73,22,Memory,1,,,,,,,00884960530fa.jpg,,,,,0.76,1.0,,,,,,,1554915688.337359,1554915692.205351,
74,22,Memory,1,,,,,,,sunahrltmuwbiehihpe.jpg,,,,,0.742,1.0,,,,,,,1554915693.638633,1554915697.423,
75,22,Memory,1,,,,,,,sunabqowuarvqqcnipn.jpg,,,,,0.709,1.0,,,,,,,1554915698.756993,1554915702.691178,
76,22,Memory,1,,,,,,,sunaakgekhjklxmvulj.jpg,,,,,0.643,1.0,,,,,,,1554915704.042583,1554915706.671374,
77,22,Memory,1,,,,,,,00864940307fa.jpg,,,,,0.832,2.0,,,,,,,1554915707.944079,1554915709.926242,
78,22,Memory,1,,,,,,,00893960530Fa.jpg,,,,,0.776,1.0,,,,,,,1554915711.210666,1554915715.061227,
79,22,Memory,1,,,,,,,00809960620fa.jpg,,,,,0.81,1.0,,,,,,,1554915716.329154,1554915720.163957,
80,22,Memory,1,,,,,,,sunaakjaacuzulqckgl.jpg,,,,,0.977,3.0,,,,,,,1554915721.464251,1554915725.298149,
81,22,Memory,1,,,,,,,00111931230fb.jpg,,,,,0.961,2.0,,,,,,,1554915726.615563,1554915730.433807,
82,22,Memory,1,,,,,,,00227940128fa.jpg,,,,,0.926,3.0,,,,,,,1554915731.73363,1554915735.585167,
83,22,Memory,1,,,,,,,sunadrmfzmstgdjdcod.jpg,,,,,1.743,3.0,,,,,,,1554915736.898045,1554915740.25314,
84,22,Memory,1,,,,,,,00112931230fa.jpg,,,,,1.527,3.0,,,,,,,1554915741.5705,1554915745.455681,
85,22,Memory,1,,,,,,,sunakodkcslgqhqlgwl.jpg,,,,,1.095,3.0,,,,,,,1554915746.772496,1554915750.640602,
86,22,Memory,1,,,,,,,sunahbvlpavurqoxdeq.jpg,,,,,1.427,3.0,,,,,,,1554915751.956775,1554915755.874145,
87,22,Memory,1,,,,,,,sunawksfbacycuhbrsc.jpg,,,,,0.96,2.0,,,,,,,1554915757.158303,1554915760.927284,
88,22,Memory,1,,,,,,,00914960620fa.jpg,,,,,1.109,2.0,,,,,,,1554915762.261587,1554915766.11173,
89,22,Memory,1,,,,,,,00799941205fa.jpg,,,,,1.143,1.0,,,,,,,1554915767.412644,1554915771.247034,
90,22,Memory,1,,,,,,,sunaauhozyxzeeqstxi.jpg,,,,,1.209,2.0,,,,,,,1554915772.564917,1554915776.381279,
91,22,Memory,1,,,,,,,sunaloffvbvysigxent.jpg,,,,,0.875,1.0,,,,,,,1554915777.716386,1554915781.51753,
92,22,Memory,1,,,,,,,sunabckqabszusgcykj.jpg,,,,,0.76,2.0,,,,,,,1554915782.817719,1554915786.617736,
93,22,Memory,1,,,,,,,sunachtuarilwyqnvjx.jpg,,,,,0.976,1.0,,,,,,,1554915787.936727,1554915791.720165,
94,22,Memory,1,,,,,,,00557940519fa.jpg,,,,,2.259,4.0,,,,,,,1554915793.038077,1554915796.955099,
95,22,Memory,1,,,,,,,00874940307fa.jpg,,,,,0.0,,,,,,,,1554915798.256256,1554915800.235289,
96,22,Memory,1,,,,,,,00960960627fa.jpg,,,,,0.0,,,,,,,,1554915801.502185,1554915803.486428,
97,22,Memory,1,,,,,,,sunabrlndkruqokhury.jpg,,,,,0.898,1.0,,,,,,,1554915804.91996,1554915806.902982,
98,22,Memory,1,,,,,,,sunajtrfunvzdfticna.jpg,,,,,0.932,1.0,,,,,,,1554915808.175968,1554915810.154804,
99,22,Memory,1,,,,,,,00153931230fa.jpg,,,,,0.95,2.0,,,,,,,1554915811.438421,1554915813.423211,
