,Subject,Trial Type,Run,Cued Composite,Uncued Composite,Cued Face,Cued Place,Uncued Face,Uncued Place,Memory Image,Category,Cued Side,Cued Category,Attention Reaction Time (s),Familiarity Reaction Time (s),Familiarity Rating,Attention Level,Cue Validity,Post Invalid Cue,Pre Invalid Cue,Attention Button,Rating History,Stimulus Onset,Stimulus End,Attention Probe
110,22,Memory,2,,,,,,,00782941205fa.jpg,,,,,0.849,1.0,,,,,,,1554916013.993394,1554916016.006244,
111,22,Memory,2,,,,,,,sunaqgjuuwvdcyiccjt.jpg,,,,,1.0,1.0,,,,,,,1554916017.276679,1554916019.223376,
112,22,Memory,2,,,,,,,00662941121fa.jpg,,,,,0.784,2.0,,,,,,,1554916020.590691,1554916022.544439,
113,22,Memory,2,,,,,,,00306940422fa.jpg,,,,,0.0,,,,,,,,1554916023.796034,1554916025.74486,
114,22,Memory,2,,,,,,,sunafhmnhsdurlvddpw.jpg,,,,,0.935,1.0,,,,,,,1554916027.009053,1554916028.962192,
115,22,Memory,2,,,,,,,00598940928fa.jpg,,,,,1.085,1.0,,,,,,,1554916030.21435,1554916032.160042,
116,22,Memory,2,,,,,,,sunaaemixhfquhnxxlm.jpg,,,,,1.315,3.0,,,,,,,1554916033.411354,1554916035.361794,
117,22,Memory,2,,,,,,,sunacxeheuiigkcgquf.jpg,,,,,0.732,2.0,,,,,,,1554916036.612014,1554916038.566793,
118,22,Memory,2,,,,,,,sunbxzweleltykebgan.jpg,,,,,1.281,1.0,,,,,,,1554916039.801686,1554916041.748099,
119,22,Memory,2,,,,,,,sunaafvitpexrpvumsa.jpg,,,,,1.203,3.0,,,,,,,1554916042.9977,1554916044.948387,
120,22,Memory,2,,,,,,,00265940128fb.jpg,,,,,1.121,2.0,,,,,,,1554916046.198135,1554916048.149913,
121,22,Memory,2,,,,,,,00959960627fa.jpg,,,,,0.797,1.0,,,,,,,1554916049.399293,1554916051.351121,
122,22,Memory,2,,,,,,,sunaiozxhxgtfrmoagh.jpg,,,,,1.02,1.0,,,,,,,1554916052.622326,1554916054.570248,
123,22,Memory,2,,,,,,,00763941205fa.jpg,,,,,0.62,1.0,,,,,,,1554916055.822769,1554916057.76916,
124,22,Memory,2,,,,,,,00082931230fa.jpg,,,,,0.619,1.0,,,,,,,1554916059.040418,1554916060.985694,
125,22,Memory,2,,,,,,,sunaanlwnpqndclffxt.jpg,,,,,1.816,1.0,,,,,,,1554916062.2367,1554916064.19014,
126,22,Memory,2,,,,,,,00133931230fa.jpg,,,,,0.618,1.0,,,,,,,1554916065.437749,1554916067.39018,
127,22,Memory,2,,,,,,,sunagmwxxwymwojbvgi.jpg,,,,,1.101,2.0,,,,,,,1554916068.639,1554916070.589814,
128,22,Memory,2,,,,,,,sunavxokzybtomhbmvm.jpg,,,,,0.849,1.0,,,,,,,1554916071.82836,1554916073.773884,
129,22,Memory,2,,,,,,,sunanaacmmosxrfwmvl.jpg,,,,,0.818,1.0,,,,,,,1554916075.024734,1554916076.975792,
130,22,Memory,2,,,,,,,00065931230fb.jpg,,,,,0.882,2.0,,,,,,,1554916078.280468,1554916080.226072,
131,22,Memory,2,,,,,,,sunafvcflzhlqloapyo.jpg,,,,,1.366,1.0,,,,,,,1554916081.460038,1554916083.410354,
132,22,Memory,2,,,,,,,00564941031fa.jpg,,,,,0.963,3.0,,,,,,,1554916084.644869,1554916086.594705,
133,22,Memory,2,,,,,,,sunagfvluwixdsozaql.jpg,,,,,1.592,2.0,,,,,,,1554916087.833603,1554916090.346526,
134,22,Memory,2,,,,,,,sunacsaovnjezqwbykf.jpg,,,,,0.849,1.0,,,,,,,1554916091.579053,1554916093.530995,
135,22,Memory,2,,,,,,,00984960627fa.jpg,,,,,1.032,1.0,,,,,,,1554916094.802314,1554916096.747411,
136,22,Memory,2,,,,,,,00838940307fa.jpg,,,,,0.798,1.0,,,,,,,1554916097.998943,1554916099.949387,
137,22,Memory,2,,,,,,,00936960627fa.jpg,,,,,0.635,1.0,,,,,,,1554916101.183266,1554916103.136288,
138,22,Memory,2,,,,,,,00787941205fa.jpg,,,,,1.136,1.0,,,,,,,1554916104.405315,1554916107.056453,
139,22,Memory,2,,,,,,,sunasbbntuiheekqyaq.jpg,,,,,0.982,4.0,,,,,,,1554916108.318858,1554916110.274687,
140,22,Memory,2,,,,,,,00944960627fa.jpg,,,,,1.086,3.0,,,,,,,1554916111.502715,1554916113.454163,
141,22,Memory,2,,,,,,,sunagpjzsbltchlwvou.jpg,,,,,0.71,1.0,,,,,,,1554916114.725045,1554916117.610476,
142,22,Memory,2,,,,,,,sunabueyoajufbkraki.jpg,,,,,0.893,4.0,,,,,,,1554916118.893646,1554916122.612359,
143,22,Memory,2,,,,,,,00773941201fa.jpg,,,,,0.893,1.0,,,,,,,1554916123.895381,1554916127.712884,
144,22,Memory,2,,,,,,,01009960627fa.jpg,,,,,0.809,1.0,,,,,,,1554916129.013748,1554916132.832044,
145,22,Memory,2,,,,,,,00902960530fa.jpg,,,,,2.026,1.0,,,,,,,1554916134.114941,1554916137.983405,
146,22,Memory,2,,,,,,,sunbfzchmomnvzhbxdg.jpg,,,,,1.053,3.0,,,,,,,1554916139.250362,1554916141.195337,
147,22,Memory,2,,,,,,,sunadkazmlajmohnwfl.jpg,,,,,1.171,4.0,,,,,,,1554916142.435208,1554916144.384527,
148,22,Memory,2,,,,,,,00790941205fa.jpg,,,,,0.634,1.0,,,,,,,1554916145.635218,1554916147.581494,
149,22,Memory,2,,,,,,,sunabkmdplkdbvxriff.jpg,,,,,0.848,1.0,,,,,,,1554916148.820628,1554916150.766895,
