,Subject,Trial Type,Run,Cued Composite,Uncued Composite,Cued Face,Cued Place,Uncued Face,Uncued Place,Memory Image,Category,Cued Side,Cued Category,Attention Response Time (s),Familiarity Reaction Time (s),Familiarity Rating,Attention Level,Cue Validity,Post Invalid Cue,Pre Invalid Cue,Attention Button,Rating History,Stimulus Onset,Stimulus End,Attention Probe
0,skinpeel,Presentation,0,00193940928fa_sunaaxjpzcnxligjtjq.jpg,00564941031fa_sunacsaovnjezqwbykf.jpg,,,,,,,>,Face,,,,,1,,,,,,,o
1,skinpeel,Presentation,0,00741941201fa_sunaemcowdozyphwknd.jpg,00548940519fa_sunacerqowiaeoqkmsq.jpg,,,,,,,<,Place,,,,,1,,,,,,,x
2,skinpeel,Presentation,0,00184940128fa_sunaavtbadenwnzeutj.jpg,00124931230fa_sunaalhlvzmjmitybdn.jpg,,,,,,,<,Face,,,,,0,,,,,,,o
3,skinpeel,Presentation,0,00647941031fa_sunadflbrkckmepztql.jpg,00880960530fa_sunakmnfgklupjijsgf.jpg,,,,,,,>,Place,,,,,1,,,,,,,o
4,skinpeel,Presentation,0,00576941031fa_sunacvjlsylseoghjup.jpg,00211940128fa_sunabasphceswhwwqvv.jpg,,,,,,,<,Face,,,,,0,,,,,,,o
5,skinpeel,Presentation,0,00864940307fa_sunajawzbrlrwafowen.jpg,00197940128fa_sunaaylzyqlqrsmfwif.jpg,,,,,,,<,Place,,,,,1,,,,,,,o
6,skinpeel,Presentation,0,00871940307_sunajrujcsdxmfbssmc.jpg,00839940307fa_sunaipyohrqlwngaqif.jpg,,,,,,,>,Place,,,,,1,,,,,,,o
7,skinpeel,Presentation,0,00116931230fa_sunaakqepfoeqomfgxf.jpg,00822940307fa_sunahqrxievfeusiqlt.jpg,,,,,,,>,Face,,,,,1,,,,,,,x
8,skinpeel,Presentation,0,00122931230fa_sunaakxjfbrrequcjmx.jpg,00239940128fa_sunabctlikybqabezjv.jpg,,,,,,,<,Place,,,,,1,,,,,,,x
9,skinpeel,Presentation,0,00828940307fa_sunahuynahneraqftyz.jpg,00162931230fb_sunaavjinpnkappuonm.jpg,,,,,,,>,Face,,,,,0,,,,,,,x
10,skinpeel,Memory,0,,,,,,,00943960627fa.jpg,,,,,,,,,,,,,,,
11,skinpeel,Memory,0,,,,,,,00193940928fa.jpg,,,,,,,,,,,,,,,
12,skinpeel,Memory,0,,,,,,,sunarpsxqkduedrrzyi.jpg,,,,,,,,,,,,,,,
13,skinpeel,Memory,0,,,,,,,sunacxtcahkymosigud.jpg,,,,,,,,,,,,,,,
14,skinpeel,Memory,0,,,,,,,00576941031fa.jpg,,,,,,,,,,,,,,,
15,skinpeel,Memory,0,,,,,,,00162931230fb.jpg,,,,,,,,,,,,,,,
16,skinpeel,Memory,0,,,,,,,sunadnjjzohjhbohlwq.jpg,,,,,,,,,,,,,,,
17,skinpeel,Memory,0,,,,,,,00211940128fa.jpg,,,,,,,,,,,,,,,
18,skinpeel,Memory,0,,,,,,,00822940307fa.jpg,,,,,,,,,,,,,,,
19,skinpeel,Memory,0,,,,,,,sunagountlxpzkytsmp.jpg,,,,,,,,,,,,,,,
20,skinpeel,Memory,0,,,,,,,00568940928fa.jpg,,,,,,,,,,,,,,,
21,skinpeel,Memory,0,,,,,,,sunabxmguapjekttvwm.jpg,,,,,,,,,,,,,,,
22,skinpeel,Memory,0,,,,,,,00609940928fa.jpg,,,,,,,,,,,,,,,
23,skinpeel,Memory,0,,,,,,,00316940422fa.jpg,,,,,,,,,,,,,,,
24,skinpeel,Memory,0,,,,,,,sunacsdhbbsybcyxnel.jpg,,,,,,,,,,,,,,,
25,skinpeel,Memory,0,,,,,,,sunbbhqyyzmsxhsbjmp.jpg,,,,,,,,,,,,,,,
26,skinpeel,Memory,0,,,,,,,00880960530fa.jpg,,,,,,,,,,,,,,,
27,skinpeel,Memory,0,,,,,,,sunacvjlsylseoghjup.jpg,,,,,,,,,,,,,,,
28,skinpeel,Memory,0,,,,,,,00828940307fa.jpg,,,,,,,,,,,,,,,
29,skinpeel,Memory,0,,,,,,,sunaiycurtqsfkvcaso.jpg,,,,,,,,,,,,,,,
30,skinpeel,Memory,0,,,,,,,sunacycdoztxoluxjyk.jpg,,,,,,,,,,,,,,,
31,skinpeel,Memory,0,,,,,,,00197940128fa.jpg,,,,,,,,,,,,,,,
32,skinpeel,Memory,0,,,,,,,00788941205fa.jpg,,,,,,,,,,,,,,,
33,skinpeel,Memory,0,,,,,,,sunakmnfgklupjijsgf.jpg,,,,,,,,,,,,,,,
34,skinpeel,Memory,0,,,,,,,sunajawzbrlrwafowen.jpg,,,,,,,,,,,,,,,
35,skinpeel,Memory,0,,,,,,,sunaavjinpnkappuonm.jpg,,,,,,,,,,,,,,,
36,skinpeel,Memory,0,,,,,,,00663941121fa.jpg,,,,,,,,,,,,,,,
37,skinpeel,Memory,0,,,,,,,00630941031fa.jpg,,,,,,,,,,,,,,,
38,skinpeel,Memory,0,,,,,,,sunaakxjfbrrequcjmx.jpg,,,,,,,,,,,,,,,
39,skinpeel,Memory,0,,,,,,,sunadakkdovnuzlycvp.jpg,,,,,,,,,,,,,,,
40,skinpeel,Memory,0,,,,,,,sunabasphceswhwwqvv.jpg,,,,,,,,,,,,,,,
41,skinpeel,Memory,0,,,,,,,sunaaxjpzcnxligjtjq.jpg,,,,,,,,,,,,,,,
42,skinpeel,Memory,0,,,,,,,sunaaylzyqlqrsmfwif.jpg,,,,,,,,,,,,,,,
43,skinpeel,Memory,0,,,,,,,00976960627fa.jpg,,,,,,,,,,,,,,,
44,skinpeel,Memory,0,,,,,,,00122931230fa.jpg,,,,,,,,,,,,,,,
45,skinpeel,Memory,0,,,,,,,00864940307fa.jpg,,,,,,,,,,,,,,,
46,skinpeel,Memory,0,,,,,,,00598941031fa.jpg,,,,,,,,,,,,,,,
47,skinpeel,Memory,0,,,,,,,sunahuynahneraqftyz.jpg,,,,,,,,,,,,,,,
48,skinpeel,Memory,0,,,,,,,00859940307fa.jpg,,,,,,,,,,,,,,,
49,skinpeel,Memory,0,,,,,,,sunahqrxievfeusiqlt.jpg,,,,,,,,,,,,,,,
50,skinpeel,Presentation,1,00868960307fa_sunajjxttslobudoqbv.jpg,00096931230fa_sunaaiqiqcggrskoqgy.jpg,,,,,,,>,Place,,,,,1,,,,,,,x
51,skinpeel,Presentation,1,00077931230fb_sunaafgqutfaishsxyu.jpg,00961960627fa_sunawotxrevnqvamsfp.jpg,,,,,,,<,Face,,,,,1,,,,,,,o
52,skinpeel,Presentation,1,00071941031fa_sunaaexqbtdswxrqjvz.jpg,00996960627fa_sunbpvgllfdejxcpjqp.jpg,,,,,,,<,Place,,,,,1,,,,,,,o
53,skinpeel,Presentation,1,00648941031fa_sunadfndyrtqqiasoig.jpg,01010960627fa_suncnkvbhypnivcohyx.jpg,,,,,,,>,Face,,,,,1,,,,,,,o
54,skinpeel,Presentation,1,00662941121fa_sunadkazmlajmohnwfl.jpg,00498960627fa_sunabzjxlmkwnwzimua.jpg,,,,,,,<,Face,,,,,1,,,,,,,o
55,skinpeel,Presentation,1,00766960620fa_sunafijbgncijwykrnl.jpg,00922960627fa_sunapqkyghktgtosuuk.jpg,,,,,,,>,Face,,,,,1,,,,,,,x
56,skinpeel,Presentation,1,00650941031fa_sunadikxpvqeabxrvvc.jpg,00071940128fa_sunaaexpnawiehinlpy.jpg,,,,,,,>,Place,,,,,1,,,,,,,x
57,skinpeel,Presentation,1,00892960530fa_sunalntxqqadigcletd.jpg,00955960627fb_sunauburywlkjszngcq.jpg,,,,,,,<,Place,,,,,1,,,,,,,o
58,skinpeel,Presentation,1,00771941205fa_sunafowswglhxcsufpo.jpg,00194940128fb_sunaayehfdqcyxggsej.jpg,,,,,,,<,Face,,,,,1,,,,,,,x
59,skinpeel,Presentation,1,00154931230fa_sunaauueuhhvklldjik.jpg,00296940422fa_sunabrwnslxalcohfre.jpg,,,,,,,>,Place,,,,,1,,,,,,,o
60,skinpeel,Memory,1,,,,,,,sunadcphrizvfpljiqt.jpg,,,,,,,,,,,,,,,
61,skinpeel,Memory,1,,,,,,,sunaiwfobocrruqznsv.jpg,,,,,,,,,,,,,,,
62,skinpeel,Memory,1,,,,,,,00634940928fa.jpg,,,,,,,,,,,,,,,
63,skinpeel,Memory,1,,,,,,,00900960530fa.jpg,,,,,,,,,,,,,,,
64,skinpeel,Memory,1,,,,,,,00857940307fa.jpg,,,,,,,,,,,,,,,
65,skinpeel,Memory,1,,,,,,,sunalntxqqadigcletd.jpg,,,,,,,,,,,,,,,
66,skinpeel,Memory,1,,,,,,,00648941031fa.jpg,,,,,,,,,,,,,,,
67,skinpeel,Memory,1,,,,,,,00922960627fa.jpg,,,,,,,,,,,,,,,
68,skinpeel,Memory,1,,,,,,,sunagutjvdvnhxejerz.jpg,,,,,,,,,,,,,,,
69,skinpeel,Memory,1,,,,,,,sunajjxttslobudoqbv.jpg,,,,,,,,,,,,,,,
70,skinpeel,Memory,1,,,,,,,sunafijbgncijwykrnl.jpg,,,,,,,,,,,,,,,
71,skinpeel,Memory,1,,,,,,,00789960620fa.jpg,,,,,,,,,,,,,,,
72,skinpeel,Memory,1,,,,,,,00208940128fa.jpg,,,,,,,,,,,,,,,
73,skinpeel,Memory,1,,,,,,,sunamlotskmmsjeogby.jpg,,,,,,,,,,,,,,,
74,skinpeel,Memory,1,,,,,,,00961960627fa.jpg,,,,,,,,,,,,,,,
75,skinpeel,Memory,1,,,,,,,00892960530fa.jpg,,,,,,,,,,,,,,,
76,skinpeel,Memory,1,,,,,,,00773941201fa.jpg,,,,,,,,,,,,,,,
77,skinpeel,Memory,1,,,,,,,01010960627fa.jpg,,,,,,,,,,,,,,,
78,skinpeel,Memory,1,,,,,,,sunapqkyghktgtosuuk.jpg,,,,,,,,,,,,,,,
79,skinpeel,Memory,1,,,,,,,00766960620fa.jpg,,,,,,,,,,,,,,,
80,skinpeel,Memory,1,,,,,,,sunablfqiwfqomjarht.jpg,,,,,,,,,,,,,,,
81,skinpeel,Memory,1,,,,,,,sunafvcflzhlqloapyo.jpg,,,,,,,,,,,,,,,
82,skinpeel,Memory,1,,,,,,,00096931230fa.jpg,,,,,,,,,,,,,,,
83,skinpeel,Memory,1,,,,,,,00799941205fa.jpg,,,,,,,,,,,,,,,
84,skinpeel,Memory,1,,,,,,,00723941201fa.jpg,,,,,,,,,,,,,,,
85,skinpeel,Memory,1,,,,,,,sunadfndyrtqqiasoig.jpg,,,,,,,,,,,,,,,
86,skinpeel,Memory,1,,,,,,,suncnkvbhypnivcohyx.jpg,,,,,,,,,,,,,,,
87,skinpeel,Memory,1,,,,,,,00662941121fa.jpg,,,,,,,,,,,,,,,
88,skinpeel,Memory,1,,,,,,,00868960307fa.jpg,,,,,,,,,,,,,,,
89,skinpeel,Memory,1,,,,,,,00276940422fa.jpg,,,,,,,,,,,,,,,
90,skinpeel,Memory,1,,,,,,,sunagpancjmxqfazssf.jpg,,,,,,,,,,,,,,,
91,skinpeel,Memory,1,,,,,,,sunadkazmlajmohnwfl.jpg,,,,,,,,,,,,,,,
92,skinpeel,Memory,1,,,,,,,sunawotxrevnqvamsfp.jpg,,,,,,,,,,,,,,,
93,skinpeel,Memory,1,,,,,,,00498960627fa.jpg,,,,,,,,,,,,,,,
94,skinpeel,Memory,1,,,,,,,sunabmytpyhsgigllxu.jpg,,,,,,,,,,,,,,,
95,skinpeel,Memory,1,,,,,,,sunabzjxlmkwnwzimua.jpg,,,,,,,,,,,,,,,
96,skinpeel,Memory,1,,,,,,,sunaedtgwjvvziytspa.jpg,,,,,,,,,,,,,,,
97,skinpeel,Memory,1,,,,,,,sunaaiqiqcggrskoqgy.jpg,,,,,,,,,,,,,,,
98,skinpeel,Memory,1,,,,,,,sunaazzyhbvqjpmazjq.jpg,,,,,,,,,,,,,,,
99,skinpeel,Memory,1,,,,,,,00267940128fb.jpg,,,,,,,,,,,,,,,
100,skinpeel,Presentation,2,00589940928fa_sunacwggadqsfpovdjv.jpg,00894960620fa_sunalqmfgeadpqsyzpd.jpg,,,,,,,>,Place,,,,,1,,,,,,,x
101,skinpeel,Presentation,2,00227940128fa_sunabckqabszusgcykj.jpg,00705941205fa_sunadtlxenqqxsyjvix.jpg,,,,,,,<,Place,,,,,0,,,,,,,o
102,skinpeel,Presentation,2,00877960530fa_sunajxpkuhbizeveguy.jpg,00554940519fa_sunacfdkbsrughwqwtt.jpg,,,,,,,>,Face,,,,,1,,,,,,,x
103,skinpeel,Presentation,2,00070940307fa_sunaaeplwsfslcbtojr.jpg,00280940422fb_sunabohxbskznglnrhv.jpg,,,,,,,>,Place,,,,,1,,,,,,,o
104,skinpeel,Presentation,2,00878960530fa_sunakgbnzxmfohgehnu.jpg,00101931230fb_sunaajqmsaavkmgbsth.jpg,,,,,,,<,Face,,,,,1,,,,,,,o
105,skinpeel,Presentation,2,00754941201fa_sunaffgsyyvoqdlkmnk.jpg,00681941121fa_sunadqmjrhfjyuzyvdd.jpg,,,,,,,>,Face,,,,,1,,,,,,,x
106,skinpeel,Presentation,2,00903960620fa_sunanainkqdvktzoxyl.jpg,00631940928fa_sunadbdqzigzwipuipr.jpg,,,,,,,<,Place,,,,,1,,,,,,,o
107,skinpeel,Presentation,2,00968960627fa_sunbagfpovqwbuexqdn.jpg,00742941201fa_sunaenwuebvlpdmntju.jpg,,,,,,,>,Face,,,,,1,,,,,,,o
108,skinpeel,Presentation,2,00638941031fa_sunadfktsqjthoglcsm.jpg,00559940519fa_sunacjkmnpawfzbyvae.jpg,,,,,,,<,Face,,,,,1,,,,,,,o
109,skinpeel,Presentation,2,00963960627fa_sunayaepykrqvenaqqy.jpg,00574940928fa_sunacvbrcejzwmcgnoq.jpg,,,,,,,<,Place,,,,,1,,,,,,,o
110,skinpeel,Memory,2,,,,,,,sunacfdkbsrughwqwtt.jpg,,,,,,,,,,,,,,,
111,skinpeel,Memory,2,,,,,,,sunadtlxenqqxsyjvix.jpg,,,,,,,,,,,,,,,
112,skinpeel,Memory,2,,,,,,,sunabwmcbaxwioksdgw.jpg,,,,,,,,,,,,,,,
113,skinpeel,Memory,2,,,,,,,00280940422fb.jpg,,,,,,,,,,,,,,,
114,skinpeel,Memory,2,,,,,,,00742941201fa.jpg,,,,,,,,,,,,,,,
115,skinpeel,Memory,2,,,,,,,sunabckqabszusgcykj.jpg,,,,,,,,,,,,,,,
116,skinpeel,Memory,2,,,,,,,sunabwfvcqqidycwypa.jpg,,,,,,,,,,,,,,,
117,skinpeel,Memory,2,,,,,,,sunaajtnvzzpsjdzres.jpg,,,,,,,,,,,,,,,
118,skinpeel,Memory,2,,,,,,,00705941205fa.jpg,,,,,,,,,,,,,,,
119,skinpeel,Memory,2,,,,,,,00265940128fb.jpg,,,,,,,,,,,,,,,
120,skinpeel,Memory,2,,,,,,,00968960627fa.jpg,,,,,,,,,,,,,,,
121,skinpeel,Memory,2,,,,,,,sunabaergayifsgacxt.jpg,,,,,,,,,,,,,,,
122,skinpeel,Memory,2,,,,,,,sunaangbuylfvckqqoo.jpg,,,,,,,,,,,,,,,
123,skinpeel,Memory,2,,,,,,,sunbvbrvgbpanfrawft.jpg,,,,,,,,,,,,,,,
124,skinpeel,Memory,2,,,,,,,00554940519fa.jpg,,,,,,,,,,,,,,,
125,skinpeel,Memory,2,,,,,,,00559940519fa.jpg,,,,,,,,,,,,,,,
126,skinpeel,Memory,2,,,,,,,00131931230fb.jpg,,,,,,,,,,,,,,,
127,skinpeel,Memory,2,,,,,,,00108960530fa.jpg,,,,,,,,,,,,,,,
128,skinpeel,Memory,2,,,,,,,00762941201fa.jpg,,,,,,,,,,,,,,,
129,skinpeel,Memory,2,,,,,,,sunaqgjuuwvdcyiccjt.jpg,,,,,,,,,,,,,,,
130,skinpeel,Memory,2,,,,,,,00227940128fa.jpg,,,,,,,,,,,,,,,
131,skinpeel,Memory,2,,,,,,,sunacjkmnpawfzbyvae.jpg,,,,,,,,,,,,,,,
132,skinpeel,Memory,2,,,,,,,00314940422fa.jpg,,,,,,,,,,,,,,,
133,skinpeel,Memory,2,,,,,,,00936960627fa.jpg,,,,,,,,,,,,,,,
134,skinpeel,Memory,2,,,,,,,sunaaeplwsfslcbtojr.jpg,,,,,,,,,,,,,,,
135,skinpeel,Memory,2,,,,,,,sunaenwuebvlpdmntju.jpg,,,,,,,,,,,,,,,
136,skinpeel,Memory,2,,,,,,,00070940307fa.jpg,,,,,,,,,,,,,,,
137,skinpeel,Memory,2,,,,,,,00999960627fa.jpg,,,,,,,,,,,,,,,
138,skinpeel,Memory,2,,,,,,,sunafgzgbisbopcyslr.jpg,,,,,,,,,,,,,,,
139,skinpeel,Memory,2,,,,,,,00670941121fa.jpg,,,,,,,,,,,,,,,
140,skinpeel,Memory,2,,,,,,,sunabkmdplkdbvxriff.jpg,,,,,,,,,,,,,,,
141,skinpeel,Memory,2,,,,,,,sunacwggadqsfpovdjv.jpg,,,,,,,,,,,,,,,
142,skinpeel,Memory,2,,,,,,,00589940928fa.jpg,,,,,,,,,,,,,,,
143,skinpeel,Memory,2,,,,,,,sunakgbnzxmfohgehnu.jpg,,,,,,,,,,,,,,,
144,skinpeel,Memory,2,,,,,,,sunbagfpovqwbuexqdn.jpg,,,,,,,,,,,,,,,
145,skinpeel,Memory,2,,,,,,,00308940422fb.jpg,,,,,,,,,,,,,,,
146,skinpeel,Memory,2,,,,,,,sunadochqcucscehsgk.jpg,,,,,,,,,,,,,,,
147,skinpeel,Memory,2,,,,,,,sunabohxbskznglnrhv.jpg,,,,,,,,,,,,,,,
148,skinpeel,Memory,2,,,,,,,00878960530fa.jpg,,,,,,,,,,,,,,,
149,skinpeel,Memory,2,,,,,,,00209940128fb.jpg,,,,,,,,,,,,,,,
150,skinpeel,Presentation,3,00835940307fa_sunaijsqpvodplbwxkf.jpg,00292940422fb_sunabrjdpmoedcdjbpo.jpg,,,,,,,>,Place,,,,,1,,,,,,,x
151,skinpeel,Presentation,3,00191940128fb_sunaawsdjisukbbginm.jpg,00142931230fb_sunaapxkpvrhpjplsok.jpg,,,,,,,<,Face,,,,,1,,,,,,,o
152,skinpeel,Presentation,3,00777941205fa_sunagcinxkccdtrjmlv.jpg,00540940519fa_sunacdnquypmsshhsbk.jpg,,,,,,,>,Face,,,,,1,,,,,,,x
153,skinpeel,Presentation,3,00989960627fa_sunbondbduabvijnmch.jpg,00969960627fa_sunbaoizrfijvhpnnjn.jpg,,,,,,,<,Face,,,,,1,,,,,,,o
154,skinpeel,Presentation,3,00785941205fa_sunaglqunwuycxydmyu.jpg,00145931230fb_sunaatjesvdupctftmn.jpg,,,,,,,<,Place,,,,,1,,,,,,,x
155,skinpeel,Presentation,3,00913960530fa_sunaooffzffbhcpirmm.jpg,00529940519fa_sunacbeefkxpymwevpk.jpg,,,,,,,<,Face,,,,,1,,,,,,,o
156,skinpeel,Presentation,3,00869940307fa_sunajoveqhiprwqgoco.jpg,00270940422fb_sunabllobxadqcyttej.jpg,,,,,,,>,Face,,,,,1,,,,,,,o
157,skinpeel,Presentation,3,00221940128fa_sunabcfpwlpolnutyju.jpg,00675941121fa_sunadoxcchtmsxewsau.jpg,,,,,,,>,Place,,,,,1,,,,,,,x
158,skinpeel,Presentation,3,00749941201fa_sunaeuvjbmdpknaqqaj.jpg,00957960627fa_sunavhxgmgrqsaptynb.jpg,,,,,,,<,Place,,,,,1,,,,,,,o
159,skinpeel,Presentation,3,00990960627fa_sunbpflsdaxnddnwcqi.jpg,01207940128fa_sundbixjudsgeuuehrn.jpg,,,,,,,>,Place,,,,,1,,,,,,,x
160,skinpeel,Memory,3,,,,,,,sunbwyuesflwdpqtgoy.jpg,,,,,,,,,,,,,,,
161,skinpeel,Memory,3,,,,,,,00749941201fa.jpg,,,,,,,,,,,,,,,
162,skinpeel,Memory,3,,,,,,,sunaeuvjbmdpknaqqaj.jpg,,,,,,,,,,,,,,,
163,skinpeel,Memory,3,,,,,,,sunaatjesvdupctftmn.jpg,,,,,,,,,,,,,,,
164,skinpeel,Memory,3,,,,,,,sunagsiwrmuixqgdimb.jpg,,,,,,,,,,,,,,,
165,skinpeel,Memory,3,,,,,,,00191940128fb.jpg,,,,,,,,,,,,,,,
166,skinpeel,Memory,3,,,,,,,sunammbnoambmhdxdwd.jpg,,,,,,,,,,,,,,,
167,skinpeel,Memory,3,,,,,,,sunacvzhvcksnwqcqbw.jpg,,,,,,,,,,,,,,,
168,skinpeel,Memory,3,,,,,,,sunbaoizrfijvhpnnjn.jpg,,,,,,,,,,,,,,,
169,skinpeel,Memory,3,,,,,,,00540940519fa.jpg,,,,,,,,,,,,,,,
170,skinpeel,Memory,3,,,,,,,sunagfvluwixdsozaql.jpg,,,,,,,,,,,,,,,
171,skinpeel,Memory,3,,,,,,,00221940128fa.jpg,,,,,,,,,,,,,,,
172,skinpeel,Memory,3,,,,,,,sunavhxgmgrqsaptynb.jpg,,,,,,,,,,,,,,,
173,skinpeel,Memory,3,,,,,,,00145931230fb.jpg,,,,,,,,,,,,,,,
174,skinpeel,Memory,3,,,,,,,sunacdnquypmsshhsbk.jpg,,,,,,,,,,,,,,,
175,skinpeel,Memory,3,,,,,,,sunaawsdjisukbbginm.jpg,,,,,,,,,,,,,,,
176,skinpeel,Memory,3,,,,,,,00147931230fb.jpg,,,,,,,,,,,,,,,
177,skinpeel,Memory,3,,,,,,,00792941205fa.jpg,,,,,,,,,,,,,,,
178,skinpeel,Memory,3,,,,,,,00581940928fa.jpg,,,,,,,,,,,,,,,
179,skinpeel,Memory,3,,,,,,,00913960530fa.jpg,,,,,,,,,,,,,,,
180,skinpeel,Memory,3,,,,,,,00630940928fa.jpg,,,,,,,,,,,,,,,
181,skinpeel,Memory,3,,,,,,,00869940307fa.jpg,,,,,,,,,,,,,,,
182,skinpeel,Memory,3,,,,,,,00957960627fa.jpg,,,,,,,,,,,,,,,
183,skinpeel,Memory,3,,,,,,,00782941205fa.jpg,,,,,,,,,,,,,,,
184,skinpeel,Memory,3,,,,,,,sunaczwgyukesaajxnx.jpg,,,,,,,,,,,,,,,
185,skinpeel,Memory,3,,,,,,,sunabllobxadqcyttej.jpg,,,,,,,,,,,,,,,
186,skinpeel,Memory,3,,,,,,,sunaooffzffbhcpirmm.jpg,,,,,,,,,,,,,,,
187,skinpeel,Memory,3,,,,,,,sunajoveqhiprwqgoco.jpg,,,,,,,,,,,,,,,
188,skinpeel,Memory,3,,,,,,,sunaatpkocdkocwxpkb.jpg,,,,,,,,,,,,,,,
189,skinpeel,Memory,3,,,,,,,sunagvprlbprarvgdvj.jpg,,,,,,,,,,,,,,,
190,skinpeel,Memory,3,,,,,,,01005960627fa.jpg,,,,,,,,,,,,,,,
191,skinpeel,Memory,3,,,,,,,00270940422fb.jpg,,,,,,,,,,,,,,,
192,skinpeel,Memory,3,,,,,,,00969960627fa.jpg,,,,,,,,,,,,,,,
193,skinpeel,Memory,3,,,,,,,00801941205fa.jpg,,,,,,,,,,,,,,,
194,skinpeel,Memory,3,,,,,,,00086931230fa.jpg,,,,,,,,,,,,,,,
195,skinpeel,Memory,3,,,,,,,sunaathajvxrgptwhoj.jpg,,,,,,,,,,,,,,,
196,skinpeel,Memory,3,,,,,,,00144931230fb.jpg,,,,,,,,,,,,,,,
197,skinpeel,Memory,3,,,,,,,00901960530fa.jpg,,,,,,,,,,,,,,,
198,skinpeel,Memory,3,,,,,,,sunaafynehyrzpsoaml.jpg,,,,,,,,,,,,,,,
199,skinpeel,Memory,3,,,,,,,sunabcfpwlpolnutyju.jpg,,,,,,,,,,,,,,,
200,skinpeel,Presentation,4,00093931230fa_sunaahwnmtqsrhocysw.jpg,00973960627fa_sunbbgtoeuzierkkajt.jpg,,,,,,,<,Face,,,,,1,,,,,,,x
201,skinpeel,Presentation,4,00507940519fa_sunacacflqoyxhsqzhe.jpg,00097931230fa_sunaajayojuslbbnneg.jpg,,,,,,,<,Place,,,,,1,,,,,,,o
202,skinpeel,Presentation,4,00925960627fa_sunapqwnqzxlsfvgsjm.jpg,00063931230fa_sunaaelyvurpntclgau.jpg,,,,,,,>,Place,,,,,1,,,,,,,x
203,skinpeel,Presentation,4,00481940519fa_sunabxsuqbleluwczoy.jpg,00958960627fa_sunavspxmxubqaeidjt.jpg,,,,,,,<,Place,,,,,1,,,,,,,x
204,skinpeel,Presentation,4,00982960627fa_sunbesrwkdsffeogeqq.jpg,01000960627fa_sunbvzmgrdvaakxusbu.jpg,,,,,,,<,Face,,,,,1,,,,,,,x
205,skinpeel,Presentation,4,00787960620fa_sunagoufulkpsxrmklt.jpg,00978960627fa_sunbddbivbptlrlauhy.jpg,,,,,,,>,Face,,,,,1,,,,,,,o
206,skinpeel,Presentation,4,00149931230fa_sunaauglwmctnkxyird.jpg,00926960627Fa_sunapqwoeotxshkukbh.jpg,,,,,,,>,Place,,,,,1,,,,,,,x
207,skinpeel,Presentation,4,00921960627fa_sunapqkpqdfvxlbqwyo.jpg,00891960530fa_sunalkiibhqpxfamlll.jpg,,,,,,,<,Face,,,,,1,,,,,,,x
208,skinpeel,Presentation,4,00694941121fa_sunadrmfzmstgdjdcod.jpg,00112931230fa_sunaakjaacuzulqckgl.jpg,,,,,,,>,Face,,,,,1,,,,,,,x
209,skinpeel,Presentation,4,00977960627fa_sunbbxkanhzjgbwyxqs.jpg,00966960627fa_sunaygrtwrwfezqjizr.jpg,,,,,,,>,Place,,,,,1,,,,,,,x
210,skinpeel,Memory,4,,,,,,,00982960627fa.jpg,,,,,,,,,,,,,,,
211,skinpeel,Memory,4,,,,,,,sunaajayojuslbbnneg.jpg,,,,,,,,,,,,,,,
212,skinpeel,Memory,4,,,,,,,sunafvwfsmqkjrutjta.jpg,,,,,,,,,,,,,,,
213,skinpeel,Memory,4,,,,,,,00092931230fa.jpg,,,,,,,,,,,,,,,
214,skinpeel,Memory,4,,,,,,,sunaobtizabegtwfwul.jpg,,,,,,,,,,,,,,,
215,skinpeel,Memory,4,,,,,,,00848940307fa.jpg,,,,,,,,,,,,,,,
216,skinpeel,Memory,4,,,,,,,sunavspxmxubqaeidjt.jpg,,,,,,,,,,,,,,,
217,skinpeel,Memory,4,,,,,,,00891960530fa.jpg,,,,,,,,,,,,,,,
218,skinpeel,Memory,4,,,,,,,00760960620fa.jpg,,,,,,,,,,,,,,,
219,skinpeel,Memory,4,,,,,,,00774941201fa.jpg,,,,,,,,,,,,,,,
220,skinpeel,Memory,4,,,,,,,sunabclssnoeuigtawp.jpg,,,,,,,,,,,,,,,
221,skinpeel,Memory,4,,,,,,,00841940307fa.jpg,,,,,,,,,,,,,,,
222,skinpeel,Memory,4,,,,,,,00694941121fa.jpg,,,,,,,,,,,,,,,
223,skinpeel,Memory,4,,,,,,,00909960530.jpg,,,,,,,,,,,,,,,
224,skinpeel,Memory,4,,,,,,,00973960627fa.jpg,,,,,,,,,,,,,,,
225,skinpeel,Memory,4,,,,,,,sunaaheqzstzxuadglu.jpg,,,,,,,,,,,,,,,
226,skinpeel,Memory,4,,,,,,,00775941205fa.jpg,,,,,,,,,,,,,,,
227,skinpeel,Memory,4,,,,,,,00979960627fa.jpg,,,,,,,,,,,,,,,
228,skinpeel,Memory,4,,,,,,,00097931230fa.jpg,,,,,,,,,,,,,,,
229,skinpeel,Memory,4,,,,,,,sunabxsuqbleluwczoy.jpg,,,,,,,,,,,,,,,
230,skinpeel,Memory,4,,,,,,,00235940128fb.jpg,,,,,,,,,,,,,,,
231,skinpeel,Memory,4,,,,,,,sunaivdylrawbmhryfp.jpg,,,,,,,,,,,,,,,
232,skinpeel,Memory,4,,,,,,,sunafvtpfczkzopbgue.jpg,,,,,,,,,,,,,,,
233,skinpeel,Memory,4,,,,,,,00136931230fb.jpg,,,,,,,,,,,,,,,
234,skinpeel,Memory,4,,,,,,,sunaanptmsknhirrzed.jpg,,,,,,,,,,,,,,,
235,skinpeel,Memory,4,,,,,,,00958960627fa.jpg,,,,,,,,,,,,,,,
236,skinpeel,Memory,4,,,,,,,01000960627fa.jpg,,,,,,,,,,,,,,,
237,skinpeel,Memory,4,,,,,,,sunaisiwfgppimtnmxl.jpg,,,,,,,,,,,,,,,
238,skinpeel,Memory,4,,,,,,,sunbvzmgrdvaakxusbu.jpg,,,,,,,,,,,,,,,
239,skinpeel,Memory,4,,,,,,,sunbbgtoeuzierkkajt.jpg,,,,,,,,,,,,,,,
240,skinpeel,Memory,4,,,,,,,sunaffstbkappprzxnv.jpg,,,,,,,,,,,,,,,
241,skinpeel,Memory,4,,,,,,,sunbesrwkdsffeogeqq.jpg,,,,,,,,,,,,,,,
242,skinpeel,Memory,4,,,,,,,sunadrmfzmstgdjdcod.jpg,,,,,,,,,,,,,,,
243,skinpeel,Memory,4,,,,,,,sunapqkpqdfvxlbqwyo.jpg,,,,,,,,,,,,,,,
244,skinpeel,Memory,4,,,,,,,00787960620fa.jpg,,,,,,,,,,,,,,,
245,skinpeel,Memory,4,,,,,,,00481940519fa.jpg,,,,,,,,,,,,,,,
246,skinpeel,Memory,4,,,,,,,sunalkiibhqpxfamlll.jpg,,,,,,,,,,,,,,,
247,skinpeel,Memory,4,,,,,,,00921960627fa.jpg,,,,,,,,,,,,,,,
248,skinpeel,Memory,4,,,,,,,sunbdycacjfaujxitbw.jpg,,,,,,,,,,,,,,,
249,skinpeel,Memory,4,,,,,,,sunagoufulkpsxrmklt.jpg,,,,,,,,,,,,,,,
250,skinpeel,Presentation,5,00805941205fa_sunagwzdbtlixdhgolm.jpg,00123931230fb_sunaalcrrdbjgdztbiz.jpg,,,,,,,<,Place,,,,,1,,,,,,,o
251,skinpeel,Presentation,5,00795941205fa_sunagtumacdlmciqamz.jpg,00245940128fa_sunabeyhmxodahoieyk.jpg,,,,,,,>,Face,,,,,1,,,,,,,o
252,skinpeel,Presentation,5,00827940307fa_sunahtfxgsrmkiulnwk.jpg,00929960627fa_sunaprnrbmgkomdbchr.jpg,,,,,,,>,Place,,,,,1,,,,,,,x
253,skinpeel,Presentation,5,00060931230fa_sunaaehaikpckyjsety.jpg,00163931230fb_sunaavodbcpygkggnfp.jpg,,,,,,,<,Place,,,,,1,,,,,,,o
254,skinpeel,Presentation,5,00130931230fa_sunaamvxnvouicstkjb.jpg,00752960620fa_sunafbwnojpqeyzssoe.jpg,,,,,,,>,Face,,,,,0,,,,,,,o
255,skinpeel,Presentation,5,00062931230fb_sunaaelotvjgibjtjhs.jpg,00598940928fa_sunacxeheuiigkcgquf.jpg,,,,,,,<,Face,,,,,1,,,,,,,x
256,skinpeel,Presentation,5,00185940422fb_sunaawqdbpihmlbwyyn.jpg,00862940307fa_sunaizgnnplsvajzhkc.jpg,,,,,,,<,Place,,,,,1,,,,,,,o
257,skinpeel,Presentation,5,00719960620fa_sunadzuvtmtmgupotmf.jpg,00302940422fa_sunabtlfmiwtljmoues.jpg,,,,,,,>,Face,,,,,1,,,,,,,x
258,skinpeel,Presentation,5,00793941205fa_sunagtjwilqjvxohypn.jpg,01011960627fa_sundahdxwmcdluscvot.jpg,,,,,,,<,Face,,,,,1,,,,,,,x
259,skinpeel,Presentation,5,00965960627fa_sunaydywdmvlfddbxbk.jpg,00950960627fa_sunasrjlmglmjzbmqxb.jpg,,,,,,,>,Place,,,,,1,,,,,,,x
260,skinpeel,Memory,5,,,,,,,00245940128fa.jpg,,,,,,,,,,,,,,,
261,skinpeel,Memory,5,,,,,,,sunafvsxtzaizojicxx.jpg,,,,,,,,,,,,,,,
262,skinpeel,Memory,5,,,,,,,00984960627fa.jpg,,,,,,,,,,,,,,,
263,skinpeel,Memory,5,,,,,,,00773960620fa.jpg,,,,,,,,,,,,,,,
264,skinpeel,Memory,5,,,,,,,00790941205fa.jpg,,,,,,,,,,,,,,,
265,skinpeel,Memory,5,,,,,,,sunamkmeblgteyggink.jpg,,,,,,,,,,,,,,,
266,skinpeel,Memory,5,,,,,,,00965960627fa.jpg,,,,,,,,,,,,,,,
267,skinpeel,Memory,5,,,,,,,sunabmbnddafmywtjjj.jpg,,,,,,,,,,,,,,,
268,skinpeel,Memory,5,,,,,,,sunasnqkkyhilqkxiqm.jpg,,,,,,,,,,,,,,,
269,skinpeel,Memory,5,,,,,,,00123931230fb.jpg,,,,,,,,,,,,,,,
270,skinpeel,Memory,5,,,,,,,00271940422fa.jpg,,,,,,,,,,,,,,,
271,skinpeel,Memory,5,,,,,,,00795941205fa.jpg,,,,,,,,,,,,,,,
272,skinpeel,Memory,5,,,,,,,sundahdxwmcdluscvot.jpg,,,,,,,,,,,,,,,
273,skinpeel,Memory,5,,,,,,,00752960620fa.jpg,,,,,,,,,,,,,,,
274,skinpeel,Memory,5,,,,,,,sunaaekxzjzrfgtkwjf.jpg,,,,,,,,,,,,,,,
275,skinpeel,Memory,5,,,,,,,sunaavchcbptaerhcfy.jpg,,,,,,,,,,,,,,,
276,skinpeel,Memory,5,,,,,,,sunaekgzpfilgjxpeyq.jpg,,,,,,,,,,,,,,,
277,skinpeel,Memory,5,,,,,,,sunaizeyhvjzknwjudw.jpg,,,,,,,,,,,,,,,
278,skinpeel,Memory,5,,,,,,,00898960530fa.jpg,,,,,,,,,,,,,,,
279,skinpeel,Memory,5,,,,,,,sunaydywdmvlfddbxbk.jpg,,,,,,,,,,,,,,,
280,skinpeel,Memory,5,,,,,,,00060931230fa.jpg,,,,,,,,,,,,,,,
281,skinpeel,Memory,5,,,,,,,sunahtfxgsrmkiulnwk.jpg,,,,,,,,,,,,,,,
282,skinpeel,Memory,5,,,,,,,00730960620fa.jpg,,,,,,,,,,,,,,,
283,skinpeel,Memory,5,,,,,,,00827940307fa.jpg,,,,,,,,,,,,,,,
284,skinpeel,Memory,5,,,,,,,sunaprnrbmgkomdbchr.jpg,,,,,,,,,,,,,,,
285,skinpeel,Memory,5,,,,,,,sunafbwnojpqeyzssoe.jpg,,,,,,,,,,,,,,,
286,skinpeel,Memory,5,,,,,,,00860940307fa.jpg,,,,,,,,,,,,,,,
287,skinpeel,Memory,5,,,,,,,00719960620fa.jpg,,,,,,,,,,,,,,,
288,skinpeel,Memory,5,,,,,,,sunagpjzsbltchlwvou.jpg,,,,,,,,,,,,,,,
289,skinpeel,Memory,5,,,,,,,sunadzuvtmtmgupotmf.jpg,,,,,,,,,,,,,,,
290,skinpeel,Memory,5,,,,,,,01011960627fa.jpg,,,,,,,,,,,,,,,
291,skinpeel,Memory,5,,,,,,,00158931230fb.jpg,,,,,,,,,,,,,,,
292,skinpeel,Memory,5,,,,,,,sunaalcrrdbjgdztbiz.jpg,,,,,,,,,,,,,,,
293,skinpeel,Memory,5,,,,,,,00929960627fa.jpg,,,,,,,,,,,,,,,
294,skinpeel,Memory,5,,,,,,,sunbfzchmomnvzhbxdg.jpg,,,,,,,,,,,,,,,
295,skinpeel,Memory,5,,,,,,,00949960627fb.jpg,,,,,,,,,,,,,,,
296,skinpeel,Memory,5,,,,,,,sunagtumacdlmciqamz.jpg,,,,,,,,,,,,,,,
297,skinpeel,Memory,5,,,,,,,sunabeyhmxodahoieyk.jpg,,,,,,,,,,,,,,,
298,skinpeel,Memory,5,,,,,,,00061931230fb.jpg,,,,,,,,,,,,,,,
299,skinpeel,Memory,5,,,,,,,sunaaehaikpckyjsety.jpg,,,,,,,,,,,,,,,
300,skinpeel,Presentation,6,00885960530fa_sunakwlvxjpddialozd.jpg,00783941205fa_sunagjeesomrwjsfqie.jpg,,,,,,,<,Face,,,,,1,,,,,,,x
301,skinpeel,Presentation,6,00889960530fa_sunaletopenvvozhpxc.jpg,00953960627fa_sunatstrpjxhvtbaczf.jpg,,,,,,,>,Face,,,,,1,,,,,,,o
302,skinpeel,Presentation,6,00931960627fa_sunaptrqvaooxfvktvw.jpg,00564940928fa_sunacmpqqfbsvlzinzl.jpg,,,,,,,<,Face,,,,,1,,,,,,,o
303,skinpeel,Presentation,6,00294940422fb_sunabrlndkruqokhury.jpg,00796941205fa_sunaguchqqnrtodtezq.jpg,,,,,,,>,Place,,,,,1,,,,,,,x
304,skinpeel,Presentation,6,00770941201fa_sunaflojskatpeqyzqp.jpg,00870940307fa_sunajrgtewnualfcerj.jpg,,,,,,,<,Place,,,,,0,,,,,,,x
305,skinpeel,Presentation,6,00919960620fa_sunapmfmzadmosuogaz.jpg,00260940128fa_sunabgfhvifeijihhjw.jpg,,,,,,,>,Place,,,,,1,,,,,,,o
306,skinpeel,Presentation,6,00102931230fa_sunaajspcoepticvplv.jpg,00082931230fa_sunaafvitpexrpvumsa.jpg,,,,,,,>,Face,,,,,0,,,,,,,x
307,skinpeel,Presentation,6,00993960627fa_sunbprywzqxjcezkbch.jpg,00952960627fa_sunathzzbcwjykldrem.jpg,,,,,,,<,Place,,,,,1,,,,,,,o
308,skinpeel,Presentation,6,00902960530fa_sunanaacmmosxrfwmvl.jpg,00095931230fa_sunaahzooisqkwlxwoz.jpg,,,,,,,<,Face,,,,,1,,,,,,,o
309,skinpeel,Presentation,6,00090931230fa_sunaahedjlmtqekgyvj.jpg,00115931230fa_sunaakmxzhuceuiryah.jpg,,,,,,,>,Place,,,,,1,,,,,,,x
310,skinpeel,Memory,6,,,,,,,sunarceibpcyacbmfga.jpg,,,,,,,,,,,,,,,
311,skinpeel,Memory,6,,,,,,,sunacmpqqfbsvlzinzl.jpg,,,,,,,,,,,,,,,
312,skinpeel,Memory,6,,,,,,,sunakwlvxjpddialozd.jpg,,,,,,,,,,,,,,,
313,skinpeel,Memory,6,,,,,,,00953960627fa.jpg,,,,,,,,,,,,,,,
314,skinpeel,Memory,6,,,,,,,00783941205fa.jpg,,,,,,,,,,,,,,,
315,skinpeel,Memory,6,,,,,,,00902960530fa.jpg,,,,,,,,,,,,,,,
316,skinpeel,Memory,6,,,,,,,00564940928fa.jpg,,,,,,,,,,,,,,,
317,skinpeel,Memory,6,,,,,,,00993960627fa.jpg,,,,,,,,,,,,,,,
318,skinpeel,Memory,6,,,,,,,sunatstrpjxhvtbaczf.jpg,,,,,,,,,,,,,,,
319,skinpeel,Memory,6,,,,,,,01003960627fb.jpg,,,,,,,,,,,,,,,
320,skinpeel,Memory,6,,,,,,,sunbloeoiozwjjsiamp.jpg,,,,,,,,,,,,,,,
321,skinpeel,Memory,6,,,,,,,00987960627fa.jpg,,,,,,,,,,,,,,,
322,skinpeel,Memory,6,,,,,,,sunaajspcoepticvplv.jpg,,,,,,,,,,,,,,,
323,skinpeel,Memory,6,,,,,,,00952960627fa.jpg,,,,,,,,,,,,,,,
324,skinpeel,Memory,6,,,,,,,00970960627fa.jpg,,,,,,,,,,,,,,,
325,skinpeel,Memory,6,,,,,,,00939960627fa.jpg,,,,,,,,,,,,,,,
326,skinpeel,Memory,6,,,,,,,sunahpblecxtmuzkmxb.jpg,,,,,,,,,,,,,,,
327,skinpeel,Memory,6,,,,,,,00791941205fa.jpg,,,,,,,,,,,,,,,
328,skinpeel,Memory,6,,,,,,,sunathzzbcwjykldrem.jpg,,,,,,,,,,,,,,,
329,skinpeel,Memory,6,,,,,,,sunagjeesomrwjsfqie.jpg,,,,,,,,,,,,,,,
330,skinpeel,Memory,6,,,,,,,00620940928fa.jpg,,,,,,,,,,,,,,,
331,skinpeel,Memory,6,,,,,,,00745941205fa.jpg,,,,,,,,,,,,,,,
332,skinpeel,Memory,6,,,,,,,sunaeouogqolxvggaoq.jpg,,,,,,,,,,,,,,,
333,skinpeel,Memory,6,,,,,,,00910960530fa.jpg,,,,,,,,,,,,,,,
334,skinpeel,Memory,6,,,,,,,sunagtqhhwxjeuxdebe.jpg,,,,,,,,,,,,,,,
335,skinpeel,Memory,6,,,,,,,00794960620fa.jpg,,,,,,,,,,,,,,,
336,skinpeel,Memory,6,,,,,,,sunaofikylqtxphvdem.jpg,,,,,,,,,,,,,,,
337,skinpeel,Memory,6,,,,,,,sunbasypfgzjtomktmu.jpg,,,,,,,,,,,,,,,
338,skinpeel,Memory,6,,,,,,,sunaahedjlmtqekgyvj.jpg,,,,,,,,,,,,,,,
339,skinpeel,Memory,6,,,,,,,sunbprywzqxjcezkbch.jpg,,,,,,,,,,,,,,,
340,skinpeel,Memory,6,,,,,,,sunagrmyoovzukhxmlo.jpg,,,,,,,,,,,,,,,
341,skinpeel,Memory,6,,,,,,,00090931230fa.jpg,,,,,,,,,,,,,,,
342,skinpeel,Memory,6,,,,,,,sunaakmxzhuceuiryah.jpg,,,,,,,,,,,,,,,
343,skinpeel,Memory,6,,,,,,,00102931230fa.jpg,,,,,,,,,,,,,,,
344,skinpeel,Memory,6,,,,,,,sunacypmnujalygkunp.jpg,,,,,,,,,,,,,,,
345,skinpeel,Memory,6,,,,,,,sunbwdrdvsweerwsdrj.jpg,,,,,,,,,,,,,,,
346,skinpeel,Memory,6,,,,,,,00115931230fa.jpg,,,,,,,,,,,,,,,
347,skinpeel,Memory,6,,,,,,,00818940307fa.jpg,,,,,,,,,,,,,,,
348,skinpeel,Memory,6,,,,,,,00885960530fa.jpg,,,,,,,,,,,,,,,
349,skinpeel,Memory,6,,,,,,,sunanaacmmosxrfwmvl.jpg,,,,,,,,,,,,,,,
350,skinpeel,Presentation,7,00532960627fa_sunaccdtpgenvcbcbcf.jpg,00838940307fa_sunaiozxhxgtfrmoagh.jpg,,,,,,,>,Face,,,,,1,,,,,,,x
351,skinpeel,Presentation,7,00947960627fa_sunasmmcxdddtmtazwx.jpg,00065931230fb_sunaaemixhfquhnxxlm.jpg,,,,,,,<,Place,,,,,1,,,,,,,x
352,skinpeel,Presentation,7,00836940307fa_sunainqelldeebvxtcz.jpg,00129931230fb_sunaamsdyakblkfoydx.jpg,,,,,,,<,Face,,,,,1,,,,,,,o
353,skinpeel,Presentation,7,00986960627fa_sunbgzjryivyczuvkvm.jpg,00988960627fa_sunbmaiocftdtvnzgap.jpg,,,,,,,<,Place,,,,,1,,,,,,,x
354,skinpeel,Presentation,7,00874940307fa_sunajtrfunvzdfticna.jpg,00914960620fa_sunaozisvwfbmlkfhzv.jpg,,,,,,,>,Face,,,,,1,,,,,,,x
355,skinpeel,Presentation,7,00784941205fb_sunagjzcrjvmxzqzljx.jpg,00972960627fa_sunbbfqwjpdxniyhies.jpg,,,,,,,>,Place,,,,,0,,,,,,,o
356,skinpeel,Presentation,7,00073931230fa_sunaafbmtoniaasysgu.jpg,00080931230fb_sunaafjszryxyavjzln.jpg,,,,,,,>,Face,,,,,1,,,,,,,o
357,skinpeel,Presentation,7,00505960627fa_sunabzuqsrgcsonqlkz.jpg,00778941205fa_sunagcthdfirrcawoic.jpg,,,,,,,>,Place,,,,,1,,,,,,,x
358,skinpeel,Presentation,7,00210940128fb_sunabanoxjtqxamkucc.jpg,00288940422fa_sunabppokiyglaxpcha.jpg,,,,,,,<,Place,,,,,1,,,,,,,o
359,skinpeel,Presentation,7,00772941201fa_sunafpfpiiujzoesnqg.jpg,00676941121fa_sunadpnqovzckyikrjo.jpg,,,,,,,<,Face,,,,,1,,,,,,,x
360,skinpeel,Memory,7,,,,,,,sunaiwduelojtwaqeyh.jpg,,,,,,,,,,,,,,,
361,skinpeel,Memory,7,,,,,,,sunaiozxhxgtfrmoagh.jpg,,,,,,,,,,,,,,,
362,skinpeel,Memory,7,,,,,,,sunabyfxcxhdebvdyfd.jpg,,,,,,,,,,,,,,,
363,skinpeel,Memory,7,,,,,,,00874940307fa.jpg,,,,,,,,,,,,,,,
364,skinpeel,Memory,7,,,,,,,sunaafbmtoniaasysgu.jpg,,,,,,,,,,,,,,,
365,skinpeel,Memory,7,,,,,,,sunabbwggenhfbftyvi.jpg,,,,,,,,,,,,,,,
366,skinpeel,Memory,7,,,,,,,00218940128fa.jpg,,,,,,,,,,,,,,,
367,skinpeel,Memory,7,,,,,,,sunaafjszryxyavjzln.jpg,,,,,,,,,,,,,,,
368,skinpeel,Memory,7,,,,,,,sunagmwxxwymwojbvgi.jpg,,,,,,,,,,,,,,,
369,skinpeel,Memory,7,,,,,,,sunaivflshbyfrfzhqb.jpg,,,,,,,,,,,,,,,
370,skinpeel,Memory,7,,,,,,,00080931230fb.jpg,,,,,,,,,,,,,,,
371,skinpeel,Memory,7,,,,,,,00065931230fb.jpg,,,,,,,,,,,,,,,
372,skinpeel,Memory,7,,,,,,,00838940307fa.jpg,,,,,,,,,,,,,,,
373,skinpeel,Memory,7,,,,,,,00816941205fa.jpg,,,,,,,,,,,,,,,
374,skinpeel,Memory,7,,,,,,,sunafcofuuzebuadceo.jpg,,,,,,,,,,,,,,,
375,skinpeel,Memory,7,,,,,,,sunasmmcxdddtmtazwx.jpg,,,,,,,,,,,,,,,
376,skinpeel,Memory,7,,,,,,,00947960627fa.jpg,,,,,,,,,,,,,,,
377,skinpeel,Memory,7,,,,,,,00988960627fa.jpg,,,,,,,,,,,,,,,
378,skinpeel,Memory,7,,,,,,,00983960627fa.jpg,,,,,,,,,,,,,,,
379,skinpeel,Memory,7,,,,,,,sunbfyvfqiimvdaxlqn.jpg,,,,,,,,,,,,,,,
380,skinpeel,Memory,7,,,,,,,00073931230fa.jpg,,,,,,,,,,,,,,,
381,skinpeel,Memory,7,,,,,,,sunaamsdyakblkfoydx.jpg,,,,,,,,,,,,,,,
382,skinpeel,Memory,7,,,,,,,00129931230fb.jpg,,,,,,,,,,,,,,,
383,skinpeel,Memory,7,,,,,,,sunahmhrncocyhsjpxk.jpg,,,,,,,,,,,,,,,
384,skinpeel,Memory,7,,,,,,,sunbmaiocftdtvnzgap.jpg,,,,,,,,,,,,,,,
385,skinpeel,Memory,7,,,,,,,sunaddsaeicthrfbkhe.jpg,,,,,,,,,,,,,,,
386,skinpeel,Memory,7,,,,,,,sunaqsolmfydodnakub.jpg,,,,,,,,,,,,,,,
387,skinpeel,Memory,7,,,,,,,00753941201fa.jpg,,,,,,,,,,,,,,,
388,skinpeel,Memory,7,,,,,,,sunajtrfunvzdfticna.jpg,,,,,,,,,,,,,,,
389,skinpeel,Memory,7,,,,,,,00787941205fa.jpg,,,,,,,,,,,,,,,
390,skinpeel,Memory,7,,,,,,,00854940307fa.jpg,,,,,,,,,,,,,,,
391,skinpeel,Memory,7,,,,,,,00635941031fa.jpg,,,,,,,,,,,,,,,
392,skinpeel,Memory,7,,,,,,,00851940307fa.jpg,,,,,,,,,,,,,,,
393,skinpeel,Memory,7,,,,,,,sunaaemixhfquhnxxlm.jpg,,,,,,,,,,,,,,,
394,skinpeel,Memory,7,,,,,,,sunafpfpiiujzoesnqg.jpg,,,,,,,,,,,,,,,
395,skinpeel,Memory,7,,,,,,,00482940519fa.jpg,,,,,,,,,,,,,,,
396,skinpeel,Memory,7,,,,,,,sunabzuqsrgcsonqlkz.jpg,,,,,,,,,,,,,,,
397,skinpeel,Memory,7,,,,,,,00505960627fa.jpg,,,,,,,,,,,,,,,
398,skinpeel,Memory,7,,,,,,,00772941201fa.jpg,,,,,,,,,,,,,,,
399,skinpeel,Memory,7,,,,,,,00937960627fa.jpg,,,,,,,,,,,,,,,
